time,seconds_elapsed,z,y,x
1738772973449721900,0.028721923828125,-0.09051613722741603,-0.0027446088332915676,-0.020879121899604797
1738772973459712800,0.038712646484375,-0.062383683198690414,0.008890742338914424,-0.030455928540229795
1738772973469705000,0.048705078125,-0.06251753871142864,-0.008918952369957696,-0.033173370805382726
1738772973479696000,0.05869580078125,-0.06835398977994918,-0.0003859830933040939,-0.03347264601290226
1738772973489687000,0.06868701171875,-0.07745207299292087,-0.006048762661928777,-0.017657237243652344
1738772973499678000,0.078677978515625,-0.06333119318187236,-0.00506568132515531,-0.019684943678975105
1738772973509668900,0.0886689453125,-0.07821136692762375,0.0006553358033066615,-0.018016133683919907
1738772973519659800,0.09865966796875,-0.07634966470897198,0.0016437189362826757,-0.023504209706187246
1738772973529652000,0.10865185546875,-0.0605628975123167,-0.002992747508618049,-0.030350130078196525
1738772973539643000,0.118642822265625,-0.06911328371465206,-0.009901207156246528,-0.018646248281002045
1738772973549634000,0.128634033203125,-0.0752373195528984,-0.002185091237409506,-0.04140811518728733
1738772973559625000,0.138625,-0.07758534398376941,-0.005156576762290205,-0.03654021688997745
1738772973569616000,0.148615966796875,-0.07035422368645668,0.0010579480877146124,-0.029732290440797803
1738772973579606800,0.158606689453125,-0.05792378118038177,-0.0043179659471032205,-0.04052256452441215
1738772973589598000,0.168597900390625,-0.060581017690896986,-0.005032251696300227,-0.016785715106129646
1738772973599590000,0.17858984375,-0.052312955561280246,-0.0007602803153917193,-0.018638649496436118
1738772973609580800,0.188580810546875,-0.0726145698338747,0.005597744658531155,-0.022005495581030845
1738772973619572000,0.198572021484375,-0.06450549765825271,0.003002355587179772,-0.03357143021225929
1738772973629563000,0.20856298828125,-0.07096621810495853,-0.008674793466716072,-0.02679799055457115
1738772973639553800,0.2185537109375,-0.0747317081183195,-0.009101364298735279,-0.021822540229558943
1738772973649545000,0.228544921875,-0.07519815658628941,0.00920349579922622,-0.029576807618141174
1738772973659537000,0.238536865234375,-0.08211071245372295,-0.003091734920663293,-0.023995792615413663
1738772973669527800,0.24852783203125,-0.07425356921255588,-0.004617448933888227,-0.018722820648550985
1738772973679519000,0.25851904296875,-0.06092763917148113,-0.0018461324734729714,-0.0265168355256319
1738772973689510000,0.268510009765625,-0.08093348536789417,0.0011403930736239999,-0.02598667417168617
1738772973699500800,0.278500732421875,-0.07223521512746811,-0.0040065208111773245,-0.024819383957982062
1738772973709492000,0.288491943359375,-0.08072948722839356,-0.0003786902694148011,-0.027864743003249166
1738772973719484000,0.29848388671875,-0.0795072519570589,0.001299088483385276,-0.0395750545412302
1738772973729474800,0.308474853515625,-0.0824918207257986,-0.0032251817247364667,-0.032704584249854084
1738772973739466000,0.318466064453125,-0.08067688025832176,-0.01135749549533939,-0.038569092369079586
1738772973749457000,0.328456787109375,-0.06733458360433578,-0.0050115034525049845,-0.03396832057535648
1738772973759447800,0.33844775390625,-0.08347381750047206,0.003233776023145765,-0.02262859591543674
1738772973769438700,0.348438720703125,-0.08555120829641819,-0.00504420242899796,-0.03537409572005272
1738772973779430000,0.358429931640625,-0.05948562366962432,-0.007842897803394588,-0.032574820390343665
1738772973789421800,0.368421875,-0.058092708006501195,-0.0023390762227238153,-0.020523148068785666
1738772973799413000,0.3784130859375,-0.06825929723381996,-0.0013354384384001603,-0.02218377475738525
1738772973809404000,0.38840380859375,-0.07317512632608414,-0.01898910233534407,-0.028501287341117856
1738772973819394800,0.398394775390625,-0.07778817307949065,-0.0038745992439100517,-0.016869301736354828
1738772973829385700,0.4083857421875,-0.069503159815073,-0.008339467414992396,-0.025780922466516493
1738772973839377000,0.418376953125,-0.0766185447782278,-0.02155747781889513,-0.02872515922486782
1738772973849368800,0.428368896484375,-0.07300327689051628,-0.014922809594369027,-0.015594459494948386
1738772973859360000,0.438360107421875,-0.06640402475595474,-0.0032227865549619306,-0.0180120420306921
1738772973869351000,0.448350830078125,-0.07757891424298285,-0.005330405809101648,-0.01913140144944191
1738772973879341800,0.458341796875,-0.0769499686896801,-0.008494918271608184,-0.027408231407403946
1738772973889332700,0.468332763671875,-0.047263855478167534,-0.014700720959040335,-0.022857143974304196
1738772973899324000,0.478323974609375,-0.07876900081038475,-0.0015953018008498473,-0.027151041775941846
1738772973909315800,0.48831591796875,-0.07202537176907062,-0.007246409197989851,-0.023126024043560026
1738772973919306800,0.498306640625,-0.07263269001245498,-0.014559832917316816,-0.022814473876357075
1738772973929298000,0.5082978515625,-0.06837620161175728,-0.0088161518658977,-0.022766543081402777
1738772973939288800,0.518288818359375,-0.07392799052000046,-0.0037841056655743156,-0.029026772519946096
1738772973949279700,0.52827978515625,-0.07855038962364197,-0.01048587060982827,-0.020823007798194883
1738772973959271000,0.53827099609375,-0.07794482494592667,-0.0061071395023725925,-0.021731354814767838
1738772973969261800,0.54826171875,-0.06941957318484783,0.0022920222106040454,-0.028459201765060425
1738772973979253800,0.558253662109375,-0.06474281354546546,-0.0014506508994614705,-0.013104396244883536
1738772973989245000,0.568244873046875,-0.08104220643937587,-0.003689540983608458,-0.03107669078707695
1738772973999235800,0.57823583984375,-0.0557353312253952,-0.0086259105404024,-0.024819968479871748
1738772974009226800,0.588226806640625,-0.06887655234932899,-0.005322090071905404,-0.01707914509475231
1738772974019218000,0.598218017578125,-0.0838689542979002,-0.004135101927176583,-0.028708208090066908
1738772974029208800,0.608208740234375,-0.06920037747621535,-0.005998557711497415,-0.026170214045047758
1738772974039200800,0.61820068359375,-0.06951426573097705,0.002844641991530079,-0.013728081101179122
1738772974049192000,0.62819189453125,-0.07650690109729766,0.00904876189524075,-0.028154665860533713
1738772974059182800,0.638182861328125,-0.06913374198079109,-0.010541480104450602,-0.02956336361467838
1738772974069173800,0.648173828125,-0.06807984901368618,-0.0017269037077086978,-0.029573300486803053
1738772974079164700,0.65816455078125,-0.0614472791314125,0.010620904299500397,-0.017076807007193565
1738772974089155800,0.66815576171875,-0.06796528272330761,-0.006916234245419036,-0.02780044559538364
1738772974099147800,0.678147705078125,-0.07689268554449082,-0.01418599463624414,-0.031169629767537115
1738772974109139000,0.688138916015625,-0.07974573688805103,-0.004895841183583252,-0.023822189614176748
1738772974119129900,0.6981298828125,-0.07014087319672108,-0.0036074453408597037,-0.022069208467006683
1738772974129120800,0.708120849609375,-0.08283376603126526,-0.009854840414004865,-0.027346856608986853
1738772974139111700,0.718111572265625,-0.0781786337018013,0.00750620406178059,-0.0242296013712883
1738772974149103600,0.728103515625,-0.0829454097121954,-0.003896916106995195,-0.033091537740826606
1738772974159095800,0.738095703125,-0.07137362986207008,-0.008873350529407617,-0.0349608387440443
1738772974169086700,0.748086669921875,-0.0737608172595501,-0.0023394415489048697,-0.03153027977347374
1738772974179077600,0.75807763671875,-0.06893325097262859,-0.002847066844056826,-0.033685411980748176
1738772974189068800,0.76806884765625,-0.068152914249897,-0.001286085154628381,-0.020565818166732787
1738772974199059700,0.778059814453125,-0.06288052680492401,0.000012156228674575686,-0.01448503694832325
1738772974209050600,0.788050537109375,-0.06960662018954754,-0.004572472714423201,-0.02362520573735237
1738772974219042800,0.798042724609375,-0.07480828048586845,-0.014581161116424482,-0.036248540467023846
1738772974229033700,0.80803369140625,-0.07584814492762089,0.0005956323721678928,-0.01396481246650219
1738772974239024600,0.818024658203125,-0.061923664471507066,-0.0065668773850542485,-0.0178682496458292
1738772974249015800,0.828015869140625,-0.07956044344902038,-0.006965614928654395,-0.02837269252538681
1738772974259006700,0.8380068359375,-0.0720873310893774,0.0011842847309890203,-0.024769699597358703
1738772974268997600,0.84799755859375,-0.05602233147323131,0.0026719431725912724,-0.027245149800181386
1738772974278988800,0.85798876953125,-0.06732113960087299,-0.0007008668619091622,-0.01927519383430481
1738772974288980700,0.867980712890625,-0.06504208875298499,0.00456659096290823,-0.023218963024020194
1738772974298971600,0.8779716796875,-0.07689151650071144,-0.007342460300854873,-0.022578327032923697
1738772974308962800,0.887962890625,-0.07194003157317638,-0.0024985045681358313,-0.035766309908032416
1738772974318953700,0.89795361328125,-0.06860591871440411,-0.0009000792284379713,-0.021914310166239737
1738772974328944600,0.907944580078125,-0.0770633659362793,0.0049218158750562,-0.017833178332448005
1738772974338935800,0.917935791015625,-0.07057926461398602,-0.0008810914001776836,-0.04185176730155945
1738772974348927700,0.927927734375,-0.07878595194518566,-0.0026367668279330242,-0.013455693900585174
1738772974358918700,0.937918701171875,-0.07865092738866805,-0.0047604924000799655,-0.024656302350759506
1738772974368909800,0.947909912109375,-0.07685936779677867,-0.0038425715542747636,-0.01731763002574444
1738772974378900700,0.957900634765625,-0.07264145784080028,-0.0007491173172718845,-0.033221886122226714
1738772974388891600,0.9678916015625,-0.060959203353524206,0.0000820522602647543,-0.02336333993077278
1738772974398882600,0.977882568359375,-0.07899228817224502,-0.004421033595933113,-0.03379880922734737
1738772974408873700,0.987873779296875,-0.07638999671936035,0.003441610087547451,-0.03284019332826137
1738772974418865700,0.99786572265625,-0.06918167277574538,-0.007869708178506699,-0.02838964366018772
1738772974428856800,1.00785693359375,-0.06347030939161777,-0.0044309385020169425,-0.023788871866464615
1738772974438847700,1.01784765625,-0.0701572398096323,-0.005014811937732156,-0.03777706520855426
1738772974448838700,1.027838623046875,-0.07406944481730461,-0.010562593674426898,-0.03864215760529041
1738772974458829600,1.03782958984375,-0.0691027623206377,-0.00892363082836382,-0.017884616258740424
1738772974468820700,1.04782080078125,-0.07265723993182181,-0.011334758507146034,-0.033653847798705096
1738772974478812700,1.057812744140625,-0.06695289081037044,-0.007706950798269827,-0.023505963271856306
1738772974488803600,1.067803466796875,-0.0762006116271019,-0.002861134185316041,-0.02639408592879772
1738772974498794800,1.077794677734375,-0.0603232435375452,0.0026714613986900076,-0.030907179439067838
1738772974508785700,1.08778564453125,-0.06417933444380759,-0.007533779338584281,-0.02781798125207424
1738772974518776600,1.097776611328125,-0.0684627108514309,-0.002761301956477109,-0.03433715388774872
1738772974528767700,1.107767822265625,-0.0747445675998926,0.0031731866760179397,-0.024315526089072226
1738772974538759700,1.117759765625,-0.06426350559592246,0.0032610750220250337,-0.034650457620620724
1738772974548750600,1.12775048828125,-0.0588373888939619,-0.00006110765364719554,-0.028725743746757505
1738772974558741800,1.13774169921875,-0.08010054167509079,0.00596192006211495,-0.03259294056892395
1738772974568732700,1.147732666015625,-0.06536883648931979,-0.007847939304693135,-0.02955284222066402
1738772974578723600,1.1577236328125,-0.06597790829837322,-0.0009207018913584761,-0.023252280771732328
1738772974588714800,1.16771484375,-0.06703063222169876,-0.00992092107029166,-0.022645547050237653
1738772974598706700,1.177706787109375,-0.07080781267285347,0.004162569889414589,-0.020346622458100316
1738772974608697600,1.187697509765625,-0.0802086782246828,0.0001625153516419232,-0.02442600072622299
1738772974618688800,1.197688720703125,-0.07790507745742797,0.003035018031054642,-0.027508769172430038
1738772974628679700,1.2076796875,-0.06861059488952159,0.012048786244727671,-0.03651274436116218
1738772974638670600,1.217670654296875,-0.07291618312895297,-0.002506630792375654,-0.0352180283755064
1738772974648661800,1.227661865234375,-0.07365735688507556,-0.0032899494900600983,-0.022059856116771696
1738772974658652700,1.237652587890625,-0.07188567103743553,0.003188557775085792,-0.02890811457633972
1738772974668644600,1.24764453125,-0.07284779406785964,-0.017063557083264458,-0.031204116559028622
1738772974678635800,1.2576357421875,-0.06702303343713283,-0.0026003597907023504,-0.029092238971590995
1738772974688626700,1.267626708984375,-0.06582534808516502,-0.008178290070488583,-0.01368073482811451
1738772974698617600,1.27761767578125,-0.06625555619597434,-0.0007099018350243568,-0.020292261922359466
1738772974708608500,1.2876083984375,-0.07151800676882267,-0.0037731321804109026,-0.021151509100198744
1738772974718599700,1.297599609375,-0.060602645000815386,0.0005591522697010078,-0.028172786039113995
1738772974728591600,1.307591552734375,-0.062353288060426705,0.004921918623044621,-0.009235445857048033
1738772974738582800,1.317582763671875,-0.07745207299292087,0.0014626061987364663,-0.024521277794241902
1738772974748573700,1.32757373046875,-0.08061199832856655,-0.006565128385962452,-0.015366495957970619
1738772974758564600,1.337564697265625,-0.06879822641611098,0.00007221128626260907,-0.015804887375235558
1738772974768555500,1.347555419921875,-0.06293605638444423,-0.010252664642152376,-0.024373978278040883
1738772974778546700,1.357546630859375,-0.06626958472132682,-0.0021808077879366464,-0.033738603472709655
1738772974788538600,1.36753857421875,-0.06294833134412765,0.011178549598704558,-0.028545711004734037
1738772974798529500,1.377529541015625,-0.058578445696830746,-0.007068867523863445,-0.03771861301958561
1738772974808520700,1.387520751953125,-0.07471709507107734,-0.003501660578558221,-0.037303602477908135
1738772974818511600,1.39751171875,-0.06590542758405209,-0.010666270961321424,-0.027552023792266844
1738772974828502500,1.40750244140625,-0.07488660641908645,-0.001841216553049162,-0.03592646890580654
1738772974838494000,1.417493896484375,-0.0777034174054861,-0.005211419071932323,-0.031178982117772102
1738772974848485600,1.427485595703125,-0.05764028806388378,-0.0016257745709270237,-0.022967034089565276
1738772974858476500,1.4374765625,-0.06674421649575234,-0.004757590340229217,-0.026894436666369436
1738772974868467700,1.4474677734375,-0.08037935861647129,0.0026657371940906156,-0.03135492320656776
1738772974878458600,1.457458740234375,-0.06107376964390278,0.006513569445372559,-0.025373510709404943
1738772974888449800,1.46744970703125,-0.07337211020290851,-0.0022091411165660246,-0.015755203014612196
1738772974898441000,1.47744091796875,-0.06437222666740416,0.004860205897910055,-0.0394312621563673
1738772974908432600,1.4874326171875,-0.06925356896817683,-0.006080801768007222,-0.026048633491992948
1738772974918423600,1.497423583984375,-0.06710662006735801,-0.007141622232820373,-0.03196399501562119
1738772974928414700,1.507414794921875,-0.06740998692810535,-0.0011367854775860904,-0.027169746476411818
1738772974938405600,1.517405517578125,-0.06320084480047225,-0.00624062055577524,-0.025404490369558334
1738772974948396800,1.527396728515625,-0.06465455074012279,-0.006370039638702292,-0.029060090267658233
1738772974958388000,1.537387939453125,-0.07945464498698711,-0.011288715991890057,-0.029829905596375463
1738772974968379600,1.547379638671875,-0.056872810822725293,0.007441075536853168,-0.02786415848135948
1738772974978370600,1.55737060546875,-0.06349018313586711,-0.011348800732230302,-0.02571837862432003
1738772974988361700,1.56736181640625,-0.07917115187048912,-0.003232106939156074,-0.03728665134310722
1738772974998352600,1.5773525390625,-0.07305588386058808,-0.002191162501880899,-0.03456336385905742
1738772975008343800,1.58734375,-0.0648152942597866,-0.011412566133844665,-0.02395546060502529
1738772975018334700,1.597334716796875,-0.06344166781902313,-0.009538769335311371,-0.025043255841732025
1738772975028326700,1.60732666015625,-0.07375906369388104,-0.004623515631782356,-0.04031739734113216
1738772975038317600,1.617317626953125,-0.07617547718584537,-0.0036831774581922217,-0.02083060658276081
1738772975048308700,1.627308837890625,-0.06465162813067436,0.004786213646514806,-0.031308161455392836
1738772975058300000,1.6372998046875,-0.06250000305473805,-0.004534442258975468,-0.036630817782878876
1738772975068290800,1.647290771484375,-0.07850655048191547,-0.014735812822019214,-0.037834932875633234
1738772975078281700,1.65728173828125,-0.06490823324024676,0.0062021631253534,-0.031072599133849143
1738772975088273000,1.66727294921875,-0.07007949839830398,-0.007289768849103711,-0.031844168028235434
1738772975098264600,1.6772646484375,-0.06844108354151249,0.005761442753684241,-0.035872692891955375
1738772975108255700,1.687255859375,-0.061246788123250004,0.0008840025931829586,-0.034094577303528786
1738772975118247000,1.697246826171875,-0.06662438950836658,-0.005578170025092549,-0.03455751864016056
1738772975128237800,1.70723779296875,-0.0657259793639183,0.000040690486703533675,-0.039945056897401805
1738772975138228700,1.717228759765625,-0.06615443390905856,0.0014005806630593724,-0.0347387204259634
1738772975148218600,1.727218505859375,-0.08022095318436623,-0.008336825650045648,-0.02531096686720848
1738772975158210800,1.7372109375,-0.07009528048932552,-0.03425158536299132,-0.021344401323795316
1738772975168201700,1.74720166015625,-0.06887304521799087,-0.013031346991693135,-0.028265725019574164
1738772975178192600,1.757192626953125,-0.08132511503398418,-0.01471831141465809,-0.028964813199639318
1738772975188183800,1.767183837890625,-0.07864742025732993,-0.0017543374206172302,-0.031933015355467796
1738772975198174700,1.7771748046875,-0.06593290011286736,-0.004133656605472788,-0.023396657678484915
1738772975208165600,1.78716552734375,-0.053930912151932714,-0.006951406023500021,-0.029129648372530934
1738772975218157800,1.79715771484375,-0.06779869398474693,0.012896285902557428,-0.03878068929314613
1738772975228148700,1.807148681640625,-0.07974573688805103,-0.002822829735232517,-0.028043022179603576
1738772975238139600,1.8171396484375,-0.07373743638396263,-0.012986304556857793,-0.031070845568180083
1738772975248130800,1.827130859375,-0.07502572262883186,0.014731556772009935,-0.029663901379704472
1738772975258121700,1.837121826171875,-0.07152911268472671,0.004513232790876645,-0.02765197703540325
1738772975268112600,1.847112548828125,-0.06327624812424182,-0.006557015861454419,-0.023347557839751242
1738772975278103600,1.857103515625,-0.06247253052592277,-0.00503838004298741,-0.023131869262456892
1738772975288095700,1.867095703125,-0.08049977012574672,-0.006300641364033799,-0.01936228759586811
1738772975298086700,1.877086669921875,-0.06644377224445343,-0.0034905980451381763,-0.035956279522180556
1738772975308077800,1.887077880859375,-0.06736497874259949,-0.0020820395716000346,-0.03397533483803272
1738772975318068700,1.89706884765625,-0.07082943998277187,0.005870969826052896,-0.017630933758616445
1738772975328059600,1.9070595703125,-0.07322071903347968,0.003601399192563258,-0.034244799429178234
1738772975338050600,1.917050537109375,-0.06501052457094192,0.0023896419327589682,-0.0343640418946743
1738772975348042800,1.927042724609375,-0.07935586078763007,-0.008604367712163366,-0.03080255002081394
1738772975358033700,1.93703369140625,-0.07676058359742165,-0.013113243988330942,-0.024895956325531005
1738772975368024600,1.947024658203125,-0.06519114183485508,-0.0181089082675986,-0.021226327902078627
1738772975378015700,1.957015625,-0.0662052873134613,-0.0025436885668663305,-0.032948914399743075
1738772975388006700,1.967006591796875,-0.06177227330207825,-0.000030262707523070275,-0.03294073109328747
1738772975397997600,1.97699755859375,-0.06699030021131039,-0.01650099586363649,-0.0272837282449007
1738772975407988700,1.98698876953125,-0.062333414316177366,-0.011737028298259247,-0.029555764830112456
1738772975417980700,1.996980712890625,-0.060521396458148954,-0.007638474972208496,-0.03257365134656429
1738772975427971600,2.0069716796875,-0.0713987643033266,0.0009627783342613838,-0.02590834823846817
1738772975437962800,2.016962646484375,-0.07078560084104538,-0.012140921507589518,-0.030420272704958912
1738772975447953700,2.02695361328125,-0.06539397093057632,-0.00376563842712203,-0.04479249692857265
1738772975457944600,2.036944580078125,-0.06748305216431617,-0.0014611563104554078,-0.03701952483952045
1738772975467935700,2.046935791015625,-0.06266425370573997,-0.002811251178581733,-0.030929975792765615
1738772975477927700,2.056927734375,-0.07414601718485354,-0.017073749683715868,-0.019169979894161224
1738772975487918600,2.066918701171875,-0.08104629809260368,-0.008523342931782826,-0.023932664251327514
1738772975497909800,2.07690966796875,-0.061763505473732945,-0.004182388834736776,-0.034226094728708266
1738772975507900700,2.086900634765625,-0.07307108142971992,-0.008853620632342062,-0.030583354312181472
1738772975517891600,2.0968916015625,-0.06487082383930683,-0.015136493444244841,-0.04655015425086021
1738772975527882500,2.106882568359375,-0.07238368368744849,-0.015885827673936728,-0.03378302713632583
1738772975537873700,2.116873779296875,-0.06069558398127556,-0.01348700007101288,-0.038895255583524704
1738772975547865600,2.126865478515625,-0.06653963383436202,0.0019591324278502723,-0.03439326798915863
1738772975557856800,2.136856689453125,-0.07748013004362583,-0.010026968410785776,-0.041999066817760465
1738772975567847700,2.14684765625,-0.0766840112298727,-0.011691940197651273,-0.0368342314004898
1738772975577838600,2.156838623046875,-0.06648644234240055,-0.006750243728479836,-0.021156769797205925
1738772975587829500,2.16682958984375,-0.06806348240077495,-0.0029269339971011504,-0.029791911673545834
1738772975597820700,2.176820556640625,-0.07385141815245151,-0.0016259709337493405,-0.038842064091563225
1738772975607812600,2.1868125,-0.0678349343419075,-0.011705818025954067,-0.02033376297652721
1738772975617803800,2.1968037109375,-0.06216331844627857,-0.0060106500080903055,-0.02958966709971428
1738772975627794700,2.206794677734375,-0.06993278340399264,-0.008642596813722047,-0.03424596847295761
1738772975637785600,2.21678564453125,-0.06755728644430636,-0.01771584241295932,-0.03526479012668132
1738772975647776500,2.226776611328125,-0.06541326015293598,-0.0052410447419271805,-0.03130056267082691
1738772975657767700,2.236767578125,-0.07554594711065292,-0.009648912895610555,-0.043185061731934545
1738772975667758600,2.246758544921875,-0.06699205377697945,0.011265912788326386,-0.02586567814052105
1738772975677750500,2.25675048828125,-0.07367606158554553,-0.002352586441556923,-0.035517888104915615
1738772975687741700,2.26674169921875,-0.07365443427562714,-0.0062946477313758804,-0.025225042149424552
1738772975697732600,2.276732666015625,-0.07083353163599967,-0.007295490770414471,-0.02204875020086765
1738772975707723500,2.2867236328125,-0.08326397414207458,-0.008210520972812082,-0.028916297882795334
1738772975717714700,2.296714599609375,-0.08208323992490768,-0.004748347587848548,-0.026348493221402168
1738772975727705600,2.30670556640625,-0.062162149402499194,-0.0007770008380408399,-0.024729952108860014
1738772975737697500,2.316697509765625,-0.07216214989125729,-0.0017411400123266503,-0.023123101434111594
1738772975747688700,2.326688720703125,-0.06299158596396445,-0.004638505421648733,-0.021093056911230087
1738772975757679600,2.3366796875,-0.057573652568459505,-0.0002485131346620619,-0.022187866410613058
1738772975767670500,2.34667041015625,-0.07160510053038596,-0.005248248517559841,-0.021642507487535476
1738772975777661700,2.35666162109375,-0.07230652679800986,0.0023010754500282925,-0.028746786534786222
1738772975787652600,2.366652587890625,-0.05894727900922298,-0.005286201341194101,-0.037189620709419245
1738772975797643800,2.376643798828125,-0.05907645834684372,-0.005771279161109123,-0.028841479080915448
1738772975807635700,2.3866357421875,-0.06564239273369311,0.007795129121933132,-0.035003508841991424
1738772975817626600,2.396626708984375,-0.05453472326397896,-0.007489367091411259,-0.02847206124663353
1738772975827617500,2.406617431640625,-0.07080547458529472,-0.0031687981952680275,-0.026586393630504607
1738772975837608400,2.4166083984375,-0.0754161832511425,-0.004670368714502547,-0.03650631462037563
1738772975847599900,2.426599853515625,-0.06878361336886882,0.013874741296563296,-0.03194178318381309
1738772975857590800,2.4365908203125,-0.05960661970078945,0.009122219857096206,-0.03904898484051227
1738772975867581700,2.446581787109375,-0.0615343728929758,-0.010318188176013062,-0.028601240584254263
1738772975877573600,2.45657373046875,-0.07573240959346295,-0.005416615937964525,-0.03087269264757633
1738772975887564500,2.466564453125,-0.06848901433646679,0.0016300032214727252,-0.028570260924100876
1738772975897555700,2.4765556640625,-0.07384031223654747,-0.008090454240120016,-0.038949616119265555
1738772975907547000,2.486546875,-0.0762350984185934,-0.002464068008994218,-0.026229250755906104
1738772975917537800,2.496537841796875,-0.07053834808170795,-0.0002928477500216104,-0.031631986582279205
1738772975927528700,2.50652880859375,-0.07260930913686751,-0.0056050329158431845,-0.033464462706446645
1738772975937520600,2.516520751953125,-0.06125672499537468,-0.009011014567583334,-0.02400689853131771
1738772975947511600,2.526511474609375,-0.07083119354844093,-0.004998481857439037,-0.03418693176209926
1738772975957502700,2.536502685546875,-0.07124561956822872,-0.01101728092265548,-0.027056933751702306
1738772975967494000,2.546493896484375,-0.06493629029095173,-0.009464701735391282,-0.01706745465695858
1738772975977484800,2.55648486328125,-0.06566869621872902,-0.005579635896394029,-0.019935119047760963
1738772975987475700,2.566475830078125,-0.06368365988135337,-0.0067634068874409415,-0.03765139300227165
1738772975997467000,2.576466796875,-0.06826864958405494,0.006820886395452544,-0.052099020549654956
1738772976007458600,2.58645849609375,-0.06496200925409794,-0.005858701716235373,-0.03147182758450508
1738772976017449700,2.59644970703125,-0.06539221736490726,-0.0050063980191247534,-0.024019173491001126
1738772976027441000,2.60644091796875,-0.06146130765676498,-0.007000396264379378,-0.03874503345787525
1738772976037431800,2.616431884765625,-0.06922843452692032,0.0003823709306889213,-0.026795652467012404
1738772976047422700,2.626422607421875,-0.06053074880838394,-0.00541371844469104,-0.03445581183135509
1738772976057413600,2.63641357421875,-0.07573650124669075,-0.005718071686127223,-0.02272153489589691
1738772976067404800,2.64640478515625,-0.07122574582397938,-0.016059142980806063,-0.031133973932266235
1738772976077396700,2.656396728515625,-0.06563070229589939,0.005097588000493124,-0.03361819196343422
1738772976087388000,2.666387939453125,-0.07863222268819808,0.0016297977254958822,-0.027508769172430038
1738772976097378800,2.67637890625,-0.06886135478019714,0.004623766793531831,-0.043886487999558445
1738772976107369700,2.68636962890625,-0.06694879915714264,0.0014438398494734427,-0.04204056787192821
1738772976117360600,2.696360595703125,-0.07858721450269222,0.0016492353616165928,-0.027577158233523368
1738772976127351800,2.706351806640625,-0.059119128444790836,0.0007296522816875949,-0.04241407735943794
1738772976137343700,2.71634375,-0.07361877844035625,-0.003704928065696731,-0.03585281914770603
1738772976147334700,2.726334716796875,-0.07223872225880622,-0.0056509749663993716,-0.02393149520754814
1738772976157326300,2.736326416015625,-0.0725146165907383,-0.0004913728466723114,-0.03055237465202808
1738772976167317500,2.7463173828125,-0.06917407399117946,-0.013237708334927446,-0.026585224586725232
1738772976177308700,2.75630859375,-0.06994856549501419,-0.0028774208831251597,-0.02415185995995998
1738772976187299600,2.766299560546875,-0.07070961299538613,-0.0025865344780380837,-0.027424013498425482
1738772976197290800,2.776290771484375,-0.06064297701120376,-0.0037494065282400696,-0.029431261667609215
1738772976207282400,2.786282470703125,-0.05870002624988556,-0.004321537010523025,-0.031523265510797496
1738772976217273600,2.796273681640625,-0.06318272462189198,-0.0028244919693563133,-0.02405132219493389
1738772976227264800,2.8062646484375,-0.07572597985267639,-0.006471593467169441,-0.02842939114868641
1738772976237255700,2.816255615234375,-0.07584171518683433,-0.0041720706534106285,-0.0207002582013607
1738772976247246600,2.82624658203125,-0.05933598606586456,-0.019462617581628726,-0.021817279532551765
1738772976257237800,2.83623779296875,-0.07140460952222347,0.009309534006565808,-0.026236265018582342
1738772976267228700,2.846228759765625,-0.07229483636021614,0.0030314127183053642,-0.027743746972084045
1738772976277220600,2.856220703125,-0.0648112026065588,-0.00007646733627188951,-0.034330724146962165
1738772976287211800,2.866211669921875,-0.07078150918781757,0.003331258747982792,-0.02432721652686596
1738772976297202700,2.87620263671875,-0.06850830355882644,-0.008383281440543941,-0.014644026902318
1738772976307193600,2.886193603515625,-0.06455225940942765,-0.01218645484948065,-0.02596621590554714
1738772976317184800,2.896184814453125,-0.08306874383091926,-0.006914261484041344,-0.026772856113314626
1738772976327175700,2.90617578125,-0.06631167029738426,0.001280906656011939,-0.03545066808760166
1738772976337166600,2.91616650390625,-0.06570318301022052,0.0034816270041046664,-0.02902969512939453
1738772976347158800,2.92615869140625,-0.07958966954350472,0.0065111628591548645,-0.02742985871732235
1738772976357149700,2.936149658203125,-0.07751637040078639,-0.006265428486757446,-0.0405640655785799
1738772976367140600,2.946140625,-0.0708674339056015,-0.004813665625732392,-0.035276480564475056
1738772976377131500,2.956131591796875,-0.05896423014402389,-0.006886823204555548,-0.02432721652686596
1738772976387122700,2.966122802734375,-0.07030278576016426,0.002074075460853055,-0.039193946269154546
1738772976397113600,2.976113525390625,-0.0773205555677414,-0.008393636154488194,-0.03472644546627998
1738772976407104500,2.9861044921875,-0.0779296273767948,-0.007834098009008448,-0.03620762393474579
1738772976417096700,2.9960966796875,-0.057877019429206845,-0.0026994705003337,-0.026782208463549614
1738772976427087600,3.006087646484375,-0.06717734721601008,-0.006407058597286231,-0.029740473747253415
1738772976437078500,3.01607861328125,-0.07004267351925372,0.00016287611124571411,-0.03838613701760769
1738772976447069700,3.026069580078125,-0.06626490854620933,0.0018260189839173107,-0.0379933383077383
1738772976457060600,3.036060546875,-0.07623159128725528,0.005091290690447204,-0.030001170510053632
1738772976467051500,3.046051513671875,-0.06948737772405147,0.002293698144459631,-0.02403203297257423
1738772976477042700,3.056042724609375,-0.07741992428898811,-0.003932948684890289,-0.03704875093400478
1738772976487034600,3.06603466796875,-0.08932663518190384,0.001228674145275727,-0.03146072166860103
1738772976497025500,3.076025634765625,-0.07044891623258591,0.004217339133820496,-0.027156302472949027
1738772976507016700,3.0860166015625,-0.06219897428154945,-0.009781206638924777,-0.028532851523160933
1738772976517007600,3.096007568359375,-0.07534837871193885,0.001559328588459175,-0.03828852186203003
1738772976526998500,3.10599853515625,-0.06791969001591205,-0.00498751750543015,-0.03042611792385578
1738772976536989700,3.11598974609375,-0.05218611431121826,-0.015585693949891719,-0.020433716219663618
1738772976546980600,3.125980712890625,-0.05978080722391605,0.006529191706189885,-0.03784837687909603
1738772976556972500,3.13597265625,-0.06679506990015506,-0.007327459094545338,-0.0365296954959631
1738772976566963700,3.145963623046875,-0.06794131732583046,-0.0034274240152793933,-0.03286649681329727
1738772976576954600,3.15595458984375,-0.05807458782792091,-0.004060940712422598,-0.03629471769630909
1738772976586945500,3.165945556640625,-0.07399813314676285,-0.0030347417531302197,-0.025575170761346817
1738772976596936400,3.1759365234375,-0.07727087120711804,-0.010649687435990199,-0.02560556589961052
1738772976606927600,3.185927734375,-0.07633037548661231,0.0038163525509182362,-0.033301965621113774
1738772976616918500,3.19591845703125,-0.0631330402612686,0.0006358045523520558,-0.03229834153652191
1738772976626910700,3.20591064453125,-0.05370528670251369,0.006537877336144447,-0.0240682733297348
1738772976636901600,3.215901611328125,-0.06672317370772361,-0.0035741253098589367,-0.04382160606980324
1738772976646892500,3.225892578125,-0.08156359996497631,-0.005820239719236269,-0.04198562281429767
1738772976656883500,3.235883544921875,-0.07779810995161533,-0.015694186692510263,-0.02705985636115074
1738772976666874600,3.24587451171875,-0.06531915212869643,-0.0008737118113203905,-0.02026595843732357
1738772976676865500,3.255865478515625,-0.08623276081979274,0.008108245625137352,-0.0373790058016777
1738772976686856400,3.2658564453125,-0.08339899869859219,0.0021869566842215135,-0.03437164067924022
1738772976696848600,3.2758486328125,-0.06350713427066802,-0.0017134003387414849,-0.025827099695801735
1738772976706839600,3.285839599609375,-0.06277881999611855,-0.01435437118980335,-0.020109306570887563
1738772976716830500,3.29583056640625,-0.06521276914477347,-0.0006135333550395444,-0.024089900639653203
1738772976726821600,3.305821533203125,-0.06588964549303054,-0.00720228692847304,-0.03609130407869816
1738772976736812500,3.3158125,-0.07444646143615245,-0.008239310959167778,-0.03290741334557533
1738772976746803500,3.325803466796875,-0.07160159339904784,0.00822758398875594,-0.029169395861029623
1738772976756794400,3.33579443359375,-0.07996142546534538,-0.00831976263410179,-0.037279637080430986
1738772976766786600,3.34578662109375,-0.06666589056253433,-0.005020072634739335,-0.03978898955285549
1738772976776777500,3.355777587890625,-0.06887538330554961,-0.009993257937429006,-0.043433483535051345
1738772976786768600,3.3657685546875,-0.06240355694293975,-0.0069442867295467295,-0.027030045744776725
1738772976796759600,3.375759521484375,-0.06599719752073288,0.0011507295212591997,-0.029870237606763838
1738772976806750500,3.38575048828125,-0.059981882753968235,-0.007041986366803758,-0.034703649112582204
1738772976816741400,3.395741455078125,-0.06627776802778243,-0.0060122026443597855,-0.028850831431150435
1738772976826732500,3.405732666015625,-0.06759294227957725,-0.0006223925149301066,-0.033089784175157545
1738772976836724500,3.415724365234375,-0.07287409755289555,-0.0028996464146650394,-0.031525603598356246
1738772976846715400,3.42571533203125,-0.07337152568101883,-0.007496084526565391,-0.03010579992830753
1738772976856706600,3.43570654296875,-0.06645546268224715,-0.006559637076803483,-0.03269990807473659
1738772976866697500,3.445697509765625,-0.059708326509594914,-0.004581918679492082,-0.02912906385064125
1738772976876688400,3.4556884765625,-0.07096095740795134,0.0028789689528173766,-0.03267418911159038
1738772976886679600,3.465679443359375,-0.07562485756576061,-0.0005894994589034468,-0.03996843777298927
1738772976896670500,3.47567041015625,-0.07381167066395282,-0.0003929220074554905,-0.034758009648323054
1738772976906662400,3.485662353515625,-0.07308569447696209,-0.0022283321575145235,-0.026643092253804207
1738772976916653600,3.495653564453125,-0.07307049690783024,-0.014832987302890979,-0.02561900990307331
1738772976926644500,3.50564453125,-0.06510346355140209,-0.007446356783458031,-0.035551205852627756
1738772976936635400,3.515635498046875,-0.062249243164062495,-0.000955885085882619,-0.048286184263229365
1738772976946626600,3.52562646484375,-0.07867898443937302,0.0032603991685900835,-0.02843056019246578
1738772976956617500,3.535617431640625,-0.07614040587246418,0.00482200191252632,-0.029918752923607825
1738772976966608600,3.545608642578125,-0.05113397490978241,-0.016084245456021745,-0.03428396239578724
1738772976976600600,3.5556005859375,-0.07759294276833534,-0.004910362899280153,-0.027442133677005768
1738772976986591500,3.565591552734375,-0.06248129835426807,-0.01191691034323303,-0.029833412727713584
1738772976996582400,3.57558251953125,-0.07102350125014782,-0.009280492858460639,-0.03669862232208252
1738772977006573600,3.585573486328125,-0.06473229215145111,0.0024429475891520266,-0.03072247052192688
1738772977016564500,3.595564453125,-0.06901449951529502,-0.006849258539988659,-0.025123335340619085
1738772977026555600,3.6055556640625,-0.07576163568794726,0.0051197564498172135,-0.03482873679697513
1738772977036546600,3.615546630859375,-0.08205401383042335,-0.0032567596065113317,-0.028982348856329915
1738772977046538500,3.62553857421875,-0.04621931486129761,-0.009797694266133476,-0.03013853315412998
1738772977056529400,3.635529296875,-0.060224459338188166,-0.010438654484215657,-0.025291677644848822
1738772977066520600,3.6455205078125,-0.09444470884799956,-0.012629052084404974,-0.03524024020731449
1738772977076511700,3.65551171875,-0.06745031893849372,0.006989219566527754,-0.031439678880572315
1738772977086502700,3.665502685546875,-0.06277589738667011,-0.0012610374783398582,-0.03942483241558075
1738772977096493600,3.67549365234375,-0.06039923138320446,-0.0020592843170976266,-0.035956279522180556
1738772977106484700,3.685484619140625,-0.051100072640180585,-0.012118938004644588,-0.02401858896911144
1738772977116476400,3.695476318359375,-0.06159165603816509,0.000955419295001775,-0.030577509093284605
1738772977126467600,3.705467529296875,-0.08167816625535487,0.0037657092090696096,-0.02887713491618633
1738772977136458800,3.715458740234375,-0.06531213786602019,0.0018555647388100623,-0.03464753501117229
1738772977146449700,3.72544970703125,-0.07126607783436775,-0.005203480077360291,-0.02751344534754753
1738772977156440600,3.735440673828125,-0.06823708540201187,0.0009419547419412993,-0.024725860455632208
1738772977166431500,3.745431396484375,-0.07767945200800895,0.0014117961768177337,-0.026648352950811385
1738772977176422400,3.75542236328125,-0.07441197464466094,-0.003036741913971491,-0.02870587000250816
1738772977186414600,3.76541455078125,-0.07499591201245784,-0.0010865211616503075,-0.03037351095378399
1738772977196405500,3.775405517578125,-0.06913140389323234,0.003429650221695192,-0.0364028542459011
1738772977206396400,3.785396484375,-0.06893266645073891,0.010484308840404265,-0.04006897553801536
1738772977216387600,3.7953876953125,-0.0809977827757597,0.01138529910100624,-0.03057692457139492
1738772977226378500,3.80537841796875,-0.07815992900133133,-0.010359970074682496,-0.03386076854765415
1738772977236369400,3.815369384765625,-0.05165244582593441,-0.0059608286501490505,-0.023418869510293004
1738772977246360600,3.825360595703125,-0.0720002373278141,-0.0006769060310092755,-0.03599427344501018
1738772977256351500,3.8353515625,-0.08413724984526634,0.003237646197376307,-0.04270166212916374
1738772977266343400,3.845343505859375,-0.06499591152369975,-0.008056688967836088,-0.04088905974924564
1738772977276334600,3.85533447265625,-0.06757891375422477,-0.005439081214810721,-0.038135961648821826
1738772977286325500,3.865325439453125,-0.0724187550008297,-0.005860181287268642,-0.03072539313137531
1738772977296316400,3.87531640625,-0.06311082842946052,-0.003032300917583052,-0.021343232280015945
1738772977306307600,3.8853076171875,-0.062469023394584655,-0.0036914018638432022,-0.032633272579312325
1738772977316298500,3.895298583984375,-0.06514671817123889,-0.005540963836840819,-0.032657237976789474
1738772977326289400,3.905289306640625,-0.06810790606439113,0.006734299523965455,-0.03030979806780815
1738772977336281600,3.915281494140625,-0.06451777261793613,0.001247132250573486,-0.030757541835308072
1738772977346272500,3.9252724609375,-0.07097440141141415,-0.008736083783453795,-0.027131168031692503
1738772977356263400,3.935263427734375,-0.06722001731395721,-0.005912429781025275,-0.02430968087017536
1738772977366878500,3.94587841796875,-0.06633505117297173,-0.0024553755291737613,-0.03955225818753242
1738772977376869400,3.955869384765625,-0.06929974619746208,-0.006002103658742271,-0.034657471883296966
1738772977386860300,3.9658603515625,-0.064797758603096,-0.010802389213093556,-0.02779401585459709
1738772977396851500,3.9758515625,-0.07060732166469097,-0.0031657682712539098,-0.03920563670694828
1738772977406843400,3.985843505859375,-0.06250526375174523,-0.008840962080168538,-0.025623101556301115
1738772977416834300,3.995834228515625,-0.06682137338519097,-0.002526447454409208,-0.031793899145722386
1738772977426825500,4.005825439453125,-0.06909516353607177,0.0024593941171653566,-0.029054245048761366
1738772977436816400,4.01581640625,-0.05624678787887096,-0.009370682759408373,-0.032165655067563054
1738772977446807300,4.025807373046875,-0.06748480572998523,-0.008084563355450517,-0.04216799364387989
1738772977456798500,4.035798583984375,-0.06946224328279495,-0.004899462479352951,-0.03568564588725567
1738772977466789400,4.045789306640625,-0.07383154440820217,0.007098616491444409,-0.03623918811678886
1738772977476781300,4.05578125,-0.05957739360630512,-0.006397400286374613,-0.014749825364351273
1738772977486772500,4.0657724609375,-0.06101648649871349,0.009730983422184362,-0.04940320559442043
1738772977496763400,4.075763427734375,-0.08406184652149677,-0.00892633195881499,-0.04012567416131496
1738772977506754300,4.08575439453125,-0.06830722802877426,-0.0007172882737475447,-0.021335048973560332
1738772977516745200,4.0957451171875,-0.05686345847249031,-0.0003545833080424927,-0.02787818700671196
1738772977526736400,4.105736328125,-0.06449614530801773,0.00004823903891956433,-0.04104454257190227
1738772977536727600,4.1157275390625,-0.08052432004511356,-0.009245188649639021,-0.043413609790802
1738772977546719500,4.125719482421875,-0.06705225953161716,-0.008245879980560858,-0.029503157860040662
1738772977556710400,4.13571044921875,-0.055959787631034846,-0.005112084600015078,-0.021752397602796552
1738772977566701300,4.145701416015625,-0.07555822207033634,0.0019022899573668836,-0.04135959987044334
1738772977576692200,4.155692138671875,-0.06823474731445311,-0.0034436033985228275,-0.03207037799954414
1738772977586683400,4.165683349609375,-0.068358081433177,-0.0012318844490917399,-0.029865561431646346
1738772977596674600,4.175674560546875,-0.06882277633547783,0.002229058243299369,-0.043458617976307866
1738772977606665500,4.18566552734375,-0.07708265515863895,-0.01094638937722193,-0.03937280996739864
1738772977616656600,4.19565673828125,-0.08489479021430014,-0.010512891047494486,-0.029748072531819342
1738772977626648300,4.2056484375,-0.0720043289810419,-0.010338783439469989,-0.024394436544179915
1738772977636639200,4.21563916015625,-0.07007189961373805,-0.00045761442425427956,-0.02467442252933979
1738772977646630400,4.22563037109375,-0.07174070960879325,-0.004324877461791038,-0.028231238228082656
1738772977656621600,4.23562158203125,-0.07606500254869461,-0.009370566311688162,-0.01972469116747379
1738772977666612500,4.245612548828125,-0.0775549488455057,-0.003459264475246891,-0.019134908580780027
1738772977676603600,4.255603759765625,-0.0834241331398487,0.0017651921747718006,-0.024622400081157684
1738772977686594600,4.265594482421875,-0.06153612645864486,-0.009502433080028277,-0.032464930275082585
1738772977696586500,4.27558642578125,-0.06691255879998206,-0.0074236449114396235,-0.033228900384902955
1738772977706577700,4.28557763671875,-0.0751759447544813,-0.0000053017962025478476,-0.025696166792511937
1738772977717193500,4.296193359375,-0.06557867984771729,-0.0028713998510036614,-0.03276011382937431
1738772977727184600,4.3061845703125,-0.056413376617431635,-0.0007389863656135276,-0.026681086176633832
1738772977737175600,4.316175537109375,-0.06150339323282242,-0.0010933139453292824,-0.037003158226609226
1738772977747166500,4.32616650390625,-0.059848027241230006,-0.0002536733669694513,-0.03641746729314327
1738772977757157400,4.336157470703125,-0.06508300528526306,-0.016336035109870136,-0.03642155894637108
1738772977767148500,4.3461484375,-0.08228548449873924,-0.005502572621789295,-0.041966333591938014
1738772977777140500,4.356140380859375,-0.0767845489948988,-0.0013051254985271953,-0.037273791861534115
1738772977787131600,4.366131591796875,-0.052119478815793985,-0.00044320002312306313,-0.028556816920638082
1738772977797122600,4.37612255859375,-0.057173255074024196,0.0010344576142728328,-0.026661796954274175
1738772977807113500,4.386113525390625,-0.06661386811435223,-0.019277340125618502,-0.03083177611529827
1738772977817104400,4.3961044921875,-0.06808452518880367,-0.009505736998678184,-0.039998248389363285
1738772977827095600,4.406095458984375,-0.06091828682124614,-0.01538436954137869,-0.03593348316848278
1738772977837086500,4.41608642578125,-0.06421615932285785,-0.005398438677168451,-0.03173486243486404
1738772977847078700,4.42607861328125,-0.07824643824100494,0.0033317313887295313,-0.04136719865500927
1738772977857069600,4.436069580078125,-0.07250292615294456,-0.0016799318939796648,-0.03891045315265655
1738772977867060500,4.446060546875,-0.06304419293403625,-0.0009442608634592034,-0.03027881840765476
1738772977877051400,4.456051513671875,-0.07276654552519321,-0.008710141058021691,-0.0391132822483778
1738772977887042600,4.46604248046875,-0.06098842944800854,-0.0039802241760073225,-0.027974048596620556
1738772977897033500,4.476033447265625,-0.0639747517824173,-0.0022253456159844064,-0.040104631373286244
1738772977907024400,4.4860244140625,-0.06218436123430728,-0.0034555860972614026,-0.047128830921649933
1738772977917015600,4.496015625,-0.06924246305227279,0.0030183043582714163,-0.020904256340861318
1738772977927007500,4.506007568359375,-0.05904430964291096,0.0032573783777304923,-0.029916999357938765
1738772977936998400,4.515998291015625,-0.0714426034450531,-0.01107931330819847,-0.0333925665140152
1738772977946989600,4.525989501953125,-0.060952189090847965,-0.010316891268070321,-0.03925239845812321
1738772977956980500,4.53598046875,-0.06933890916407108,0.0023521822994691318,-0.030412089398503303
1738772977966971400,4.545971435546875,-0.07575403690338134,0.0008710380803328007,-0.04286240564882755
1738772977976962300,4.55596240234375,-0.06832593272924423,-0.0026293255902826783,-0.03993745811283588
1738772977986953500,4.565953369140625,-0.06491933915615082,-0.00012941908292705192,-0.03315115897357464
1738772977996945400,4.5759453125,-0.06058510934412479,0.004288141630997415,-0.04765840775370597
1738772978006936600,4.5859365234375,-0.08167641268968581,-0.0024825512304669246,-0.034950317350029944
1738772978016927500,4.595927490234375,-0.07421557528972625,-0.009646109017170966,-0.035815409746766086
1738772978026918400,4.60591845703125,-0.05997194588184356,0.0078092786615830845,-0.025684476354718207
1738772978036909300,4.615909423828125,-0.07030453932583332,-0.01114439616735326,-0.02223053650856018
1738772978046900500,4.625900390625,-0.06897884368002415,-0.004432621285738423,-0.03985679409205913
1738772978056892400,4.635892333984375,-0.0637257454574108,-0.0007632326075923629,-0.032547932383418084
1738772978066883300,4.64588330078125,-0.06549275512993336,-0.015416198584903031,-0.03423720064461231
1738772978076874500,4.65587451171875,-0.07746200986504555,-0.010776362005982082,-0.031845921593904494
1738772978086865400,4.665865478515625,-0.06552256574630737,-0.005653984340815804,-0.04152385052144527
1738772978096856300,4.675856201171875,-0.060711366072297095,-0.009236055495112668,-0.03437573233246803
1738772978106847500,4.685847412109375,-0.07699146974384784,-0.007242582406243309,-0.031279519882798194
1738772978116838400,4.69583837890625,-0.07364040575027465,0.0056139103420428,-0.03481061661839485
1738772978126829300,4.705829345703125,-0.06613748277425766,-0.0008963186520617454,-0.03439560607671738
1738772978136821500,4.715821533203125,-0.057151627764105796,-0.00473710924120387,-0.03680091365277767
1738772978146812400,4.7258125,-0.07031096906661986,-0.017374495329114142,-0.03426934934854507
1738772978156802600,4.735802490234375,-0.07514028891921043,0.0004095694648684002,-0.02448094578385353
1738772978166793500,4.74579345703125,-0.06841653362214564,-0.0021742364832549356,-0.028506548038125037
1738772978176784600,4.75578466796875,-0.0868751503765583,-0.002177102010487579,-0.019298574709892272
1738772978186775800,4.76577587890625,-0.07137129177451133,-0.006147387031081598,-0.04330138158798218
1738772978196766700,4.7757666015625,-0.06551964313685893,-0.002092490183666814,-0.03344809609353542
1738772978206758700,4.785758544921875,-0.07161328383684158,0.007576693748414982,-0.02677928585410118
1738772978216749600,4.79574951171875,-0.06261749195456505,0.00119253653610358,-0.03114507984817028
1738772978226740500,4.805740478515625,-0.06618950522243976,-0.004086282932944596,-0.04553951590359211
1738772978236731600,4.815731689453125,-0.05976210252344608,-0.007572750508948229,-0.040590369063615794
1738772978246722800,4.825722900390625,-0.05582768568396568,-0.005657786016387399,-0.023898177459836006
1738772978256713700,4.835713623046875,-0.07063070254027844,-0.007842256199289114,-0.04576163422167301
1738772978266705000,4.845704833984375,-0.07659282581508159,-0.0008068868029396981,-0.04998655844032764
1738772978276696600,4.855696533203125,-0.07161912905573845,-0.009564349017851054,-0.03014028671979904
1738772978286687500,4.8656875,-0.0765489866733551,0.001042574705358129,-0.01922843208312988
1738772978296678700,4.8756787109375,-0.06065525197088718,-0.0009259671549429185,-0.03424129229784011
1738772978306669800,4.885669921875,-0.07233224576115607,-0.007048496022692415,-0.03528174126148224
1738772978316660700,4.89566064453125,-0.06452420235872268,0.0019292829955695197,-0.01631809759438038
1738772978326652000,4.90565185546875,-0.06536649840176105,-0.005637766141665634,-0.03151625124812126
1738772978336642800,4.915642822265625,-0.07304010176956653,0.00031562812069896605,-0.032649639192223544
1738772978346634800,4.925634765625,-0.06453530827462672,0.0011047372383531182,-0.02991933744549751
1738772978356626000,4.9356259765625,-0.06359364351034164,0.000019140808598604052,-0.022953590086102486
1738772978366616800,4.945616943359375,-0.07327098791599274,0.001224619024666026,-0.03694470603764057
1738772978376607700,4.955607666015625,-0.07226794835329055,-0.0032577026047161776,-0.03433306223452091
1738772978386598700,4.9655986328125,-0.05834405241906643,-0.010450598367047495,-0.022373744371533392
1738772978396589800,4.97558984375,-0.08718202436864375,-0.0031604915912263093,-0.01884557024538517
1738772978406580700,4.985580810546875,-0.08148878116309642,0.0036276501619606277,-0.03965688760578632
1738772978416573000,4.995572998046875,-0.05588672239482403,-0.004112086377770174,-0.032495325413346286
1738772978426563800,5.005563720703125,-0.08473287765085696,-0.0027540684980922377,-0.03628828795552254
1738772978436554800,5.0155546875,-0.06805763718187809,0.003922351942351088,-0.04147708877027034
1738772978446545700,5.025545654296875,-0.06131167005300522,0.004107946775481105,-0.03281681245267391
1738772978456536800,5.035536865234375,-0.07627192329764365,-0.00053924427612219,-0.03042787148952484
1738772978466527700,5.04552783203125,-0.06865151142179965,-0.012175538446533027,-0.04642331300079822
1738772978476518700,5.0555185546875,-0.07521803033053874,-0.011580458630213978,-0.04644961648583412
1738772978486510800,5.0655107421875,-0.07296879009902477,-0.010385198130772913,-0.027751930278539658
1738772978496501800,5.075501708984375,-0.061383566245436665,-0.004660541440232191,-0.031139234629273413
1738772978506492700,5.08549267578125,-0.07079553771317004,0.00627680611400865,-0.024579145461320874
1738772978516483800,5.09548388671875,-0.06389934845864773,0.003434913201991003,-0.035971477091312404
1738772978526474800,5.105474853515625,-0.0614560469597578,0.0068073761766194365,-0.03739361884891987
1738772978536465700,5.115465576171875,-0.0693336484670639,-0.00915457405700581,-0.03358253612816334
1738772978546456800,5.125456787109375,-0.06870002673864364,-0.004791579374799039,-0.04800210662484169
1738772978556448800,5.13544873046875,-0.0601490560144186,-0.009319089569489005,-0.026937106764316557
1738772978566439700,5.145439697265625,-0.06323007089495658,-0.014405713217973242,-0.03196867119073868
1738772978576430800,5.155430908203125,-0.07079612223505974,0.001475671176286414,-0.03266659032702446
1738772978586421800,5.165421875,-0.07680266917347908,-0.010501360439904964,-0.03068973729610443
1738772978596412700,5.17541259765625,-0.07548398779034614,-0.00818081538771512,-0.043515316599607466
1738772978606403600,5.185403564453125,-0.058738020172715184,-0.016548116091126577,-0.04110124119520187
1738772978616394800,5.195394775390625,-0.07456745746731758,-0.00475434578708373,-0.04115034103393554
1738772978626386700,5.20538671875,-0.07653262006044387,-0.007053889150440227,-0.03947451677620411
1738772978636377900,5.2153779296875,-0.07381108614206314,0.0005881614517653361,-0.03457973047196865
1738772978646368800,5.22536865234375,-0.07589782928824425,-0.005379839007975533,-0.028457448199391364
1738772978656359700,5.235359619140625,-0.0784264709830284,-0.017785051174671388,-0.03536474336981773
1738772978666350600,5.2453505859375,-0.06807926449179649,-0.002920725735311862,-0.03270341520607471
1738772978676341800,5.255341796875,-0.06788578774631022,-0.0017663909013033844,-0.028731004443764686
1738772978686332700,5.265332763671875,-0.0730851099550724,-0.00322183670689119,-0.04075929588973522
1738772978696323600,5.275323486328125,-0.07415361596941948,-0.007824366632860619,-0.03863222073316574
1738772978706315800,5.285315673828125,-0.07280921562314033,0.002246511701599229,-0.03069850512444973
1738772978716306700,5.295306640625,-0.07818915509581566,-0.00026182699067285283,-0.03504851702749729
1738772978726297600,5.305297607421875,-0.07247545362412929,0.0005136782933142967,-0.036437341037392615
1738772978736288800,5.315288818359375,-0.05435235243439674,-0.018520758737809954,-0.023744448202848434
1738772978746279700,5.32527978515625,-0.06078267774283885,-0.007255380239023361,-0.03572188624441623
1738772978756270600,5.3352705078125,-0.06972352456748485,0.007574369360588025,-0.03353402081131935
1738772978766261500,5.345261474609375,-0.0554869094222784,-0.0021601874083047733,-0.03461363274157047
1738772978776253700,5.355253662109375,-0.05646598358750343,-0.002198270379391033,-0.02184884371459484
1738772978786244600,5.36524462890625,-0.06921265243589877,-0.0034252731573884373,-0.03138298025727272
1738772978796235800,5.37523583984375,-0.06502572214007377,-0.0007637440642458386,-0.031079028874635695
1738772978806226700,5.385226806640625,-0.06484452035427093,0.0027329435116727834,-0.0332224706441164
1738772978816217600,5.395217529296875,-0.05270575427114963,0.0013537321469164452,-0.03175532070100307
1738772978826208500,5.40520849609375,-0.07677402760088443,0.002207841925334651,-0.02715221081972122
1738772978836199700,5.41519970703125,-0.07107961535155773,0.00728499449257506,-0.03015723785459995
1738772978846191600,5.425191650390625,-0.06445405973196029,0.002799469409242738,-0.023936171382665634
1738772978856182500,5.4351826171875,-0.07341653386652469,0.0019560888041043655,-0.036380642414093015
1738772978866173700,5.445173583984375,-0.0685188249528408,0.007609890481829642,-0.04439911369681358
1738772978876164600,5.45516455078125,-0.05933773963153362,-0.000612914583820384,-0.03445464278757572
1738772978886155500,5.465155517578125,-0.07427285843491553,-0.01213932777212467,-0.027912673798203468
1738772978896146700,5.475146728515625,-0.06679623894393444,0.002105374781414866,-0.03329144422709942
1738772978906137600,5.4851376953125,-0.0693424162954092,0.003502605860051699,-0.02640577636659145
1738772978916128500,5.49512841796875,-0.06470306605696678,-0.004830621327110566,-0.02790332144796848
1738772978926120700,5.50512060546875,-0.07769406505525112,-0.0009976373017998412,-0.02794482250213623
1738772978936111600,5.515111572265625,-0.07203004794418812,0.0010461823013960382,-0.02027940244078636
1738772978946102500,5.5251025390625,-0.05962357083559036,-0.005676365135982632,-0.043750878921151155
1738772978956093700,5.53509375,-0.06337795493304729,-0.006395628454396501,-0.052260348591208455
1738772978966084600,5.545084716796875,-0.06877192293107509,-0.003715995165694039,-0.024116788646578787
1738772978976075800,5.55507568359375,-0.055414428707957264,-0.007214632670104038,-0.03539981468319893
1738772978986066700,5.565066650390625,-0.06287234349846839,0.0031416384769952853,-0.0427688821464777
1738772978996058600,5.57505859375,-0.07542085942625999,0.006355912931938656,-0.02903495582640171
1738772979006049500,5.585049560546875,-0.05923720186650753,0.00526578645753907,-0.029368133303523062
1738772979016040700,5.595040771484375,-0.06698913116753101,0.004436740338429808,-0.02417640987932682
1738772979026031600,5.605031494140625,-0.05451134238839149,-0.008959848352638073,-0.03840191910862922
1738772979036022800,5.615022705078125,-0.05197919356226921,0.0015307098487508481,-0.03434475267231464
1738772979046013700,5.625013671875,-0.0706926618605852,0.004235438762803096,-0.02520341483950615
1738772979056004900,5.6350048828125,-0.06116495505869388,-0.001720314136717934,-0.03590308803021908
1738772979065996500,5.64499658203125,-0.06879121215343476,0.006931660143414046,-0.037407062852382655
1738772979075987500,5.654987548828125,-0.0627893413901329,-0.0040190903150942175,-0.03324117534458637
1738772979085978600,5.664978515625,-0.07787526684105396,-0.0020506626192247496,-0.03253507290184498
1738772979095969800,5.6749697265625,-0.07381225518584252,-0.004099174380558543,-0.043942602100968356
1738772979105960700,5.684960693359375,-0.07770458644926548,0.006161070779850706,-0.04378945736587048
1738772979115951900,5.694951904296875,-0.056336219727993006,-0.005009021517762448,-0.029679098948836326
1738772979125942800,5.70494287109375,-0.05843523783385753,0.0013869334469083696,-0.04732990645170212
1738772979135933700,5.71493359375,-0.07435527602136134,0.0075970058840815905,-0.04260170888602734
1738772979145926000,5.72492578125,-0.05251695370078086,0.0011523346731672063,-0.03869827170670032
1738772979155917000,5.7349169921875,-0.06376607746779918,-0.0003873074007104151,-0.02878185784816742
1738772979165908000,5.744907958984375,-0.07155483164787292,-0.005314998177415691,-0.04208791414499283
1738772979175899000,5.75489892578125,-0.06783727242946624,-0.007729854466533288,-0.0357668944299221
1738772979185889800,5.764889892578125,-0.08594985222518443,0.00304001843315782,-0.04009820163249969
1738772979195881000,5.774880859375,-0.06617489217519759,0.008715611817582975,-0.03758884916007518
1738772979205871900,5.784871826171875,-0.06423661758899689,-0.004227588816487696,-0.03249006471633911
1738772979215863800,5.79486376953125,-0.06827507932484149,0.0030759870789712294,-0.04640928447544575
1738772979225855000,5.80485498046875,-0.07266366967260837,-0.006657338997349143,-0.03825403507053852
1738772979235846000,5.814845947265625,-0.06385434027314185,0.008549826796620618,-0.025206921970844266
1738772979245836800,5.8248369140625,-0.059978960144519804,0.006119718139444012,-0.03625672377347946
1738772979255828000,5.834827880859375,-0.06671908205449581,0.006727876633044798,-0.027866496568918226
1738772979265819000,5.84481884765625,-0.05775660791993141,-0.008696160481730476,-0.040861002698540684
1738772979275809800,5.854809814453125,-0.06852934634685516,-0.007880836927297059,-0.035026889717578884
1738772979285801000,5.864801025390625,-0.07246785483956336,-0.002171327573538292,-0.02926759553849697
1738772979295793000,5.87479296875,-0.06335398953557014,0.0031803653354756534,-0.03972118501365184
1738772979305783800,5.88478369140625,-0.07340542795062065,0.004419732121413108,-0.03504267180860042
1738772979315775000,5.89477490234375,-0.06683014121353625,0.010423918139387388,-0.033981764578819275
1738772979325766000,5.904765869140625,-0.0636567718744278,-0.0030632280620979144,-0.056175476208329196
1738772979335756800,5.9147568359375,-0.06285130071043968,-0.008380075703305193,-0.041897360008955
1738772979345747700,5.924747802734375,-0.08331365850269794,-0.007907960112951695,-0.032228783431649206
1738772979355739000,5.93473876953125,-0.07195464462041855,-0.00371310680557508,-0.024577391895651817
1738772979365730800,5.944730712890625,-0.06193477038741112,0.004468795427528675,-0.021276012262701986
1738772979375722000,5.954721923828125,-0.06392506742179394,0.00022472126712091265,-0.019710662642121315
1738772979385713000,5.964712890625,-0.06646013885736465,0.01198380385027267,-0.03244213392138481
1738772979395703800,5.974703857421875,-0.05597264711260795,-0.004098895819345489,-0.03814882113039493
1738772979405694700,5.98469482421875,-0.06556698940992355,0.0046137522895936854,-0.033333529803156854
1738772979415686000,5.994685791015625,-0.06364683500230311,0.003845724775874987,-0.02596270877420902
1738772979425676800,6.0046767578125,-0.06360650299191474,-0.0008258883309317752,-0.03844400468468666
1738772979435667700,6.014667724609375,-0.05503858113288879,0.008162852756050415,-0.04059679880440235
1738772979445660000,6.024659912109375,-0.06294482421278953,-0.002493828393018339,-0.023276830691099166
1738772979455650800,6.03465087890625,-0.07819383127093314,-0.0004329640401876531,-0.03452127828299999
1738772979465641700,6.044641845703125,-0.07533084305524826,-0.006351271006150637,-0.0315583368241787
1738772979475633000,6.0546328125,-0.07052256599068642,-0.005922168007038999,-0.03907002762854099
1738772979485623800,6.064623779296875,-0.06947393372058867,-0.013446072122291661,-0.03637830432653427
1738772979495614700,6.07461474609375,-0.07111877831816672,-0.008275720279687085,-0.03144084792435169
1738772979505606000,6.08460595703125,-0.05582417855262756,-0.0002250249445089139,-0.03852349966168404
1738772979515597800,6.094597900390625,-0.07127016948759556,0.01157289866155479,-0.03308569252192974
1738772979525588700,6.104588623046875,-0.0711374830186367,-0.004366956187982577,-0.036651276049017904
1738772979535580000,6.114579833984375,-0.06121522394120693,-0.008777511772385333,-0.0254974293500185
1738772979545570800,6.12457080078125,-0.06880699424445628,-0.0015950848884298465,-0.0307955357581377
1738772979555561700,6.134561767578125,-0.08260697153806686,0.001443810166721232,-0.03284077785015106
1738772979565552600,6.144552734375,-0.06478840625286102,0.002259302684513386,-0.0386947645753622
1738772979575543800,6.154543701171875,-0.06942015770673751,0.009173381505464203,-0.03691021924614906
1738772979585535700,6.16453564453125,-0.056530280995368956,-0.009972541659674606,-0.034548166289925575
1738772979595527000,6.17452685546875,-0.05743336731493473,-0.010094220394140575,-0.02885316951870918
1738772979605517800,6.184517822265625,-0.0834369926214218,-0.003120527190307621,-0.02321779398024082
1738772979615508700,6.1945087890625,-0.06529635577499866,0.003524007124395575,-0.04347147745788097
1738772979625499600,6.204499755859375,-0.07800035452544689,-0.0023269610932446084,-0.03287000394463539
1738772979635490800,6.21449072265625,-0.07691548189818859,-0.0010156912650098092,-0.030533085429668424
1738772979645481700,6.224481689453125,-0.06191840377449989,0.0025695468106190673,-0.0334270533055067
1738772979655472600,6.23447265625,-0.07148410449922084,-0.002207570213987492,-0.03598784370422363
1738772979665464800,6.24446484375,-0.06626081689298152,0.004680707445426378,-0.031626141363382335
1738772979675455700,6.254455810546875,-0.05818330889940262,-0.007980125733441673,-0.03491407699286937
1738772979685446700,6.26444677734375,-0.06535363892018795,0.001410850895324256,-0.0214671509206295
1738772979695437800,6.274437744140625,-0.06717910078167914,-0.0027922359508578665,-0.03563596152663231
1738772979705428700,6.2844287109375,-0.07541676777303219,0.0004972363318782299,-0.04026362132728099
1738772979715419600,6.294419677734375,-0.06177285782396793,-0.009245455794408917,-0.038509471136331554
1738772979725410800,6.304410888671875,-0.05696808789074421,-0.00023671538230264557,-0.023868951365351675
1738772979735402800,6.31440283203125,-0.06832827081680297,0.0023600299624959007,-0.0431914914727211
1738772979745393700,6.3243935546875,-0.0598047726213932,-0.0002341329828603193,-0.036298809349536894
1738772979755384800,6.334384765625,-0.05783318028748035,0.0052936037629377096,-0.024667992788553236
1738772979765375700,6.344375732421875,-0.08477847035825252,0.01199901283584768,-0.0451519778907299
1738772979775366700,6.35436669921875,-0.07281915249526501,0.012279444062290713,-0.04199146803319454
1738772979785357800,6.36435791015625,-0.05574702166318893,0.0002717273301794194,-0.024503742137551306
1738772979795349000,6.374348876953125,-0.07683306431174278,-0.013104145083134061,-0.034249475604295726
1738772979805340000,6.38433984375,-0.07215396658480167,-0.01204997812139336,-0.03775251528918743
1738772979815331800,6.394331787109375,-0.06255670167803765,-0.0049270925550838,-0.03793371707499027
1738772979825322800,6.40432275390625,-0.057197220471501345,-0.002156942855159286,-0.024723522368073462
1738772979835314000,6.41431396484375,-0.056010056513547894,-0.0009030840362771414,-0.04475917918086052
1738772979845304800,6.424304931640625,-0.0627063392817974,-0.009681636988278479,-0.039727614754438395
1738772979855296000,6.4342958984375,-0.06928337958455086,-0.009302718390000518,-0.03150806794166565
1738772979865287000,6.444286865234375,-0.060170683324337004,-0.007765763746842276,-0.026696283745765683
1738772979875277800,6.45427783203125,-0.06554243949055671,-0.003635089116322342,-0.030012276425957676
1738772979885269000,6.46426904296875,-0.0699830522865057,-0.0020487423734855837,-0.03233049024045467
1738772979895261000,6.474260986328125,-0.0684749858111143,-0.00880621727706166,-0.03489244968295097
1738772979905251800,6.484251953125,-0.07025660853087902,-0.010576955559919587,-0.031022330251336095
1738772979915243000,6.494242919921875,-0.06027706630825996,-0.007722680373652838,-0.030653496938943862
1738772979925234000,6.50423388671875,-0.06504559588432311,0.0015248075476381926,-0.03337736894488334
1738772979935224800,6.514224853515625,-0.04132978925406933,0.00240090082900133,-0.030495676028728484
1738772979945215700,6.5242158203125,-0.08198328668177127,-0.011150985738344023,-0.0319154796987772
1738772979955207000,6.53420703125,-0.06818623199760913,-0.006107018488075118,-0.03315934228003025
1738772979965198800,6.54419873046875,-0.06626549306809902,-0.008877743576734792,-0.03117722855210304
1738772979975190000,6.55418994140625,-0.07468669993281364,-0.010157494888699147,-0.035603812822699546
1738772979985181000,6.564180908203125,-0.04949205292165279,-0.011864931277534924,-0.04301964203715324
1738772979995171800,6.574171875,-0.07931786686480045,-0.004940831102780066,-0.0372615169018507
1738772980005162800,6.584162841796875,-0.06301672040522098,0.0016676089852349831,-0.03649754679203033
1738772980015154000,6.59415380859375,-0.05000467861890793,-0.013063662375696002,-0.026612697115540502
1738772980025144800,6.604144775390625,-0.07035714629590512,-0.003051546757458709,-0.035438393127918244
1738772980035135700,6.6141357421875,-0.06843816093206405,0.007542745813040528,-0.04332885411679745
1738772980045128000,6.6241279296875,-0.06606266397237777,-0.010698186769813765,-0.028785949501395222
1738772980055118800,6.634118896484375,-0.07147066049575805,0.004256100241630338,-0.02531272043287754
1738772980065109800,6.64410986328125,-0.06568973900675773,0.007578353699250146,-0.040641806989908213
1738772980075101000,6.654100830078125,-0.07422551216185093,-0.0040588012709748,-0.02357376781105995
1738772980085091800,6.664091796875,-0.07694353894889354,-0.0009129546930314972,-0.0284732302904129
1738772980095082800,6.674082763671875,-0.07441957342922687,0.0015459622168098575,-0.029939795711636543
1738772980105074000,6.684073974609375,-0.05991933891177177,-0.004691128374740947,-0.037549686193466186
1738772980115065900,6.69406591796875,-0.063164019921422,-0.003924710579507518,-0.0377712199896574
1738772980125056800,6.704056884765625,-0.0641921939253807,-0.005462964413897134,-0.03420914359390735
1738772980135048000,6.7140478515625,-0.07003741282224654,-0.003631059111887589,-0.03569032206237316
1738772980145038800,6.724038818359375,-0.07035071655511856,0.006935194674215744,-0.029085224708914757
1738772980155030000,6.734030029296875,-0.07915127812623977,0.0008169538225163705,-0.04289513887465
1738772980165021200,6.744021240234375,-0.06730009681284427,-0.01040155332724098,-0.0266302327722311
1738772980175012000,6.75401220703125,-0.07087211008071899,0.0028247020319104193,-0.030101708275079724
1738772980185004000,6.764004150390625,-0.06069090780615806,0.0012251122150104493,-0.04357786044180393
1738772980194995200,6.7739951171875,-0.0577484246134758,-0.002163260714802891,-0.035869770282506944
1738772980204986000,6.783986083984375,-0.08112287046015262,-0.007198807196598499,-0.029388007047772405
1738772980214977000,6.79397705078125,-0.06949673007428646,0.00037679285656195134,-0.02288403198122978
1738772980224968000,6.803968017578125,-0.053667292779684066,-0.011878765723353717,-0.028073417317867277
1738772980234959000,6.813958984375,-0.06354395914971828,-0.007374937798350583,-0.033308979883790016
1738772980244950000,6.823949951171875,-0.06495674855709076,-0.017572164192527998,-0.041888007658720014
1738772980254941000,6.83394091796875,-0.052110126465559,-0.001263528546236921,-0.028985855987668036
1738772980264933000,6.84393310546875,-0.07191139000058173,0.007630433229648042,-0.038487259304523465
1738772980274924000,6.853924072265625,-0.06846972511410712,-0.003237915625434834,-0.04312485597729682
1738772980284915000,6.8639150390625,-0.07472703194320202,-0.0052480635711806825,-0.03493628882467747
1738772980294906000,6.873906005859375,-0.07559738503694534,-0.009163396684278268,-0.03318272315561771
1738772980304897000,6.88389697265625,-0.06722703157663346,0.00606024075387977,-0.0346644861459732
1738772980314888000,6.893887939453125,-0.06936462812721729,-0.003916422241774853,-0.028913959795236584
1738772980324879000,6.903879150390625,-0.06350888783633708,0.008606909012410324,-0.016523849299550055
1738772980334870000,6.9138701171875,-0.07278291213810444,-0.0038775218533584847,-0.02326397120952606
1738772980344862000,6.923862060546875,-0.062437459212541575,-0.014072528890985994,-0.04514204101860523
1738772980354853000,6.93385302734375,-0.06987608478069306,0.003638726395112462,-0.04296294341385364
1738772980364844000,6.943843994140625,-0.059386839470267294,0.00007010609414428472,-0.04178805441558361
1738772980374835000,6.9538349609375,-0.06786883661150932,0.0034977995374822057,-0.03841887024343014
1738772980384826000,6.963826171875,-0.0657522828489542,-0.002941464845952578,-0.034112697482109065
1738772980394817000,6.973817138671875,-0.0474742833584547,-0.0007698267451603896,-0.03414659975171089
1738772980404808000,6.983807861328125,-0.05568155521154403,0.0009461263102712109,-0.026699790877103804
1738772980414800100,6.993800048828125,-0.06942191127240657,0.0040422131790663115,-0.028235914403200148
1738772980424791000,7.003791015625,-0.06361819342970848,0.0003551975126843899,-0.03641746729314327
1738772980434782000,7.013781982421875,-0.05164660060703754,-0.0025524518286343663,-0.030133856979012486
1738772980444772900,7.02377294921875,-0.06132452953457832,0.0002207209454383701,-0.0327519305229187
1738772980454764000,7.033763916015625,-0.08253273725807667,0.0032350067157181908,-0.03849953426420689
1738772980464755000,7.0437548828125,-0.0831236888885498,-0.008548465956596191,-0.03626724516749382
1738772980474746000,7.05374609375,-0.06168050336539745,-0.00563689849198563,-0.02271861228644848
1738772980484738000,7.063738037109375,-0.07002513786256313,0.0026227931015077046,-0.03414484618604183
1738772980494729000,7.07372900390625,-0.06403788014650344,-0.0019705146216787398,-0.040433132675290105
1738772980504720000,7.083719970703125,-0.07493395269215107,0.005073962813022081,-0.03433890745341778
1738772980514711000,7.0937109375,-0.061118777829408645,-0.006155337442096788,-0.04039923040568828
1738772980524702000,7.103701904296875,-0.07563947061300277,-0.010399555449688342,-0.035002924320101735
1738772980534693000,7.113693115234375,-0.07354337511658668,0.01013568948226748,-0.030515549772977827
1738772980544684300,7.123684326171875,-0.06946691945791245,0.003713677627732977,-0.026081951239705085
1738772980554675200,7.13367529296875,-0.06336041927635669,-0.0058560873507522045,-0.019753332740068436
1738772980564667000,7.1436669921875,-0.06650222443342209,-0.012176830787898506,-0.023943770167231558
1738772980574658000,7.153657958984375,-0.062324646487832064,-0.0024913441749871705,-0.03365209423303604
1738772980584649000,7.16364892578125,-0.06637129153013228,-0.0071784562450251535,-0.024214988324046133
1738772980594640100,7.17364013671875,-0.06068272449970245,-0.000766109551268164,-0.02930675850510597
1738772980604631300,7.18363134765625,-0.06548690991103649,-0.007377901506994385,-0.0420019894272089
1738772980614622200,7.193622314453125,-0.07849076839089393,-0.0007206036088406107,-0.03618833471238613
1738772980624613000,7.203613037109375,-0.06038286477029323,-0.0018906246357480994,-0.03753858027756214
1738772980634605000,7.21360498046875,-0.06709142249822617,-0.0023844657174311576,-0.025606150421500204
1738772980644596200,7.22359619140625,-0.05453530778586864,0.00569182984988438,-0.04234510377645492
1738772980654587100,7.233587158203125,-0.060652913883328434,0.0016670701291179283,-0.03025134587883949
1738772980664578000,7.243578125,-0.057016603207588196,0.01438628699829569,-0.03421031263768673
1738772980674569200,7.2535693359375,-0.06795183871984481,0.00045189706952078267,-0.03553951541483402
1738772980684560100,7.26356005859375,-0.06607435441017151,0.010291683761577587,-0.031246202135086058
1738772980694551000,7.273551025390625,-0.06399053387343884,-0.006137644238490611,-0.024195699101686476
1738772980704543200,7.283543212890625,-0.05858662900328636,0.011606748415518085,-0.03335048093795776
1738772980714534100,7.2935341796875,-0.0579530072748661,0.0048205337579362096,-0.03355272551178932
1738772980724525000,7.303525146484375,-0.06786416043639183,-0.008250163430033717,-0.043375031346082685
1738772980734516200,7.31351611328125,-0.0704144294410944,-0.0059710166840231975,-0.030496845072507855
1738772980744507100,7.323507080078125,-0.06382043800354004,0.0031934668456437064,-0.022432196560502052
1738772980754498000,7.333498046875,-0.07233633741438389,-0.012531014520430471,-0.03083177611529827
1738772980764489200,7.3434892578125,-0.06562368803322315,0.0034378426613053304,-0.045015784290432924
1738772980774480100,7.353480224609375,-0.051259062594175335,-0.006154099899658467,-0.03783142574429512
1738772980784472000,7.36347216796875,-0.0588853196889162,0.000015727292094379663,-0.02242693586349487
1738772980794463200,7.373463134765625,-0.07027998940646649,-0.00827912237974815,-0.03032499563694
1738772980804454100,7.3834541015625,-0.06068272449970245,-0.012172346409026067,-0.03828618377447128
1738772980814445000,7.393445068359375,-0.05957739360630512,-0.0042226203804253595,-0.03687865506410599
1738772980824436200,7.403436279296875,-0.0694423695385456,-0.008372431252966635,-0.03135843033790588
1738772980834427100,7.41342724609375,-0.06467676257193088,-0.006909190299990586,-0.02548749247789383
1738772980844418000,7.42341796875,-0.05779752445220947,0.012908942171442322,-0.029073534271121023
1738772980854410200,7.43341015625,-0.0721872843325138,0.0012203378584817982,-0.03247720523476601
1738772980864401200,7.443401123046875,-0.07189034721255302,0.002979205323744099,-0.03576572538614273
1738772980874392000,7.45339208984375,-0.07624269720315932,0.0008612176559283398,-0.03305179025232792
1738772980884383000,7.463383056640625,-0.05799392380714416,-0.0033546304904157292,-0.022716274198889733
1738772980894374100,7.4733740234375,-0.054264674150943756,-0.0006701337969279848,-0.03272504251599312
1738772980904365000,7.483364990234375,-0.060272390133142464,-0.004555877772648819,-0.03298983093202114
1738772980914356000,7.49335595703125,-0.05456921005547046,-0.011377341840125154,-0.03690495854914188
1738772980924347100,7.50334716796875,-0.07117606146335602,0.005770569058344699,-0.04379354901909828
1738772980934339000,7.513339111328125,-0.06488660593032837,0.00499361160278786,-0.05113163682222366
1738772980944330000,7.523330078125,-0.05585574273467064,-0.005998544011765625,-0.022181436669826506
1738772980954321200,7.533321044921875,-0.05476151775717735,0.0070329468271113,-0.027491233515739438
1738772980964312000,7.54331201171875,-0.06672025109827517,0.0027745952628902156,-0.04471826264858245
1738772980974303000,7.553302978515625,-0.06732756934165954,-0.007094691518286708,-0.03123743430674076
1738772980984294100,7.563294189453125,-0.05143208107352257,0.0005772473321063444,-0.04071604126989841
1738772980994285000,7.57328515625,-0.07318272511065006,-0.0027470177027978933,-0.04168225595355034
1738772981004277000,7.583277099609375,-0.07681494413316249,-0.0002632426296244375,-0.032193127596378324
1738772981014268200,7.59326806640625,-0.05734802711904049,-0.007118378354550804,-0.02787467987537384
1738772981024259000,7.603259033203125,-0.061868134891986844,-0.004635489197366405,-0.026630817294120788
1738772981034250000,7.61325,-0.07537877385020256,0.001311575788911432,-0.03599193535745144
1738772981044241000,7.623240966796875,-0.06819499982595444,0.007791334296227432,-0.04063245463967323
1738772981054232000,7.633232177734375,-0.06489888089001178,0.008788615405000746,-0.03435352050065994
1738772981064223000,7.643222900390625,-0.0669113897562027,-0.006249283352843486,-0.037543256452679634
1738772981074214000,7.6532138671875,-0.06524374880492687,-0.01624487024467671,-0.04999532626867294
1738772981084206000,7.6632060546875,-0.06717617817223072,0.006909541926439851,-0.03699789752960205
1738772981094197000,7.673197021484375,-0.057630935713648794,0.003003510931227356,-0.040839959910511967
1738772981104188000,7.68318798828125,-0.05712707784473896,-0.004859055120439734,-0.037332244050502776
1738772981114179000,7.693178955078125,-0.0859820009291172,-0.001458754290814977,-0.05083703778982162
1738772981124170000,7.703169921875,-0.06729074446260928,-0.0057007597917225206,-0.04857201546728611
1738772981134161000,7.713160888671875,-0.06876198605895043,-0.0021201636418816633,-0.03140168495774269
1738772981144152000,7.723152099609375,-0.07920505414009094,-0.017474491954734547,-0.030851065337657926
1738772981154144000,7.73314404296875,-0.06261983004212379,-0.005878783239750191,-0.028867782565951346
1738772981164135400,7.743135498046875,-0.07369301272034645,-0.0006757369872299022,-0.0312619842261076
1738772981174126300,7.753126220703125,-0.0722094961643219,-0.011684725005575455,-0.03558335455656052
1738772981184117500,7.763117431640625,-0.06592354776263237,-0.0028227247039554638,-0.026607436418533324
1738772981194108400,7.7731083984375,-0.06701426560878754,-0.0003148860518936999,-0.03297580240666866
1738772981204099300,7.783099365234375,-0.06552724192142487,-0.0109235747572151,-0.022187281888723372
1738772981214090200,7.79309033203125,-0.05191957232952118,-0.002940110855794046,-0.026961656683683395
1738772981224081400,7.803081298828125,-0.07183189502358436,0.004964533922064584,-0.03712064712643623
1738772981234073300,7.8130732421875,-0.059575640040636056,-0.008749879413365852,-0.04697568618655205
1738772981244064300,7.823064208984375,-0.06668985596001148,0.0015339521186077034,-0.0246346750408411
1738772981254055400,7.833055419921875,-0.0741957015454769,0.0019712566904840057,-0.025345453658699987
1738772981264046300,7.84304638671875,-0.07149637945890426,-0.004431210213364102,-0.029843934121727943
1738772981274037200,7.853037353515625,-0.06728314567804336,0.0024331865302519872,-0.02598842773735523
1738772981284028400,7.8630283203125,-0.07175240004658699,-0.003105012244055979,-0.01823825200200081
1738772981294019600,7.87301953125,-0.065355392485857,-0.003970570431672968,-0.027907413101196286
1738772981304011300,7.88301123046875,-0.062193129062652584,-0.003238767292094417,-0.028237083446979522
1738772981314002400,7.89300244140625,-0.07264554949402809,0.006560746755078435,-0.029766777232289314
1738772981323993300,7.902993408203125,-0.0704185210943222,0.00008601148275192826,-0.034977789878845214
1738772981333984300,7.912984375,-0.0720434919476509,-0.0001874557133647613,-0.026778116810321807
1738772981343975400,7.922975341796875,-0.07248012979924678,-0.0008097523301723412,-0.03128653414547443
1738772981353966600,7.932966552734375,-0.08609598269760609,-0.000008911675529088825,-0.02889291700720787
1738772981363957500,7.94295751953125,-0.07517068405747414,0.011637456364324316,-0.038921559068560596
1738772981374572500,7.953572509765625,-0.059141924798488614,0.004387631366541609,-0.03416062827706337
1738772981384564500,7.963564453125,-0.0600268909394741,-0.004037014130852185,-0.028044775745272636
1738772981394555400,7.973555419921875,-0.06021919864118099,-0.0014622545722872019,-0.03127075205445289
1738772981404546600,7.983546630859375,-0.055708443218469614,-0.0024860286790528334,-0.044023266121745105
1738772981414537500,7.993537353515625,-0.0751285984814167,-0.005353247828572057,-0.03210135765969753
1738772981424528400,8.0035283203125,-0.05672492678463459,0.00012962457890389485,-0.025963877817988396
1738772981434519600,8.01351953125,-0.0725315677255392,0.00522024169920478,-0.025747604718804357
1738772981444510500,8.023510498046875,-0.06743102971613407,-0.00586397382968571,-0.035793782436847686
1738772981454502400,8.03350244140625,-0.07565817531347274,0.008671804641897323,-0.02382686578929424
1738772981464493600,8.04349365234375,-0.06093991413116455,-0.001710361281572841,-0.026304069557785987
1738772981474484500,8.053484375,-0.061057987552881235,-0.006550298426300287,-0.036377135282754894
1738772981484475400,8.063475341796876,-0.05762567501664161,-0.009585697766556404,-0.043994040027260775
1738772981494466600,8.073466552734375,-0.06550152295827866,0.009142479477124288,-0.028815175595879552
1738772981504457500,8.08345751953125,-0.05755494786798954,-0.00274919824344106,-0.03661912734508514
1738772981514448400,8.093448486328125,-0.07564473131000995,-0.00010925536102149635,-0.039487960779666896
1738772981524439300,8.103439208984375,-0.07173544891178607,0.006163255887071136,-0.033680151283740994
1738772981534431500,8.113431396484375,-0.06722352444529534,-0.00513228713782737,-0.03790390645861626
1738772981544422400,8.12342236328125,-0.06569090805053711,-0.0026700366265838965,-0.030926468661427495
1738772981554413600,8.13341357421875,-0.07108370700478553,-0.011204179513594136,-0.0352571913421154
1738772981564404500,8.143404541015625,-0.06769348004460335,-0.009892446177767123,-0.052686465048789974
1738772981574395400,8.1533955078125,-0.06753332104682921,-0.002074580067640636,-0.0244213245511055
1738772981584386300,8.16338623046875,-0.06091887134313583,-0.0039519684791914185,-0.016986206114292145
1738772981594377500,8.17337744140625,-0.07717910127043724,0.00024209481031866743,-0.044295653322339056
1738772981604368400,8.183368408203124,-0.05982406184375286,-0.005480280874879099,-0.03980184903442859
1738772981614360300,8.1933603515625,-0.06187690272033214,-0.013855228311917744,-0.035227380725741386
1738772981624351500,8.2033515625,-0.0652946022093296,-0.011925543457549065,-0.025088848549127577
1738772981634342400,8.21334228515625,-0.06125847856104374,0.0008599116148310714,-0.02927227171361446
1738772981644333300,8.223333251953125,-0.07566694314181804,0.0005104748393641784,-0.026062662017345428
1738772981654324500,8.233324462890625,-0.06995148810446263,-0.011422361442074178,-0.035684476843476295
1738772981664315400,8.2433154296875,-0.06785714617371559,0.0008318773970124311,-0.041819034075737
1738772981674306300,8.253306396484374,-0.05947334870994091,-0.0025888520159991456,-0.03209901957213879
1738772981684297500,8.26329736328125,-0.0781961693584919,-0.003168460268550552,-0.02084931128323078
1738772981694289400,8.273289306640624,-0.07713233951926231,-0.005388392207189463,-0.031198855862021445
1738772981704280300,8.2832802734375,-0.05211772525012493,-0.007638513788115232,-0.03737199153900146
1738772981714895400,8.293895263671875,-0.05165419939160347,-0.007192233608628157,-0.038292028993368143
1738772981724887300,8.30388720703125,-0.07171323707997798,0.007611762778507545,-0.03169628399014473
1738772981734878500,8.31387841796875,-0.06920914530456065,-0.01892981902931351,-0.03702303197085857
1738772981744869400,8.323869384765626,-0.0596434445798397,-0.005362374133232515,-0.039698973181843754
1738772981754860300,8.3338603515625,-0.07071195108294487,0.0023762709945323876,-0.03821019592881202
1738772981764851500,8.3438515625,-0.06828326263129711,-0.0009898079050821252,-0.02988368161022663
1738772981774842600,8.353842529296875,-0.07110358074903488,-0.003592154156893957,-0.03979366572797298
1738772981784833500,8.36383349609375,-0.052991000953316686,0.001779435329255648,-0.026485855865478514
1738772981794825500,8.373825439453125,-0.0701917266011238,0.013162948898551985,-0.03293196326494217
1738772981804816400,8.38381640625,-0.07186579729318618,0.001138418028957676,-0.022414660903811452
1738772981814807300,8.393807373046876,-0.06743102971613407,-0.0007126394980936311,-0.022780571606755257
1738772981824798500,8.403798583984376,-0.05948913080096244,0.012203298669715876,-0.040305122381448746
1738772981834789600,8.41378955078125,-0.07505611776709556,-0.009740404271078295,-0.031169629767537115
1738772981844780500,8.423780517578125,-0.07547989613711834,-0.002439808067283593,-0.03674363050758839
1738772981854771500,8.433771484375,-0.06331716465651989,0.009222056652512401,-0.028128946897387503
1738772981864762600,8.4437626953125,-0.0694774408519268,-0.004035007120145019,-0.0343769013762474
1738772981874754300,8.45375439453125,-0.05527063632309436,0.00017980669644894077,-0.04543664005100727
1738772981884745500,8.463745361328124,-0.07709317655265331,-0.00008620327899698167,-0.027965280768275258
1738772981894736600,8.473736572265626,-0.07285714641809463,-0.0006538265495211817,-0.03252630507349968
1738772981904727600,8.4837275390625,-0.06312251886725426,-0.015338237977866083,-0.03448386888206005
1738772981914718500,8.493718505859375,-0.07743862898945808,-0.0028782405837439,-0.04503331994712353
1738772981924709600,8.503709716796875,-0.06348083078563213,-0.001245568197860848,-0.040457098072767254
1738772981934700500,8.513700439453125,-0.06255670167803765,-0.009320783769653644,-0.03137012077569962
1738772981944692500,8.5236923828125,-0.06145955409109592,-0.0017688454365823417,-0.034737551382184026
1738772981954683600,8.53368359375,-0.049022097322344776,0.00434489276993554,-0.039703064835071564
1738772981964674600,8.543674560546876,-0.06995207262635231,-0.009438105989410542,-0.037786417558789254
1738772981974665500,8.55366552734375,-0.07291910573840141,-0.009167858230264392,-0.044560441738367075
1738772981984656400,8.563656494140625,-0.0669417848944664,0.002682338985730894,-0.03631751405000686
1738772981994647600,8.5736474609375,-0.06622516105771065,0.0007717698237858712,-0.024448797079920766
1738772982004638500,8.583638427734375,-0.06534487109184264,-0.008691073314659297,-0.031604514053463935
1738772982014629400,8.59362939453125,-0.06793138045370578,-0.003847555973357521,-0.045755204480886456
1738772982024621600,8.60362158203125,-0.07427870365381241,-0.0011910957809770479,-0.032790508967638014
1738772982034612500,8.613612548828126,-0.05635200181901454,-0.004792029182659462,-0.03828209212124348
1738772982044603400,8.623603271484376,-0.06715455086231231,-0.02253336222990183,-0.0398842666208744
1738772982054594600,8.633594482421875,-0.07104629760384559,0.005541062018251977,-0.03823533037006855
1738772982064585500,8.64358544921875,-0.06443360146582126,0.0017573924608062952,-0.04411445153653622
1738772982074576400,8.653576416015625,-0.06363163743317127,-0.00019787664267932996,-0.0382113649725914
1738772982084567600,8.663567626953125,-0.0621446137458086,0.016876386780978647,-0.033708208334445953
1738772982094559500,8.6735595703125,-0.0653384413510561,0.006304776399745605,-0.043504795205593104
1738772982104550400,8.68355029296875,-0.07055588373839855,0.00203046464798972,-0.03186345725059509
1738772982114541600,8.69354150390625,-0.07611527143120765,-0.002587221747916192,-0.03152852620780468
1738772982124532500,8.703532470703125,-0.07794833207726479,-0.0033548359863925722,-0.030275311276316642
1738772982134523400,8.7135234375,-0.07315232997238635,0.010838919547910336,-0.028789456632733343
1738772982144514600,8.7235146484375,-0.06535246987640857,0.001627808981097769,-0.030613164928555488
1738772982154505200,8.733505126953125,-0.06055822133719921,-0.01076393863253761,-0.02448796004652977
1738772982164497400,8.743497314453125,-0.06731354081630707,-0.0023051853695651514,-0.04241057022809982
1738772982174488300,8.75348828125,-0.08577449565827847,-0.006463088217016775,-0.039483284604549404
1738772982184479500,8.7634794921875,-0.06752922939360141,0.0012278932605637237,-0.029591420665383335
1738772982194470400,8.773470458984375,-0.05823474682569504,-0.007140165494673419,-0.02273322533369064
1738772982204461300,8.78346142578125,-0.06543079580962657,-0.01799072068145033,-0.03618015140593052
1738772982214452200,8.7934521484375,-0.06047521922886371,0.004553916427714284,-0.035757542079687114
1738772982224443400,8.803443359375,-0.06387596758306026,-0.004276585907232947,-0.03237783651351928
1738772982234435300,8.813435302734375,-0.08122633083462714,-0.0016932092173723504,-0.03822480897605419
1738772982244426200,8.82342626953125,-0.07422434311807155,0.005782264062715694,-0.03817921626865864
1738772982254417400,8.83341748046875,-0.06253799697756766,0.012682462772075086,-0.0326648367613554
1738772982264408300,8.843408203125,-0.07050210772454739,0.004731654464663006,-0.03979658833742142
1738772982274399200,8.853399169921875,-0.06316986514031887,-0.007178641191404312,-0.036654783180356025
1738772982284390400,8.863390380859375,-0.0781564218699932,0.0012079624340985901,-0.03647065878510475
1738772982294381300,8.87338134765625,-0.06590484306216239,-0.006866303289623465,-0.036890345501899714
1738772982304373200,8.883373291015625,-0.07175064648091793,-0.008205390423256903,-0.03912088103294372
1738772982314364400,8.893364501953124,-0.05956979482173919,0.0015101419847575015,-0.03786532801389694
1738772982324355300,8.903355224609374,-0.07196867314577102,0.0018227356148650868,-0.04074059118926525
1738772982334346200,8.91334619140625,-0.06640753188729286,-0.0026599444908322763,-0.041675241690874096
1738772982344337400,8.92333740234375,-0.06085106680393219,-0.005941900187393184,-0.033325931018590924
1738772982354328300,8.933328369140625,-0.0632376696795225,-0.00030832616365514693,-0.045158992153406144
1738772982364319200,8.9433193359375,-0.06473463023900985,0.009085586774291004,-0.03243862679004669
1738772982374310100,8.95331005859375,-0.06542904224395751,0.0007407170983962714,-0.01680909598171711
1738772982384302300,8.96330224609375,-0.05705927330553531,0.0018115885997656732,-0.04327916975617409
1738772982394293200,8.973293212890624,-0.05901449902653694,0.005495311763940845,-0.03922434140741825
1738772982404284400,8.983284423828126,-0.06322305663228035,-0.007747275958792306,-0.0371001888602972
1738772982414275300,8.993275390625,-0.05963526127338409,0.005214976435620337,-0.038591304200887674
1738772982424266200,9.003266357421875,-0.06712240215837956,-0.009680047819390893,-0.028856676650047302
1738772982434257200,9.013257080078125,-0.07011164710223675,-0.010926529332704375,-0.03305062120854854
1738772982444248300,9.023248291015625,-0.06888824278712272,0.002868121048528701,-0.026357261049747466
1738772982454240300,9.033240234375,-0.055254854232072825,-0.0013806384201510808,-0.02743102776110172
1738772982464231200,9.043231201171874,-0.05991057108342647,0.002948810185480397,-0.03653261810541153
1738772982474222300,9.053222412109376,-0.07049918511509895,-0.013884255760291125,-0.034192192459106444
1738772982484213200,9.063213134765626,-0.07455225989818573,-0.006500757912860717,-0.028635142853856085
1738772982494204200,9.0732041015625,-0.061273676130175585,-0.002091574584925547,-0.03126899848878383
1738772982504195300,9.0831953125,-0.05840776530504226,0.0013495879780501127,-0.029508418557047843
1738772982514187300,9.093187255859375,-0.05554653065502643,0.00930052186633693,-0.03372515946924686
1738772982524178200,9.10317822265625,-0.07982230925559997,-0.013458036554721184,-0.029482699593901634
1738772982534169300,9.11316943359375,-0.08175649218857288,-0.013226454005262348,-0.04027355819940567
1738772982544160300,9.12316015625,-0.06362813030183315,0.000001459021435584873,-0.031628479450941084
1738772982554151400,9.1331513671875,-0.06898702698647975,-0.002195110307924915,-0.03586041793227195
1738772982564142600,9.143142578125,-0.06999649628996849,0.008591969454893841,-0.03277589592039585
1738772982574133500,9.153133544921875,-0.07658055085539818,0.004786688570550177,-0.042054011875391005
1738772982584125200,9.163125244140625,-0.0717775344878435,-0.012136788755166343,-0.0356406377017498
1738772982594116400,9.173116455078125,-0.07460252878069877,0.0009013281873194501,-0.02998305033147335
1738772982604107300,9.183107177734374,-0.07177227379083632,0.002039700550504494,-0.043131870239973065
1738772982614098400,9.193098388671874,-0.07404489489793777,-0.011172533133160321,-0.046829555714130396
1738772982624089600,9.203089599609376,-0.07583353188037872,-0.022095653515937737,-0.030679800423979758
1738772982634080500,9.21308056640625,-0.056417468270659445,0.010380156629474366,-0.031520927423238754
1738772982644071400,9.223071533203125,-0.07988660666346549,-0.0045996347159845755,-0.0324555779248476
1738772982654063400,9.2330634765625,-0.06895195567309856,-0.0019604681516997517,-0.032172084808349606
1738772982664054300,9.24305419921875,-0.05312018029093742,0.0005972763399826362,-0.04065525099337101
1738772982674045400,9.25304541015625,-0.06611468642055988,-0.0037970382123836315,-0.028570260924100876
1738772982684036400,9.263036376953124,-0.07792319763600826,-0.0037843271445715796,-0.040113399201631546
1738772982694027500,9.273027587890626,-0.0762614019036293,0.010700897033419459,-0.054501990038156506
1738772982704018400,9.283018310546876,-0.06055296064019203,0.007872432141844183,-0.0441717346817255
1738772982714009300,9.29300927734375,-0.06668342621922492,-0.0169933299748227,-0.03594868073761463
1738772982724001300,9.303001220703125,-0.07418050397634506,-0.017000805461802517,-0.04041442797482014
1738772982733992400,9.312992431640625,-0.06937398047745227,-0.010433291039220057,-0.031164953592419622
1738772982743983400,9.3229833984375,-0.06873860518336296,0.000700280056730844,-0.03945172042250633
1738772982753974500,9.332974609375,-0.07380640996694564,-0.019454180830135007,-0.01718552807867527
1738772982763965400,9.34296533203125,-0.06979775884747505,-0.027116349488473496,-0.032848961156606675
1738772982773956400,9.352956298828126,-0.06279167947769165,0.001758652836130932,-0.04492869052886963
1738772982783947500,9.362947509765625,-0.058446928271651266,0.010854082867712713,-0.03236731511950493
1738772982793939500,9.372939453125,-0.07306874334216118,-0.00603943771115737,-0.038268063595890994
1738772982803930400,9.382930419921875,-0.06568623187541961,-0.0016755023140343837,-0.04043956241607666
1738772982813921500,9.392921630859375,-0.044563364347815514,-0.006374229473341256,-0.036734278157353396
1738772982823912400,9.402912353515624,-0.07043839483857155,-0.009039635590580292,-0.0430389312595129
1738772982833903400,9.4129033203125,-0.07883388274013996,-0.013079120239731856,-0.036280104649066926
1738772982843894300,9.422894287109376,-0.06791033766567707,-0.0022723037299816496,-0.027301848423480986
1738772982853885400,9.432885498046875,-0.06280336991548538,0.00006236574568320066,-0.03720774088799953
1738772982863877400,9.44287744140625,-0.06985153486132621,-0.005881148726772516,-0.03928045550882816
1738772982873868500,9.45286865234375,-0.06489478923678398,-0.002345551629283,-0.028385552006959913
1738772982883859500,9.462859375,-0.06310965938568115,-0.002491266543173697,-0.029867314997315406
1738772982893850400,9.472850341796875,-0.064601943770051,-0.009277622764650731,-0.03421381976902485
1738772982903841300,9.48284130859375,-0.07641746924817562,-0.007580020499951206,-0.0357189636349678
1738772982913832400,9.49283251953125,-0.07132277645766735,-0.0024771626692963763,-0.038573184022307395
1738772982923823400,9.5028232421875,-0.0668020841628313,0.0134765928414301,-0.04370762430131435
1738772982933815600,9.512815673828126,-0.07190905191302299,-0.0013257801274885422,-0.03260638457238674
1738772982943806500,9.522806396484375,-0.060245502126216884,-0.005042451146617531,-0.03947685486376285
1738772982953797400,9.53279736328125,-0.06833002438247203,0.004191843932960182,-0.03124094143807888
1738772982963788300,9.542788330078125,-0.05247895977795124,0.0002241527282516472,-0.04155015400648117
1738772982973779500,9.552779541015624,-0.07236907064020633,-0.007650163126713596,-0.0462064553797245
1738772982983770400,9.562770263671876,-0.06296878961026668,-0.004496911843738053,-0.03509352521300316
1738772982993762300,9.57276220703125,-0.05562018041312694,-0.0053418039859505365,-0.030029812082648277
1738772983003753500,9.58275341796875,-0.061410454252362245,-0.013753939344931859,-0.040274142721295356
1738772983013744400,9.592744384765625,-0.056633156847953794,-0.010023436163272708,-0.05103109905719757
1738772983023735300,9.6027353515625,-0.06127075352072715,0.0017776543641230091,-0.03247778975665569
1738772983033726500,9.6127265625,-0.06900047098994255,-0.004662345238251145,-0.040487493211030956
1738772983043717400,9.62271728515625,-0.06810264536738395,-0.0032122491779271512,-0.04033668656349182
1738772983053708300,9.632708251953124,-0.06028583413660526,-0.007688565758208278,-0.033957799181342126
1738772983063700500,9.642700439453124,-0.06431085186898708,0.002077541492995806,-0.022907412856817244
1738772983073691400,9.65269140625,-0.07161971357762813,-0.00025814632939873263,-0.03326864787340164
1738772983083682300,9.662682373046875,-0.07042553535699844,-0.007211639278708025,-0.046133974665403366
1738772983093673500,9.672673583984375,-0.06297346578538418,-0.00013643562889192252,-0.038755554851889605
1738772983103664400,9.682664306640625,-0.05491816962361335,-0.0013862187775666825,-0.03796995743215084
1738772983113655300,9.6926552734375,-0.06585632774531841,-0.009053095577063503,-0.024479776740074156
1738772983123646200,9.702646240234374,-0.06036123746037483,0.008082736724545247,-0.04476677796542644
1738772983133638400,9.712638427734374,-0.0666319882929325,-0.016514259487297386,-0.03955167366564274
1738772983143629300,9.72262939453125,-0.06461421872973441,0.005221143598214257,-0.016318682116270064
1738772983153620200,9.7326201171875,-0.05496668494045734,0.009982649778446647,-0.029444705671072005
1738772983163611100,9.742611083984375,-0.07207505612969398,0.003083734277298208,-0.04373392778635025
1738772983173602000,9.75260205078125,-0.06878770502209663,0.000788611360732466,-0.03863865047395229
1738772983183593200,9.76259326171875,-0.07016308502852917,-0.007327824420726392,-0.033059389036893844
1738772983193584000,9.772584228515624,-0.05700432824790477,-0.014674143479368648,-0.023318331745266912
1738772983203576000,9.782576171875,-0.06837737065553665,-0.0007805924510583281,-0.03304419146776199
1738772983213567200,9.792567138671876,-0.05597323163449764,0.002026128682878334,-0.027931963020563125
1738772983223558100,9.80255810546875,-0.062086746078729625,-0.00988164393925108,-0.030358897906541824
1738772983233549000,9.812549072265625,-0.07274141108393668,0.007817000743735116,-0.044528877556324
1738772983243540200,9.822540283203125,-0.05885901620388031,-0.008091689499269705,-0.034600188738107676
1738772983253531100,9.83253125,-0.05481061759591102,-0.0006494951509870588,-0.01695581097602844
1738772983263522000,9.84252197265625,-0.06319207697212696,0.0014286422803415917,-0.027726211315393445
1738772983273514200,9.85251416015625,-0.07214169162511826,0.007446904772729613,-0.04273439535498619
1738772983283505200,9.862505126953126,-0.0703401951611042,0.0026655385479796676,-0.035411505120992656
1738772983293496000,9.87249609375,-0.07511632352173328,0.007877811569860204,-0.023458616998791693
1738772983303487200,9.8824873046875,-0.08171499113440513,0.0003846313864341937,-0.03151800481379032
1738772983313478100,9.89247802734375,-0.05673252556920051,-0.006345256823895033,-0.03659399290382862
1738772983323469000,9.902468994140625,-0.06425181515812874,-0.0076268210670328695,-0.029503157860040662
1738772983333460000,9.9124599609375,-0.07637421462833881,-0.014502896831999531,-0.032494740891456604
1738772983343452200,9.9224521484375,-0.0687806907594204,0.0019457751893554812,-0.036027591192722315
1738772983353443000,9.932443115234374,-0.06209317581951618,-0.009101798123575281,-0.03236556155383587
1738772983363434000,9.94243408203125,-0.06254676480591297,0.007481784289865754,-0.03011456775665283
1738772983373425200,9.952425048828125,-0.05053659353852272,0.0024746487685129975,-0.040648236730694766
1738772983383416000,9.962416015625,-0.06457973193824292,0.004098530493164435,-0.025120412731170653
1738772983393407200,9.9724072265625,-0.06399462552666664,-0.0018585170310107058,-0.026596915024518965
1738772983403398400,9.9823984375,-0.07206570377945899,0.0020122622710186987,-0.037683541706204415
1738772983413390000,9.99239013671875,-0.0694990681618452,-0.0025384050369728355,-0.029937457624077794
1738772983423381000,10.002381103515624,-0.06410276207625866,-0.008200574967532884,-0.0362374345511198
1738772983433372200,10.0123720703125,-0.07821428953707217,0.00024794002921553325,-0.03556815698742866
1738772983443363000,10.022363037109375,-0.07208207039237022,-0.0032830334087950177,-0.03032674920260906
1738772983453354200,10.032354248046875,-0.0688455726891756,-0.0017904750297893768,-0.03622866672277451
1738772983463345400,10.042345458984375,-0.06777706667482852,-0.002406054211442824,-0.03296761910021305
1738772983473336300,10.05233642578125,-0.05923953995406627,0.0026342437939951193,-0.019662731847167013
1738772983483328000,10.062327880859375,-0.06504501136243343,0.0022562681939220053,-0.02599368843436241
1738772983493319200,10.072319091796874,-0.0680044456899166,-0.0027349824884207916,-0.042355040648579596
1738772983503310000,10.08231005859375,-0.07432371183931827,-0.008720546004315839,-0.037812721043825145
1738772983513301200,10.09230126953125,-0.057547933605313295,0.004078622499585617,-0.025116905599832533
1738772983523292400,10.10229248046875,-0.06572247223258018,0.005705111739854328,-0.04435585907697678
1738772983533283300,10.112283447265625,-0.0820382317394018,-0.002534482347103767,-0.04255202452540397
1738772983543274200,10.122274169921875,-0.07109539744257927,-0.009985828116221819,-0.01983633484840393
1738772983553266200,10.13226611328125,-0.06177694947719574,-0.007657983390276786,-0.022442133432626722
1738772983563257300,10.14225732421875,-0.07240472647547722,-0.0042293241158477025,-0.03680266721844673
1738772983573248300,10.152248291015624,-0.060439563393592834,-0.00859964587127324,-0.03514788574874401
1738772983583239200,10.1622392578125,-0.06446399660408496,-0.0029811940681422127,-0.03173077078163623
1738772983593230300,10.172230224609375,-0.05997077683806419,-0.00723093991751084,-0.0413134226411581
1738772983603221200,10.18222119140625,-0.07734335192143917,-0.010211563163495157,-0.040243163061141965
1738772983613213200,10.192213134765625,-0.06796937437653541,-0.004982247675268445,-0.03866495395898819
1738772983623204400,10.202204345703125,-0.07409516378045082,-0.000275444524071645,-0.031048049214482305
1738772983633195300,10.2121953125,-0.06649404112696647,-0.002734094289143104,-0.027560791620612143
1738772983643186200,10.222186279296874,-0.0611380670517683,0.006904199031041934,-0.0279635272026062
1738772983653177300,10.23217724609375,-0.07894786450862884,0.013466900281189008,-0.038432898768782614
1738772983663168300,10.242168212890626,-0.07963409320712089,-0.00413932372785639,-0.035384617114067075
1738772983673159200,10.2521591796875,-0.06719605191648007,-0.002604357829096261,-0.030175358033180236
1738772983683151400,10.2621513671875,-0.0657218877106905,0.005778307123517151,-0.029095161581039426
1738772983693142300,10.272142333984375,-0.06423895567655563,-0.006232597079523838,-0.03580781096220016
1738772983703133200,10.28213330078125,-0.06815525233745574,0.005066149399324786,-0.04385024764239788
1738772983713124400,10.292124267578124,-0.07744038255512714,0.0009047280040918849,-0.030969723281264305
1738772983723115300,10.302115234375,-0.06109656599760055,0.0021126972880563697,-0.030721301478147504
1738772983733106200,10.312106201171876,-0.08036766817867755,-0.010833777581911999,-0.04304068482518196
1738772983743098400,10.322098388671876,-0.06780921537876129,-0.010412510829383973,-0.024468670824170112
1738772983753089300,10.33208935546875,-0.06031739831864834,0.004974340646737255,-0.028971827462315556
1738772983763080200,10.342080078125,-0.06852642373740672,-0.005367223838286008,-0.03379237948656082
1738772983773071400,10.3520712890625,-0.07286649876832961,0.004061874577472918,-0.03199555919766426
1738772983783062300,10.362062255859374,-0.058334700068831444,0.0005868576939566992,-0.037111294776201245
1738772983793053200,10.37205322265625,-0.06968845325410365,0.005381268346658907,-0.03728782038688659
1738772983803044000,10.382044189453126,-0.07014671841561794,0.002509434670815244,-0.0381722020059824
1738772983813036300,10.392036376953126,-0.06581541121304035,0.0022107257188763467,-0.02603869661986828
1738772983823027200,10.402027099609375,-0.06850947260260581,-0.007465079750237055,-0.03666355100870132
1738772983833018400,10.412018310546875,-0.07581015100479126,-0.008504654214333277,-0.034766777476668356
1738772983843009300,10.42200927734375,-0.06846621798276901,0.008985745412297547,-0.04585691128969192
1738772983853000200,10.432000244140625,-0.06272095232903957,0.0021112085838685744,-0.02380114682614803
1738772983862991000,10.4419912109375,-0.08369944294989108,0.0007887437914730981,-0.033932080218195916
1738772983872982300,10.451982177734376,-0.076095982208848,0.0025750130036030893,-0.032092589831352235
1738772983882974200,10.46197412109375,-0.05527414345443248,-0.00011374887304846197,-0.02913432454764843
1738772983892965000,10.471965087890625,-0.07485621128082275,0.0039176689173677,-0.032009003201127054
1738772983902956300,10.481956298828125,-0.07336918759346008,-0.003911873930820729,-0.042918519750237465
1738772983912947200,10.491947265625,-0.05873509756326675,0.0007006202667369507,-0.03434299910664558
1738772983922938000,10.501938232421875,-0.057091422009468075,-0.0007948904044693336,-0.03658288698792457
1738772983932929300,10.51192919921875,-0.0750549487233162,0.0029918250600108874,-0.04974164376854896
1738772983942921200,10.521921142578124,-0.06874328135848044,-0.010879817813879344,-0.038410102415084836
1738772983952912100,10.531912109375,-0.0695949297517538,0.003697231099719647,-0.02351765370965004
1738772983962903300,10.5419033203125,-0.06393383525013924,0.00118074791689869,-0.02587386144697666
1738772983972894200,10.551894287109375,-0.06736497874259949,-0.006157344452803954,-0.027685294783115384
1738772983982885000,10.561885009765625,-0.060766311129927635,0.0012536852889461442,-0.030101708275079724
1738772983992876300,10.571876220703125,-0.0804009859263897,0.002292739163234364,-0.03918108678758144
1738772984002867200,10.5818671875,-0.07052022790312766,-0.011728977422544267,-0.03335106545984745
1738772984012859100,10.591859130859374,-0.05880348662436008,-0.004433415870182216,-0.03102525286078453
1738772984022850300,10.601850341796874,-0.05905483103692531,-0.010181362104765139,-0.047559623554348944
1738772984032841200,10.61184130859375,-0.06142740538716316,-0.0092948022283148,-0.04430208306312561
1738772984042832100,10.62183203125,-0.06648468877673148,-0.0016221920910640618,-0.03731412387192249
1738772984052823300,10.6318232421875,-0.0664671531200409,-0.014800676485465373,-0.03794014681577682
1738772984062814200,10.641814208984375,-0.06780512372553348,-0.00416308819593396,-0.03136895173192024
1738772984072806100,10.65180615234375,-0.057770636445283886,0.00737698819154175,-0.029139000722765922
1738772984082797300,10.66179736328125,-0.07253449033498764,0.00461476606974611,-0.04253390434682369
1738772984092788200,10.671788330078124,-0.06935936743021011,-0.0032807455535861663,-0.045126843449473375
1738772984102779100,10.681779052734376,-0.0670809011042118,-0.011072378960624336,-0.03739771050214767
1738772984112770000,10.69177001953125,-0.06301905849277972,0.0021961172382114454,-0.025010522615909574
1738772984122761200,10.70176123046875,-0.05495031832754611,0.006894638901541475,-0.032176176461577416
1738772984132752100,10.711752197265625,-0.058229486128687856,-0.0016114766175160183,-0.032794016098976135
1738772984142744300,10.721744384765625,-0.07196399697065353,-0.003536001239577308,-0.038080432069301604
1738772984152735200,10.7317353515625,-0.07271861473023891,0.0021939115813933313,-0.031038112342357635
1738772984162726000,10.741725830078124,-0.05818330889940262,0.008991284670517779,-0.02957388500869274
1738772984172716800,10.751716796875,-0.07117898407280444,-0.00014577656268374993,-0.030505028378963468
1738772984182708000,10.7617080078125,-0.0670242024809122,0.0048808993427781385,-0.03793488611876964
1738772984192699000,10.771698974609375,-0.07870937957763671,-0.0025358705865917725,-0.030132687935233115
1738772984202689800,10.781689697265625,-0.07087912434339523,0.0009183889199746772,-0.025869185271859167
1738772984212682000,10.791681884765625,-0.06624269671440124,0.00186770955104148,-0.033197920724749565
1738772984222673000,10.8016728515625,-0.05829027640521526,-0.00716086807269603,-0.023204934498667715
1738772984232663800,10.811663818359374,-0.07846972560286522,-0.00041177283839788283,-0.03685527418851852
1738772984242655000,10.821655029296876,-0.04945464352071285,-0.010951967451348901,-0.04401566733717918
1738772984252646000,10.83164599609375,-0.0753162300080061,-0.016389002839545717,-0.026697452789545058
1738772984262636800,10.84163671875,-0.055823009508848186,0.004708878660562914,-0.02810556602180004
1738772984272629000,10.85162890625,-0.05844575922787189,-0.0119185634442023,-0.03629296413064003
1738772984282620000,10.861619873046875,-0.0681570059031248,-0.0075671907011303115,-0.03541968842744827
1738772984292610800,10.87161083984375,-0.0674386285007,-0.002101778601820115,-0.03387771968245506
1738772984302602000,10.88160205078125,-0.05964227553606033,0.007050324936886318,-0.034948563784360884
1738772984312593000,10.891593017578124,-0.07702303392589092,-0.005089706088136881,-0.03491407699286937
1738772984322583800,10.901583740234376,-0.07400164027810097,0.0055960047925938845,-0.03465805640518665
1738772984332574700,10.91157470703125,-0.060951604568958276,0.012452709136810153,-0.03650222296714783
1738772984342567000,10.92156689453125,-0.07545593073964119,-0.0017825931174331345,-0.04160568358600139
1738772984352557800,10.931557861328125,-0.07548632587790488,-0.008020998883235734,-0.03811784147024155
1738772984362548700,10.941548828125,-0.061437926781177515,-0.0006909345563617535,-0.03180792767107486
1738772984372540000,10.951539794921874,-0.06123977386057376,0.006853955264703836,-0.03547287991940975
1738772984382530800,10.96153076171875,-0.06822714852988719,-0.004397714369138703,-0.026264322069287298
1738772984392522000,10.97152197265625,-0.06760054106414318,0.0025875733743654563,-0.03199439015388489
1738772984402514000,10.981513916015626,-0.0563321280747652,0.004609183429041877,-0.025480478215217588
1738772984412504800,10.9915048828125,-0.06110708739161491,-0.0008935398897971026,-0.03552665593326092
1738772984422495700,11.001495849609375,-0.0604758037507534,0.0031127982582896947,-0.03961714011728763
1738772984432487000,11.01148681640625,-0.0638613545358181,0.011793169799132738,-0.033417116433382035
1738772984442477800,11.021477783203125,-0.06097147831320762,-0.0025462253005360254,-0.028847908821702
1738772984452469000,11.031468994140624,-0.0618874241143465,0.0030313761856872587,-0.03016775924861431
1738772984462460200,11.041460205078126,-0.06250643279552459,-0.0004779128601890988,-0.0410609091848135
1738772984472451800,11.051451904296876,-0.055288171979784966,0.003644094406685326,-0.0412654918462038
1738772984482442800,11.06144287109375,-0.0704097532659769,0.0010814317112904973,-0.04409457779228687
1738772984492434000,11.071433837890625,-0.06770575500428676,-0.0007942328173434362,-0.03812602477669716
1738772984502424800,11.0814248046875,-0.07025251687765122,-0.006463053967687301,-0.024654548785090446
1738772984512416000,11.091416015625,-0.06296586700081824,0.0007984797341981903,-0.029075287836790083
1738772984522407200,11.1014072265625,-0.06204524502456188,0.004130304737761616,-0.03988368209898471
1738772984532398000,11.111398193359374,-0.05647884306907654,0.00006288861877983435,-0.03499064936041832
1738772984542389800,11.1213896484375,-0.07246434770822524,0.008216418707347475,-0.03518003445267677
1738772984552381000,11.131380859375,-0.07411036134958267,0.007187267455854453,-0.04864741879105568
1738772984562372000,11.1413720703125,-0.06663724898993968,-0.000042453185527119785,-0.03860825533568859
1738772984572363000,11.151363037109375,-0.0715904874831438,0.004123808781604748,-0.01913081692755222
1738772984582354000,11.16135400390625,-0.05702829364538192,-0.004913223859935533,-0.0236935947984457
1738772984592345000,11.171344970703124,-0.06326221959888935,-0.005170710318919736,-0.04187748626470566
1738772984602336800,11.181336669921874,-0.06567454143762588,0.002575497060792986,-0.03586334054172039
1738772984612328000,11.191327880859374,-0.07104454403817653,-0.005346847770537715,-0.03169862207770347
1738772984622319000,11.201319091796876,-0.07534662514626979,-0.004795499781379476,-0.031605683097243306
1738772984632310000,11.21131005859375,-0.07444821500182151,-0.0014791143755428491,-0.042530981737375254
1738772984642301000,11.221301025390625,-0.07473813785910606,0.002972992495377548,-0.038355741879343985
1738772984652292000,11.2312919921875,-0.07184826163649559,-0.002081094290106557,-0.035733576682209965
1738772984662283000,11.241282958984375,-0.06610124241709708,-0.007206150252837687,-0.03447977722883224
1738772984672275000,11.25127490234375,-0.06858896757960319,0.00675998195449356,-0.038006197789311406
1738772984682266000,11.26126611328125,-0.07348375388383865,0.006485469012183603,-0.047349195674061775
1738772984692257000,11.271257080078126,-0.07809037089645862,0.002917031374305952,-0.03782148887217045
1738772984702248000,11.281248046875,-0.07112228544950484,-0.003125395161670167,-0.04737725272476673
1738772984712239000,11.291239013671875,-0.07113222232162952,0.010627356873173266,-0.030003508597612378
1738772984722230000,11.30122998046875,-0.05512859750390053,-0.004666946064843796,-0.03193886057436466
1738772984732221000,11.311220947265625,-0.06324176133275032,-0.00238106133408146,-0.029644612157344815
1738772984742213000,11.321213134765625,-0.053853170740604396,0.009316961544484366,-0.03646890521943569
1738772984752204000,11.3312041015625,-0.07149228780567646,0.003582429630612023,-0.027368483918905256
1738772984762195000,11.34119482421875,-0.06700432873666286,-0.004262479750066995,-0.038141806867718696
1738772984772186000,11.35118603515625,-0.0714905342400074,-0.006092435123585164,-0.05400806904137134
1738772984782177000,11.361177001953125,-0.06822656400799751,0.00045784503640606996,-0.03481178566217422
1738772984792168000,11.37116796875,-0.06497019256055354,0.006898134616436436,-0.035953356912732125
1738772984802160000,11.38116015625,-0.07243979778885841,-0.003654764214460738,-0.04405366126000881
1738772984812151000,11.391151123046875,-0.06073240886032581,-0.006963169526529964,-0.03812251764535904
1738772984822142000,11.401141845703124,-0.058793549752235406,0.0028807659009704363,-0.037215339672565455
1738772984832133000,11.411133056640624,-0.05684416925013065,0.006333762748923618,-0.0360240840613842
1738772984842124000,11.4211240234375,-0.06328852308392524,0.007263323800172656,-0.03286649681329727
1738772984852115000,11.431114990234375,-0.05908055000007152,-0.011125328423990867,-0.032444472008943556
1738772984862105900,11.44110595703125,-0.06206921042203903,-0.0009145803945371881,-0.0340980844348669
1738772984872098000,11.45109814453125,-0.05620762491226196,0.003471292839758098,-0.035033903980255125
1738772984882089000,11.4610888671875,-0.07027882036268711,-0.008352893152146134,-0.03921557357907295
1738772984892079900,11.471079833984374,-0.06371463954150676,0.006748391981399618,-0.05070668940842151
1738772984902071000,11.481071044921874,-0.06924772374927997,0.014903837749129161,-0.019737550649046896
1738772984912062000,11.49106201171875,-0.0661135173767805,-0.005893163391551934,-0.03289396934211254
1738772984922052900,11.501052978515625,-0.0667021309196949,0.0005631297584972344,-0.03186228820681572
1738772984932045000,11.511045166015625,-0.06337152519226073,-0.0013489121246151624,-0.0239899473965168
1738772984942036000,11.521035888671875,-0.05794482396841049,-0.0028454959414782933,-0.03691898707449436
1738772984952027000,11.53102685546875,-0.06273498085439205,0.008714319476217496,-0.04080722668468952
1738772984962018000,11.54101806640625,-0.07248422145247459,0.00022004965858068315,-0.03658347150981426
1738772984972009000,11.551009033203124,-0.06337444780170917,-0.0007675571562605909,-0.03116904524564743
1738772984981999900,11.560999755859376,-0.053339960521459576,-0.004117424706590827,-0.03776654381453991
1738772984991992000,11.570991943359376,-0.07684592379331588,-0.0030376209800946526,-0.029218495699763296
1738772985001983000,11.58098291015625,-0.06305296076238155,0.006534605383535381,-0.03629121056497097
1738772985011974000,11.590973876953125,-0.058715223819017406,-0.0025793055862304752,-0.03135083155333996
1738772985021965000,11.600965087890625,-0.05808627826571464,0.001973861922812648,-0.020322657060623167
1738772985031956000,11.6109560546875,-0.07456395033597946,0.010283155678538604,-0.031818449065089224
1738772985041947000,11.62094677734375,-0.0733551590681076,0.01031493448971305,-0.036325697356462475
1738772985051938000,11.63093798828125,-0.06777940476238727,0.0040498165302095,-0.027108956199884415
1738772985061930000,11.640929931640626,-0.0617523995578289,-0.00399049897484947,-0.03420563646256924
1738772985071921000,11.6509208984375,-0.07668576479554176,-0.0039990658737951885,-0.04098550586104393
1738772985081912000,11.660912109375,-0.062028293889760965,0.001011684093461372,-0.03139642426073551
1738772985091903000,11.670903076171875,-0.057098436272144316,-0.00047314078694907946,-0.03482639870941639
1738772985101894000,11.680893798828125,-0.06774608701467513,0.00429431564345723,-0.041973347854614255
1738772985111884800,11.690884765625,-0.06370061101615429,-0.000970845192996785,-0.04392565096616745
1738772985121877000,11.700876953125,-0.05974632043242454,0.005994198913499713,-0.04222644583284855
1738772985131868000,11.710867919921874,-0.06598959873616694,0.005457717416621744,-0.027774142110347746
1738772985141859000,11.720859130859376,-0.06420739149451256,-0.008180093868507538,-0.03089665804505348
1738772985151850000,11.73085009765625,-0.06195932030677795,0.0009006569004617631,-0.0412263288795948
1738772985161841700,11.740841552734375,-0.06163958683311939,0.006595069149788468,-0.04320259738862514
1738772985171832800,11.750832763671875,-0.07642097637951374,0.006159874336607754,-0.03576981703937054
1738772985181823700,11.76082373046875,-0.07359715113043784,0.005236786408629268,-0.03140226947963238
1738772985191816000,11.77081591796875,-0.07002163073122501,0.008748623604618477,-0.02539163088798523
1738772985201806800,11.780806884765624,-0.05221124875247478,0.010226141961407847,-0.031232173609733578
1738772985211797800,11.7907978515625,-0.07405716985762119,-0.008051690849021543,-0.041558921834826464
1738772985221788700,11.80078857421875,-0.07314239310026169,-0.0104259068837855,-0.040837037301063535
1738772985231779800,11.81077978515625,-0.06134791041016578,0.0016197672385373152,-0.029124972197413442
1738772985241770800,11.820770751953125,-0.07165420036911964,-0.0029491138628683984,-0.035737083813548086
1738772985251762700,11.8307626953125,-0.06297580387294292,0.0027916628454113376,-0.036484687310457224
1738772985261753900,11.84075390625,-0.05684066211879253,0.0015500287538627161,-0.031096564531326292
