time,seconds_elapsed,z,y,x
1738772973445974800,0.024974853515625,-0.8438262939453125,-0.002899169921875,-0.552734375
1738772973455965700,0.034965576171875,-0.84185791015625,-0.0024871826171875,-0.5533447265625
1738772973465958000,0.0449580078125,-0.84210205078125,-0.0035247802734375,-0.5529327392578125
1738772973475948800,0.05494873046875,-0.8415679931640625,-0.002899169921875,-0.55328369140625
1738772973485940000,0.06493994140625,-0.8429718017578125,-0.0032501220703125,-0.55194091796875
1738772973495931000,0.074930908203125,-0.841217041015625,-0.0031280517578125,-0.5529327392578125
1738772973505921800,0.084921875,-0.8437347412109375,-0.00244140625,-0.5523223876953125
1738772973515912700,0.09491259765625,-0.842681884765625,-0.003021240234375,-0.5536346435546875
1738772973525905000,0.10490478515625,-0.8411102294921875,-0.003326416015625,-0.5526580810546875
1738772973535895800,0.114895751953125,-0.8422088623046875,-0.004058837890625,-0.5520172119140625
1738772973545886700,0.12488671875,-0.84368896484375,-0.0024566650390625,-0.5547943115234375
1738772973555878000,0.1348779296875,-0.8428192138671875,-0.0034637451171875,-0.5529632568359375
1738772973565868800,0.144868896484375,-0.8420257568359375,-0.002777099609375,-0.5528717041015625
1738772973575859700,0.154859619140625,-0.84088134765625,-0.00335693359375,-0.554290771484375
1738772973585851000,0.164850830078125,-0.8411712646484375,-0.003326416015625,-0.552001953125
1738772973595842800,0.1748427734375,-0.8404541015625,-0.0029754638671875,-0.5524444580078125
1738772973605833700,0.184833740234375,-0.842498779296875,-0.001983642578125,-0.5525665283203125
1738772973615825000,0.194824951171875,-0.8421630859375,-0.00244140625,-0.5536651611328125
1738772973625815800,0.20481591796875,-0.842437744140625,-0.0033111572265625,-0.5522918701171875
1738772973635806700,0.214806640625,-0.8428802490234375,-0.0037078857421875,-0.5530853271484375
1738772973645798000,0.2247978515625,-0.8427581787109375,-0.0024261474609375,-0.553558349609375
1738772973655789800,0.234789794921875,-0.844024658203125,-0.003448486328125,-0.552581787109375
1738772973665780700,0.24478076171875,-0.842681884765625,-0.003204345703125,-0.5516815185546875
1738772973675772000,0.25477197265625,-0.8415374755859375,-0.003173828125,-0.55255126953125
1738772973685762800,0.2647626953125,-0.8433074951171875,-0.0027313232421875,-0.5535888671875
1738772973695753700,0.274753662109375,-0.8423919677734375,-0.0030975341796875,-0.5528411865234375
1738772973705744600,0.28474462890625,-0.843414306640625,-0.0029296875,-0.552978515625
1738772973715736800,0.29473681640625,-0.84326171875,-0.00299072265625,-0.553955078125
1738772973725727700,0.304727783203125,-0.8437957763671875,-0.002960205078125,-0.553985595703125
1738772973735719000,0.314718994140625,-0.8434906005859375,-0.0037994384765625,-0.55419921875
1738772973745709800,0.324709716796875,-0.84228515625,-0.003021240234375,-0.5535125732421875
1738772973755700700,0.33470068359375,-0.8438262939453125,-0.0017547607421875,-0.55316162109375
1738772973765691600,0.344691650390625,-0.843597412109375,-0.003631591796875,-0.554229736328125
1738772973775682800,0.354682861328125,-0.8415069580078125,-0.0030059814453125,-0.553466796875
1738772973785674800,0.3646748046875,-0.8413238525390625,-0.0024261474609375,-0.55291748046875
1738772973795666000,0.374666015625,-0.8421478271484375,-0.003387451171875,-0.55279541015625
1738772973805656800,0.38465673828125,-0.84320068359375,-0.004241943359375,-0.5528411865234375
1738772973815647700,0.394647705078125,-0.843475341796875,-0.002410888671875,-0.55181884765625
1738772973825638700,0.404638671875,-0.8424530029296875,-0.0038299560546875,-0.5525360107421875
1738772973835629800,0.4146298828125,-0.8423309326171875,-0.004638671875,-0.5526275634765625
1738772973845621800,0.424621826171875,-0.842132568359375,-0.003082275390625,-0.5515899658203125
1738772973855612700,0.43461279296875,-0.8416290283203125,-0.0023040771484375,-0.552032470703125
1738772973865603800,0.444603759765625,-0.843841552734375,-0.0034332275390625,-0.551849365234375
1738772973875594800,0.4545947265625,-0.8416900634765625,-0.0040130615234375,-0.552978515625
1738772973885585700,0.464585693359375,-0.8406524658203125,-0.0036468505859375,-0.552581787109375
1738772973895576800,0.474576904296875,-0.84320068359375,-0.0023956298828125,-0.5527191162109375
1738772973905568800,0.48456884765625,-0.8417510986328125,-0.0037689208984375,-0.55255126953125
1738772973915559700,0.4945595703125,-0.8424530029296875,-0.0043182373046875,-0.55291748046875
1738772973925550800,0.50455078125,-0.8422088623046875,-0.0035247802734375,-0.552581787109375
1738772973935541800,0.514541748046875,-0.8423004150390625,-0.003173828125,-0.552520751953125
1738772973945532700,0.52453271484375,-0.8431549072265625,-0.003662109375,-0.5521392822265625
1738772973955523800,0.53452392578125,-0.8431549072265625,-0.003448486328125,-0.55218505859375
1738772973965515000,0.544514892578125,-0.8416290283203125,-0.002685546875,-0.5532379150390625
1738772973975506700,0.554506591796875,-0.8428497314453125,-0.00335693359375,-0.5520172119140625
1738772973985497900,0.564497802734375,-0.84326171875,-0.0032806396484375,-0.5533599853515625
1738772973995488800,0.57448876953125,-0.84100341796875,-0.003875732421875,-0.5519866943359375
1738772974005480000,0.58447998046875,-0.8426513671875,-0.0027313232421875,-0.5518646240234375
1738772974015470800,0.594470947265625,-0.844696044921875,-0.0036468505859375,-0.5528411865234375
1738772974025462000,0.6044619140625,-0.8427886962890625,-0.0032806396484375,-0.55181884765625
1738772974035453700,0.61445361328125,-0.8431243896484375,-0.0018768310546875,-0.5514984130859375
1738772974045444900,0.62444482421875,-0.84271240234375,-0.00262451171875,-0.552978515625
1738772974055435800,0.634435791015625,-0.842041015625,-0.0033111572265625,-0.5529632568359375
1738772974065427000,0.644427001953125,-0.84173583984375,-0.0019989013671875,-0.5525054931640625
1738772974075417900,0.65441796875,-0.8415985107421875,-0.002288818359375,-0.5518951416015625
1738772974085409000,0.664408935546875,-0.8424224853515625,-0.00384521484375,-0.5529632568359375
1738772974095400700,0.674400634765625,-0.84271240234375,-0.00390625,-0.55316162109375
1738772974105391900,0.684391845703125,-0.8427886962890625,-0.0024871826171875,-0.5522918701171875
1738772974115382800,0.6943828125,-0.8425445556640625,-0.0027008056640625,-0.551666259765625
1738772974125374000,0.7043740234375,-0.8440399169921875,-0.0036163330078125,-0.5531768798828125
1738772974135364900,0.71436474609375,-0.84326171875,-0.0017547607421875,-0.55181884765625
1738772974145356500,0.7243564453125,-0.8428192138671875,-0.0028076171875,-0.5534210205078125
1738772974155348700,0.7343486328125,-0.8427734375,-0.00323486328125,-0.552734375
1738772974165339600,0.744339599609375,-0.842620849609375,-0.003143310546875,-0.5534210205078125
1738772974175330600,0.75433056640625,-0.8428497314453125,-0.0032806396484375,-0.5533447265625
1738772974185321700,0.76432177734375,-0.842376708984375,-0.0029144287109375,-0.5526275634765625
1738772974195312600,0.774312744140625,-0.84234619140625,-0.00274658203125,-0.5517120361328125
1738772974205303600,0.784303466796875,-0.8423614501953125,-0.003448486328125,-0.5531158447265625
1738772974215295700,0.794295654296875,-0.8429107666015625,-0.0036468505859375,-0.5538482666015625
1738772974225286700,0.80428662109375,-0.8423309326171875,-0.0031280517578125,-0.5514678955078125
1738772974235277600,0.814277587890625,-0.8418731689453125,-0.003204345703125,-0.55267333984375
1738772974245268700,0.824268798828125,-0.84405517578125,-0.004058837890625,-0.55291748046875
1738772974255259600,0.834259765625,-0.843109130859375,-0.0029449462890625,-0.55279541015625
1738772974265250600,0.84425048828125,-0.840972900390625,-0.0025634765625,-0.5525360107421875
1738772974275241700,0.85424169921875,-0.842071533203125,-0.002838134765625,-0.5518035888671875
1738772974285233700,0.864233642578125,-0.842315673828125,-0.002410888671875,-0.5525054931640625
1738772974295224600,0.874224609375,-0.843170166015625,-0.0032196044921875,-0.55218505859375
1738772974305215700,0.8842158203125,-0.843231201171875,-0.00299072265625,-0.5530853271484375
1738772974315206700,0.89420654296875,-0.842132568359375,-0.0026702880859375,-0.5522918701171875
1738772974325197800,0.90419775390625,-0.8438873291015625,-0.002471923828125,-0.5525360107421875
1738772974335188700,0.914188720703125,-0.8428802490234375,-0.002838134765625,-0.5540618896484375
1738772974345180700,0.9241806640625,-0.8430633544921875,-0.003082275390625,-0.551544189453125
1738772974355171600,0.934171630859375,-0.84246826171875,-0.0036773681640625,-0.5523223876953125
1738772974365162800,0.944162841796875,-0.843292236328125,-0.002899169921875,-0.55133056640625
1738772974375153700,0.954153564453125,-0.8428192138671875,-0.002838134765625,-0.5534210205078125
1738772974385144800,0.964144775390625,-0.841888427734375,-0.0025177001953125,-0.5526580810546875
1738772974395135700,0.9741357421875,-0.84332275390625,-0.003387451171875,-0.55377197265625
1738772974405127000,0.984126953125,-0.843048095703125,-0.002685546875,-0.552734375
1738772974415118600,0.99411865234375,-0.8428802490234375,-0.002899169921875,-0.552490234375
1738772974425109500,1.004109619140625,-0.8422088623046875,-0.003326416015625,-0.552581787109375
1738772974435100700,1.0141005859375,-0.8426361083984375,-0.00347900390625,-0.5533905029296875
1738772974445091800,1.024091796875,-0.8423919677734375,-0.0035247802734375,-0.5531005859375
1738772974455082800,1.034082763671875,-0.8426666259765625,-0.003173828125,-0.551361083984375
1738772974465074000,1.044073974609375,-0.842071533203125,-0.003692626953125,-0.5530548095703125
1738772974475065600,1.054065673828125,-0.8427276611328125,-0.00396728515625,-0.5514678955078125
1738772974485056500,1.064056396484375,-0.8432464599609375,-0.002197265625,-0.55267333984375
1738772974495047700,1.074047607421875,-0.8410797119140625,-0.00244140625,-0.55316162109375
1738772974505038800,1.084038818359375,-0.8421783447265625,-0.003662109375,-0.5526885986328125
1738772974515029800,1.09402978515625,-0.84222412109375,-0.002288818359375,-0.5535125732421875
1738772974525021000,1.10402099609375,-0.84320068359375,-0.002166748046875,-0.5520477294921875
1738772974535012600,1.1140126953125,-0.8417510986328125,-0.002716064453125,-0.5532684326171875
1738772974545003800,1.124003662109375,-0.841796875,-0.0023651123046875,-0.5523529052734375
1738772974554995000,1.133994873046875,-0.84375,-0.0023956298828125,-0.552459716796875
1738772974564985900,1.14398583984375,-0.8417205810546875,-0.0030517578125,-0.55322265625
1738772974574976800,1.153976806640625,-0.841461181640625,-0.0029296875,-0.5526580810546875
1738772974584968000,1.163968017578125,-0.842041015625,-0.003814697265625,-0.551605224609375
1738772974594959600,1.173959716796875,-0.842254638671875,-0.003082275390625,-0.5520782470703125
1738772974604950800,1.18395068359375,-0.8434906005859375,-0.00213623046875,-0.55242919921875
1738772974614942000,1.19394189453125,-0.842987060546875,-0.0023651123046875,-0.5526275634765625
1738772974624932900,1.203932861328125,-0.842498779296875,-0.00164794921875,-0.5540313720703125
1738772974634923800,1.213923828125,-0.842742919921875,-0.0029296875,-0.5535430908203125
1738772974644914700,1.223914794921875,-0.8424224853515625,-0.002349853515625,-0.551727294921875
1738772974654905900,1.23390576171875,-0.8426666259765625,-0.0025482177734375,-0.553375244140625
1738772974664897800,1.243897705078125,-0.84222412109375,-0.0038909912109375,-0.5531158447265625
1738772974674889000,1.253888916015625,-0.8421783447265625,-0.0028533935546875,-0.55218505859375
1738772974684880000,1.2638798828125,-0.8412017822265625,-0.00341796875,-0.5508880615234375
1738772974694870800,1.273870849609375,-0.8421783447265625,-0.002899169921875,-0.5523681640625
1738772974704861700,1.28386181640625,-0.8422698974609375,-0.003143310546875,-0.5515899658203125
1738772974714852900,1.293852783203125,-0.8411102294921875,-0.0025787353515625,-0.552581787109375
1738772974724844800,1.3038447265625,-0.8418121337890625,-0.0029449462890625,-0.550506591796875
1738772974734835700,1.313835693359375,-0.8432769775390625,-0.003021240234375,-0.5528564453125
1738772974744827000,1.323826904296875,-0.8435211181640625,-0.0037689208984375,-0.5512542724609375
1738772974754817800,1.33381787109375,-0.8418121337890625,-0.0023651123046875,-0.5513916015625
1738772974764808700,1.34380859375,-0.8419189453125,-0.0041046142578125,-0.552093505859375
1738772974774800000,1.3537998046875,-0.8425445556640625,-0.0026397705078125,-0.552978515625
1738772974784791800,1.363791748046875,-0.8422088623046875,-0.002166748046875,-0.552398681640625
1738772974794782700,1.37378271484375,-0.8413543701171875,-0.00384521484375,-0.554168701171875
1738772974804774000,1.38377392578125,-0.8428497314453125,-0.003204345703125,-0.5535736083984375
1738772974814764800,1.393764892578125,-0.84210205078125,-0.0037384033203125,-0.5522308349609375
1738772974824755700,1.403755615234375,-0.843475341796875,-0.0029144287109375,-0.5534820556640625
1738772974834747000,1.413746826171875,-0.8422698974609375,-0.0039520263671875,-0.5522308349609375
1738772974844738800,1.42373876953125,-0.8411407470703125,-0.0030975341796875,-0.5522308349609375
1738772974854729700,1.433729736328125,-0.8426361083984375,-0.0030975341796875,-0.552520751953125
1738772974864721000,1.443720947265625,-0.8433837890625,-0.0028076171875,-0.552642822265625
1738772974874711800,1.4537119140625,-0.8415985107421875,-0.0023651123046875,-0.5521240234375
1738772974884702700,1.46370263671875,-0.8426666259765625,-0.0025787353515625,-0.5517425537109375
1738772974894694000,1.47369384765625,-0.841217041015625,-0.002655029296875,-0.5536651611328125
1738772974904685800,1.483685791015625,-0.841766357421875,-0.00372314453125,-0.5522308349609375
1738772974914676700,1.4936767578125,-0.8416595458984375,-0.00323486328125,-0.55377197265625
1738772974924668000,1.50366796875,-0.8415374755859375,-0.0023651123046875,-0.5525665283203125
1738772974934658800,1.513658935546875,-0.841705322265625,-0.0027008056640625,-0.5517425537109375
1738772974944649700,1.523649658203125,-0.841827392578125,-0.0030364990234375,-0.5531463623046875
1738772974954640600,1.533640625,-0.8434906005859375,-0.0035552978515625,-0.553070068359375
1738772974964632800,1.5436328125,-0.840850830078125,-0.00274658203125,-0.5523529052734375
1738772974974623700,1.553623779296875,-0.8427581787109375,-0.004302978515625,-0.5518341064453125
1738772974984615000,1.563614990234375,-0.8433380126953125,-0.002777099609375,-0.5540618896484375
1738772974994605800,1.573605712890625,-0.8423919677734375,-0.0028839111328125,-0.553253173828125
1738772975004596700,1.5835966796875,-0.84259033203125,-0.0039215087890625,-0.5521697998046875
1738772975014587600,1.593587646484375,-0.8416595458984375,-0.0030670166015625,-0.5523223876953125
1738772975024579800,1.603579833984375,-0.8426055908203125,-0.002960205078125,-0.553924560546875
1738772975034570800,1.61357080078125,-0.8427734375,-0.0024871826171875,-0.55206298828125
1738772975044561700,1.623561767578125,-0.841766357421875,-0.0027618408203125,-0.55340576171875
1738772975054552800,1.633552734375,-0.8425445556640625,-0.0033111572265625,-0.553741455078125
1738772975064543700,1.643543701171875,-0.84259033203125,-0.0046539306640625,-0.5533447265625
1738772975074534700,1.65353466796875,-0.841949462890625,-0.002044677734375,-0.55291748046875
1738772975084525800,1.66352587890625,-0.84271240234375,-0.0036468505859375,-0.552764892578125
1738772975094517800,1.673517822265625,-0.841705322265625,-0.002593994140625,-0.552764892578125
1738772975104508700,1.6835087890625,-0.8413848876953125,-0.002227783203125,-0.5524139404296875
1738772975114499800,1.693499755859375,-0.8424224853515625,-0.003143310546875,-0.5540313720703125
1738772975124490800,1.70349072265625,-0.842559814453125,-0.0031280517578125,-0.5530242919921875
1738772975134481700,1.713481689453125,-0.8426513671875,-0.00323486328125,-0.552215576171875
1738772975144472800,1.723472900390625,-0.8434295654296875,-0.003173828125,-0.553009033203125
1738772975154463700,1.733463623046875,-0.84283447265625,-0.0057525634765625,-0.552215576171875
1738772975164454700,1.74345458984375,-0.8421173095703125,-0.00396728515625,-0.5528717041015625
1738772975174445600,1.753445556640625,-0.843994140625,-0.003875732421875,-0.5525665283203125
1738772975184436700,1.763436767578125,-0.8433380126953125,-0.00244140625,-0.553375244140625
1738772975194427600,1.773427734375,-0.842254638671875,-0.0035858154296875,-0.5521392822265625
1738772975204418600,1.78341845703125,-0.8404388427734375,-0.002471923828125,-0.55267333984375
1738772975214410800,1.79341064453125,-0.842681884765625,-0.001373291015625,-0.554168701171875
1738772975224401700,1.803401611328125,-0.8438262939453125,-0.0038299560546875,-0.552581787109375
1738772975234392600,1.813392578125,-0.843658447265625,-0.003662109375,-0.55291748046875
1738772975244383700,1.8233837890625,-0.843475341796875,-0.001190185546875,-0.5525054931640625
1738772975254374700,1.833374755859375,-0.842620849609375,-0.0026092529296875,-0.5516815185546875
1738772975264365600,1.843365478515625,-0.84173583984375,-0.003997802734375,-0.5521087646484375
1738772975274356500,1.8533564453125,-0.8422393798828125,-0.00360107421875,-0.552978515625
1738772975284348700,1.8633486328125,-0.84283447265625,-0.00335693359375,-0.552093505859375
1738772975294339600,1.873339599609375,-0.841796875,-0.0030975341796875,-0.55389404296875
1738772975304330500,1.88333056640625,-0.84234619140625,-0.00323486328125,-0.5525360107421875
1738772975314321700,1.89332177734375,-0.8429412841796875,-0.0019989013671875,-0.5521087646484375
1738772975324312600,1.9033125,-0.8428497314453125,-0.002349853515625,-0.5534515380859375
1738772975334303700,1.9133037109375,-0.8417205810546875,-0.0030364990234375,-0.5525360107421875
1738772975344295700,1.923295654296875,-0.8439178466796875,-0.0031890869140625,-0.5529937744140625
1738772975354286600,1.93328662109375,-0.8435516357421875,-0.00396728515625,-0.551727294921875
1738772975364277500,1.943277587890625,-0.8411865234375,-0.0040283203125,-0.552642822265625
1738772975374268700,1.9532685546875,-0.841522216796875,-0.0026702880859375,-0.5534515380859375
1738772975384259600,1.963259521484375,-0.841766357421875,-0.003021240234375,-0.553741455078125
1738772975394250800,1.973250732421875,-0.841705322265625,-0.0039825439453125,-0.5524749755859375
1738772975404242000,1.983241943359375,-0.8417816162109375,-0.004119873046875,-0.552947998046875
1738772975414233600,1.993233642578125,-0.8408355712890625,-0.0026397705078125,-0.553253173828125
1738772975424224500,2.003224609375,-0.8430633544921875,-0.003326416015625,-0.552398681640625
1738772975434215700,2.013215576171875,-0.842620849609375,-0.003631591796875,-0.5534820556640625
1738772975444206600,2.02320654296875,-0.841339111328125,-0.002227783203125,-0.55419921875
1738772975454197800,2.03319775390625,-0.8419189453125,-0.00238037109375,-0.5532073974609375
1738772975464188700,2.043188720703125,-0.8413848876953125,-0.0035247802734375,-0.5522918701171875
1738772975474180600,2.0531806640625,-0.843170166015625,-0.0042266845703125,-0.552154541015625
1738772975484171500,2.063171630859375,-0.8430938720703125,-0.00421142578125,-0.551971435546875
1738772975494162700,2.07316259765625,-0.8425140380859375,-0.00274658203125,-0.5528106689453125
1738772975504153900,2.08315380859375,-0.843658447265625,-0.0038909912109375,-0.5531463623046875
1738772975514144800,2.093144775390625,-0.8425750732421875,-0.003448486328125,-0.5541534423828125
1738772975524135700,2.1031357421875,-0.842529296875,-0.0037078857421875,-0.552337646484375
1738772975534126800,2.113126953125,-0.8416748046875,-0.0040435791015625,-0.5529937744140625
1738772975544118500,2.123118408203125,-0.842071533203125,-0.0023956298828125,-0.552398681640625
1738772975554109700,2.133109619140625,-0.8429718017578125,-0.0037841796875,-0.5537261962890625
1738772975564100900,2.143100830078125,-0.842803955078125,-0.004547119140625,-0.5532379150390625
1738772975574091800,2.153091796875,-0.841827392578125,-0.0037078857421875,-0.5515289306640625
1738772975584082700,2.163082763671875,-0.8419952392578125,-0.0034332275390625,-0.552032470703125
1738772975594073900,2.173073974609375,-0.8431243896484375,-0.00335693359375,-0.553192138671875
1738772975604065500,2.1830654296875,-0.8426666259765625,-0.0043182373046875,-0.5521087646484375
1738772975614056700,2.193056640625,-0.8416900634765625,-0.0023345947265625,-0.552490234375
1738772975624047900,2.2030478515625,-0.8425445556640625,-0.0034027099609375,-0.5530548095703125
1738772975634038800,2.213038818359375,-0.8426513671875,-0.0035858154296875,-0.5533447265625
1738772975644029700,2.22302978515625,-0.84210205078125,-0.003387451171875,-0.5525970458984375
1738772975654020900,2.233020751953125,-0.843292236328125,-0.003692626953125,-0.5538482666015625
1738772975664011800,2.24301171875,-0.841400146484375,-0.001678466796875,-0.5528106689453125
1738772975674003700,2.253003662109375,-0.8427276611328125,-0.00299072265625,-0.55267333984375
1738772975683995000,2.262994873046875,-0.84234619140625,-0.00384521484375,-0.55206298828125
1738772975693985800,2.27298583984375,-0.84228515625,-0.0032501220703125,-0.5520172119140625
1738772975703976700,2.282976806640625,-0.843475341796875,-0.003448486328125,-0.5523529052734375
1738772975713967900,2.2929677734375,-0.8433685302734375,-0.0033721923828125,-0.5518646240234375
1738772975723958800,2.302958740234375,-0.8427886962890625,-0.002197265625,-0.55218505859375
1738772975733950700,2.31295068359375,-0.842376708984375,-0.0027923583984375,-0.55206298828125
1738772975743942000,2.32294189453125,-0.841217041015625,-0.00286865234375,-0.551361083984375
1738772975753932800,2.332932861328125,-0.8415679931640625,-0.003021240234375,-0.5513458251953125
1738772975763923700,2.342923828125,-0.8431854248046875,-0.0031585693359375,-0.55230712890625
1738772975773914600,2.35291455078125,-0.84210205078125,-0.00213623046875,-0.5529632568359375
1738772975783905800,2.36290576171875,-0.8419647216796875,-0.00274658203125,-0.552825927734375
1738772975793896700,2.372896728515625,-0.841278076171875,-0.0031585693359375,-0.5520477294921875
1738772975803889000,2.382888916015625,-0.84234619140625,-0.001983642578125,-0.55316162109375
1738772975813879800,2.3928798828125,-0.8407135009765625,-0.0026702880859375,-0.551788330078125
1738772975823870700,2.40287060546875,-0.8427276611328125,-0.0026702880859375,-0.5520172119140625
1738772975833861600,2.412861572265625,-0.843048095703125,-0.0024261474609375,-0.5534820556640625
1738772975843852800,2.422852783203125,-0.8422393798828125,-0.0012359619140625,-0.55303955078125
1738772975853843700,2.43284375,-0.841400146484375,-0.0024566650390625,-0.55322265625
1738772975863834600,2.442834716796875,-0.841705322265625,-0.0037994384765625,-0.5527496337890625
1738772975873826800,2.452826904296875,-0.8439788818359375,-0.002960205078125,-0.5522918701171875
1738772975883817700,2.462817626953125,-0.8419647216796875,-0.0023345947265625,-0.552734375
1738772975893808600,2.47280859375,-0.84356689453125,-0.0038299560546875,-0.552703857421875
1738772975903799800,2.4827998046875,-0.8427734375,-0.00335693359375,-0.552276611328125
1738772975913790700,2.492790771484375,-0.8428497314453125,-0.0020599365234375,-0.5521697998046875
1738772975923781600,2.50278173828125,-0.8423309326171875,-0.0029296875,-0.5525665283203125
1738772975933773800,2.51277392578125,-0.84161376953125,-0.0030670166015625,-0.552032470703125
1738772975943764700,2.5227646484375,-0.8428955078125,-0.0029144287109375,-0.5529937744140625
1738772975953755600,2.532755615234375,-0.84283447265625,-0.0032501220703125,-0.5530242919921875
1738772975963746800,2.542746826171875,-0.8426361083984375,-0.0033111572265625,-0.5512542724609375
1738772975973737700,2.55273779296875,-0.8424224853515625,-0.0032806396484375,-0.552032470703125
1738772975983728600,2.562728759765625,-0.8425445556640625,-0.003204345703125,-0.553192138671875
1738772975993719600,2.572719482421875,-0.8417816162109375,-0.00201416015625,-0.5542144775390625
1738772976003711700,2.582711669921875,-0.8421630859375,-0.00341796875,-0.5523529052734375
1738772976013702700,2.59270263671875,-0.84271240234375,-0.00341796875,-0.5524749755859375
1738772976023693800,2.60269384765625,-0.8417205810546875,-0.002777099609375,-0.5536956787109375
1738772976033684700,2.612684814453125,-0.842529296875,-0.0031280517578125,-0.5526580810546875
1738772976043675600,2.622675537109375,-0.840789794921875,-0.0037384033203125,-0.55224609375
1738772976053666600,2.63266650390625,-0.843231201171875,-0.0037078857421875,-0.552001953125
1738772976063657700,2.64265771484375,-0.8429107666015625,-0.003997802734375,-0.5525054931640625
1738772976073649700,2.652649658203125,-0.8422393798828125,-0.0018310546875,-0.552886962890625
1738772976083640600,2.662640625,-0.8424072265625,-0.0023345947265625,-0.552032470703125
1738772976093631700,2.6726318359375,-0.8426361083984375,-0.0026092529296875,-0.553497314453125
1738772976103622700,2.68262255859375,-0.842681884765625,-0.0023193359375,-0.5529327392578125
1738772976113613600,2.692613525390625,-0.8433990478515625,-0.002685546875,-0.5531463623046875
1738772976123604700,2.702604736328125,-0.8416748046875,-0.002227783203125,-0.5541229248046875
1738772976133596700,2.7125966796875,-0.8426055908203125,-0.00274658203125,-0.553436279296875
1738772976143587600,2.722587646484375,-0.8427734375,-0.0029144287109375,-0.552093505859375
1738772976153579500,2.73257958984375,-0.8431854248046875,-0.002288818359375,-0.5523529052734375
1738772976163570700,2.74257080078125,-0.8426361083984375,-0.0036773681640625,-0.5528564453125
1738772976173561600,2.7525615234375,-0.8430633544921875,-0.0027008056640625,-0.5518646240234375
1738772976183552500,2.762552490234375,-0.84326171875,-0.00299072265625,-0.5522918701171875
1738772976193543700,2.772543701171875,-0.8424530029296875,-0.0037078857421875,-0.5526580810546875
1738772976203535600,2.78253564453125,-0.8421478271484375,-0.00299072265625,-0.5531005859375
1738772976213526500,2.792526611328125,-0.8419189453125,-0.002471923828125,-0.5520782470703125
1738772976223517700,2.802517578125,-0.84320068359375,-0.0031280517578125,-0.55218505859375
1738772976233508600,2.812508544921875,-0.842498779296875,-0.00274658203125,-0.5518951416015625
1738772976243499500,2.82249951171875,-0.841827392578125,-0.0046234130859375,-0.5520172119140625
1738772976253490700,2.83249072265625,-0.842742919921875,-0.001861572265625,-0.551666259765625
1738772976263481600,2.842481689453125,-0.8430938720703125,-0.0023651123046875,-0.55303955078125
1738772976273473500,2.8524736328125,-0.8424835205078125,-0.0030059814453125,-0.55316162109375
1738772976283464700,2.862464599609375,-0.84222412109375,-0.0032501220703125,-0.551422119140625
1738772976293455600,2.87245556640625,-0.8416748046875,-0.00341796875,-0.551605224609375
1738772976303446500,2.882446533203125,-0.84246826171875,-0.0038299560546875,-0.552642822265625
1738772976313437400,2.8924375,-0.84429931640625,-0.0039215087890625,-0.5525970458984375
1738772976323428600,2.9024287109375,-0.841796875,-0.0028076171875,-0.5526580810546875
1738772976333419500,2.91241943359375,-0.842071533203125,-0.0020599365234375,-0.5526580810546875
1738772976343411700,2.92241162109375,-0.8431396484375,-0.002044677734375,-0.552032470703125
1738772976353402600,2.932402587890625,-0.8437652587890625,-0.003265380859375,-0.5535430908203125
1738772976363393500,2.9423935546875,-0.84295654296875,-0.0036163330078125,-0.5525054931640625
1738772976373384400,2.952384521484375,-0.8420257568359375,-0.003387451171875,-0.5521697998046875
1738772976383375600,2.962375732421875,-0.843353271484375,-0.002838134765625,-0.553558349609375
1738772976393366500,2.972366455078125,-0.8434600830078125,-0.00360107421875,-0.5533905029296875
1738772976403357400,2.982357421875,-0.84307861328125,-0.0037689208984375,-0.5521392822265625
1738772976413349600,2.992349609375,-0.841796875,-0.002777099609375,-0.5522308349609375
1738772976423340500,3.002340576171875,-0.8422393798828125,-0.002410888671875,-0.5521392822265625
1738772976433331500,3.01233154296875,-0.84210205078125,-0.002593994140625,-0.553192138671875
1738772976443322600,3.022322509765625,-0.84246826171875,-0.0025177001953125,-0.55322265625
1738772976453313500,3.0323134765625,-0.8426971435546875,-0.0018463134765625,-0.5530853271484375
1738772976463304400,3.042304443359375,-0.8426055908203125,-0.00286865234375,-0.5522003173828125
1738772976473295600,3.052295654296875,-0.8442535400390625,-0.003326416015625,-0.5528717041015625
1738772976483287600,3.06228759765625,-0.8445587158203125,-0.0027618408203125,-0.5522918701171875
1738772976493278500,3.072278564453125,-0.84149169921875,-0.0025482177734375,-0.55181884765625
1738772976503269600,3.08226953125,-0.84161376953125,-0.0033111572265625,-0.552703857421875
1738772976513260500,3.092260498046875,-0.8428955078125,-0.0026702880859375,-0.5538330078125
1738772976523251500,3.10225146484375,-0.8426361083984375,-0.0032806396484375,-0.552520751953125
1738772976533242400,3.112242431640625,-0.8401336669921875,-0.003814697265625,-0.5518951416015625
1738772976543233500,3.122233642578125,-0.8415985107421875,-0.001983642578125,-0.5536041259765625
1738772976553225500,3.1322255859375,-0.8426361083984375,-0.00384521484375,-0.5524749755859375
1738772976563216600,3.142216552734375,-0.8419952392578125,-0.002838134765625,-0.5526275634765625
1738772976573207600,3.15220751953125,-0.8421478271484375,-0.00262451171875,-0.55291748046875
1738772976583198500,3.162198486328125,-0.8441314697265625,-0.00341796875,-0.551727294921875
1738772976593189400,3.172189453125,-0.8426055908203125,-0.00360107421875,-0.552642822265625
1738772976603180500,3.1821806640625,-0.842742919921875,-0.001922607421875,-0.55279541015625
1738772976613171500,3.19217138671875,-0.8421478271484375,-0.0034637451171875,-0.5523834228515625
1738772976623163400,3.202163330078125,-0.8412628173828125,-0.00262451171875,-0.5523223876953125
1738772976633154600,3.212154541015625,-0.84271240234375,-0.003204345703125,-0.5539093017578125
1738772976643145500,3.2221455078125,-0.84381103515625,-0.0037078857421875,-0.5540008544921875
1738772976653136400,3.232136474609375,-0.843414306640625,-0.0041046142578125,-0.5528106689453125
1738772976663127600,3.24212744140625,-0.842254638671875,-0.0030364990234375,-0.5509185791015625
1738772976673118500,3.252118408203125,-0.8438720703125,-0.0023193359375,-0.55279541015625
1738772976683109600,3.262109619140625,-0.84332275390625,-0.0026092529296875,-0.5529632568359375
1738772976693101600,3.2721015625,-0.8427581787109375,-0.0027923583984375,-0.5521240234375
1738772976703092500,3.282092529296875,-0.8416748046875,-0.0037384033203125,-0.551513671875
1738772976713083400,3.29208349609375,-0.842315673828125,-0.0026702880859375,-0.551666259765625
1738772976723074600,3.302074462890625,-0.8426361083984375,-0.0027923583984375,-0.552459716796875
1738772976733065700,3.312065673828125,-0.843353271484375,-0.003326416015625,-0.55218505859375
1738772976743056600,3.322056640625,-0.843048095703125,-0.002197265625,-0.5523223876953125
1738772976753047600,3.332047607421875,-0.843475341796875,-0.00323486328125,-0.5531158447265625
1738772976763039500,3.34203955078125,-0.842681884765625,-0.0029296875,-0.553985595703125
1738772976773030400,3.352030517578125,-0.842437744140625,-0.0034332275390625,-0.553741455078125
1738772976783021600,3.362021484375,-0.8422393798828125,-0.0034942626953125,-0.5516815185546875
1738772976793012700,3.3720126953125,-0.84246826171875,-0.0019073486328125,-0.5531005859375
1738772976803003600,3.382003662109375,-0.841888427734375,-0.0035400390625,-0.55303955078125
1738772976812994600,3.39199462890625,-0.8427581787109375,-0.002410888671875,-0.551910400390625
1738772976822985700,3.40198583984375,-0.84234619140625,-0.002227783203125,-0.553009033203125
1738772976832977400,3.411977294921875,-0.84271240234375,-0.003204345703125,-0.5518035888671875
1738772976842968600,3.421968505859375,-0.843231201171875,-0.0028076171875,-0.5532073974609375
1738772976852959700,3.431959716796875,-0.8424224853515625,-0.0029449462890625,-0.5522003173828125
1738772976862950700,3.44195068359375,-0.8420562744140625,-0.0032196044921875,-0.552581787109375
1738772976872941600,3.451941650390625,-0.8426055908203125,-0.002532958984375,-0.5533447265625
1738772976882932700,3.4619326171875,-0.8431243896484375,-0.0026702880859375,-0.55267333984375
1738772976892923600,3.471923583984375,-0.8427581787109375,-0.0023956298828125,-0.5534820556640625
1738772976902915600,3.48191552734375,-0.8431243896484375,-0.0031585693359375,-0.5514068603515625
1738772976912906800,3.49190673828125,-0.842987060546875,-0.003997802734375,-0.5525054931640625
1738772976922897700,3.501897705078125,-0.8416290283203125,-0.0035247802734375,-0.55255126953125
1738772976932888600,3.511888671875,-0.842010498046875,-0.00250244140625,-0.554534912109375
1738772976942879700,3.521879638671875,-0.843505859375,-0.0024261474609375,-0.55169677734375
1738772976952870700,3.53187060546875,-0.843109130859375,-0.0026397705078125,-0.5527801513671875
1738772976962861600,3.541861572265625,-0.8418121337890625,-0.0035552978515625,-0.552886962890625
1738772976972853800,3.551853759765625,-0.843109130859375,-0.002960205078125,-0.5519256591796875
1738772976982844700,3.5618447265625,-0.8425140380859375,-0.0034637451171875,-0.5530548095703125
1738772976992835600,3.571835693359375,-0.842498779296875,-0.002960205078125,-0.5526580810546875
1738772977002826500,3.581826416015625,-0.841888427734375,-0.003021240234375,-0.5519561767578125
1738772977012817700,3.591817626953125,-0.8430938720703125,-0.003662109375,-0.552337646484375
1738772977022808600,3.60180859375,-0.8431854248046875,-0.002349853515625,-0.552886962890625
1738772977032799500,3.611799560546875,-0.843505859375,-0.0034332275390625,-0.5522918701171875
1738772977042791700,3.621791748046875,-0.840179443359375,-0.0032196044921875,-0.5524139404296875
1738772977052782600,3.631782470703125,-0.8425445556640625,-0.00390625,-0.55230712890625
1738772977062773500,3.6417734375,-0.8447418212890625,-0.00421142578125,-0.55279541015625
1738772977072764700,3.6517646484375,-0.843109130859375,-0.001922607421875,-0.5525054931640625
1738772977082755600,3.661755615234375,-0.8419952392578125,-0.003265380859375,-0.553497314453125
1738772977092746500,3.67174658203125,-0.8414154052734375,-0.0032806396484375,-0.552276611328125
1738772977102737700,3.681737548828125,-0.8408660888671875,-0.0034637451171875,-0.5513458251953125
1738772977112729600,3.6917294921875,-0.8426513671875,-0.0027923583984375,-0.553070068359375
1738772977122720500,3.701720458984375,-0.8441009521484375,-0.0024566650390625,-0.5520782470703125
1738772977132711700,3.711711669921875,-0.8421630859375,-0.0025177001953125,-0.5537261962890625
1738772977142702600,3.72170263671875,-0.8425750732421875,-0.0030975341796875,-0.5523834228515625
1738772977152693500,3.731693603515625,-0.8423919677734375,-0.0023345947265625,-0.5523681640625
1738772977162684400,3.741684326171875,-0.843658447265625,-0.0025787353515625,-0.5526275634765625
1738772977172675300,3.75167529296875,-0.843231201171875,-0.002593994140625,-0.552215576171875
1738772977182667500,3.76166748046875,-0.8425750732421875,-0.0034637451171875,-0.552978515625
1738772977192658400,3.771658447265625,-0.8425445556640625,-0.002471923828125,-0.55230712890625
1738772977202649300,3.7816494140625,-0.8430023193359375,-0.002105712890625,-0.553070068359375
1738772977212640500,3.791640625,-0.843994140625,-0.0017852783203125,-0.5520172119140625
1738772977222631400,3.80163134765625,-0.8435821533203125,-0.0044403076171875,-0.5527801513671875
1738772977232622300,3.811622314453125,-0.8415679931640625,-0.0032501220703125,-0.5518798828125
1738772977242613500,3.821613525390625,-0.842926025390625,-0.00286865234375,-0.5531005859375
1738772977252604400,3.8316044921875,-0.843902587890625,-0.0027313232421875,-0.553497314453125
1738772977262596400,3.841596435546875,-0.8429412841796875,-0.0040283203125,-0.553436279296875
1738772977272587500,3.85158740234375,-0.84259033203125,-0.0033111572265625,-0.55255126953125
1738772977282578400,3.861578369140625,-0.842437744140625,-0.002532958984375,-0.552734375
1738772977292569300,3.8715693359375,-0.8421173095703125,-0.002899169921875,-0.55120849609375
1738772977302560300,3.881560302734375,-0.8427276611328125,-0.00335693359375,-0.5526885986328125
1738772977312551400,3.891551513671875,-0.84320068359375,-0.0034027099609375,-0.5520782470703125
1738772977322542300,3.901542236328125,-0.842559814453125,-0.002197265625,-0.5525360107421875
1738772977332534500,3.911534423828125,-0.8425140380859375,-0.002685546875,-0.552947998046875
1738772977342525400,3.921525390625,-0.8428497314453125,-0.00360107421875,-0.5516815185546875
1738772977352516400,3.931516357421875,-0.8424224853515625,-0.0029296875,-0.5519866943359375
1738772977366878500,3.94587841796875,-0.8421783447265625,-0.0027923583984375,-0.5539703369140625
1738772977376869400,3.955869384765625,-0.8430633544921875,-0.00335693359375,-0.5514984130859375
1738772977386860300,3.9658603515625,-0.84259033203125,-0.0023956298828125,-0.5528717041015625
1738772977396851500,3.9758515625,-0.84307861328125,-0.0033721923828125,-0.553375244140625
1738772977406843400,3.985843505859375,-0.84210205078125,-0.00323486328125,-0.5526275634765625
1738772977416834300,3.995834228515625,-0.8429107666015625,-0.002532958984375,-0.5528564453125
1738772977426825500,4.005825439453125,-0.8426666259765625,-0.0028076171875,-0.5519561767578125
1738772977436816400,4.01581640625,-0.8420867919921875,-0.003753662109375,-0.553741455078125
1738772977446807300,4.025807373046875,-0.8419647216796875,-0.00335693359375,-0.552734375
1738772977456798500,4.035798583984375,-0.8433380126953125,-0.001983642578125,-0.5526580810546875
1738772977466789400,4.045789306640625,-0.842315673828125,-0.0022125244140625,-0.551910400390625
1738772977476781300,4.05578125,-0.8407135009765625,-0.0032501220703125,-0.551910400390625
1738772977486772500,4.0657724609375,-0.843505859375,-0.0029296875,-0.5545501708984375
1738772977496763400,4.075763427734375,-0.8436279296875,-0.0033416748046875,-0.5517120361328125
1738772977506754300,4.08575439453125,-0.8417510986328125,-0.002899169921875,-0.55194091796875
1738772977516745200,4.0957451171875,-0.841278076171875,-0.0023193359375,-0.5529022216796875
1738772977526736400,4.105736328125,-0.843505859375,-0.00421142578125,-0.553558349609375
1738772977536727600,4.1157275390625,-0.844146728515625,-0.0027618408203125,-0.5526580810546875
1738772977546719500,4.125719482421875,-0.8414764404296875,-0.004058837890625,-0.552154541015625
1738772977556710400,4.13571044921875,-0.8422088623046875,-0.002410888671875,-0.5517730712890625
1738772977566701300,4.145701416015625,-0.8428497314453125,-0.0027618408203125,-0.5530853271484375
1738772977576692200,4.155692138671875,-0.8426361083984375,-0.0036468505859375,-0.5517578125
1738772977586683400,4.165683349609375,-0.8424835205078125,-0.002716064453125,-0.552947998046875
1738772977596674600,4.175674560546875,-0.84307861328125,-0.00311279296875,-0.5544281005859375
1738772977606665500,4.18566552734375,-0.8446197509765625,-0.0037384033203125,-0.5523681640625
1738772977616656600,4.19565673828125,-0.8431396484375,-0.0037841796875,-0.5517578125
1738772977626648300,4.2056484375,-0.842559814453125,-0.0034942626953125,-0.5518646240234375
1738772977636639200,4.21563916015625,-0.842926025390625,-0.0040740966796875,-0.5512542724609375
1738772977646630400,4.22563037109375,-0.843292236328125,-0.0034332275390625,-0.551605224609375
1738772977656621600,4.23562158203125,-0.843658447265625,-0.004150390625,-0.550933837890625
1738772977666612500,4.245612548828125,-0.8432769775390625,-0.00262451171875,-0.550811767578125
1738772977676603600,4.255603759765625,-0.84307861328125,-0.003692626953125,-0.55230712890625
1738772977686594600,4.265594482421875,-0.8425140380859375,-0.00311279296875,-0.5526885986328125
1738772977696586500,4.27558642578125,-0.8432769775390625,-0.00323486328125,-0.5511322021484375
1738772977706577700,4.28557763671875,-0.8433074951171875,-0.0030059814453125,-0.55303955078125
1738772977717193500,4.296193359375,-0.8420562744140625,-0.002197265625,-0.5515594482421875
1738772977727184600,4.3061845703125,-0.841766357421875,-0.00213623046875,-0.552520751953125
1738772977737175600,4.316175537109375,-0.84222412109375,-0.0026702880859375,-0.5536346435546875
1738772977747166500,4.32616650390625,-0.8425140380859375,-0.0036163330078125,-0.5526123046875
1738772977757157400,4.336157470703125,-0.8422698974609375,-0.004364013671875,-0.5538330078125
1738772977767148500,4.3461484375,-0.8444061279296875,-0.002593994140625,-0.5528106689453125
1738772977777140500,4.356140380859375,-0.8414764404296875,-0.0027008056640625,-0.5525665283203125
1738772977787131600,4.366131591796875,-0.841522216796875,-0.0024261474609375,-0.5527191162109375
1738772977797122600,4.37612255859375,-0.8422698974609375,-0.0040435791015625,-0.551910400390625
1738772977807113500,4.386113525390625,-0.842864990234375,-0.0038299560546875,-0.55224609375
1738772977817104400,4.3961044921875,-0.8424072265625,-0.0039520263671875,-0.5528411865234375
1738772977827095600,4.406095458984375,-0.841705322265625,-0.0040283203125,-0.55255126953125
1738772977837086500,4.41608642578125,-0.8435211181640625,-0.0021514892578125,-0.5523681640625
1738772977847078700,4.42607861328125,-0.843841552734375,-0.002105712890625,-0.553619384765625
1738772977857069600,4.436069580078125,-0.841522216796875,-0.0032501220703125,-0.552581787109375
1738772977867060500,4.446060546875,-0.8425140380859375,-0.003173828125,-0.5532073974609375
1738772977877051400,4.456051513671875,-0.8424835205078125,-0.003875732421875,-0.5524444580078125
1738772977887042600,4.46604248046875,-0.8417816162109375,-0.0018768310546875,-0.5519866943359375
1738772977897033500,4.476033447265625,-0.8416290283203125,-0.0035247802734375,-0.55426025390625
1738772977907024400,4.4860244140625,-0.8424224853515625,-0.0029449462890625,-0.55316162109375
1738772977917015600,4.496015625,-0.842620849609375,-0.002227783203125,-0.5520477294921875
1738772977927007500,4.506007568359375,-0.8421783447265625,-0.00372314453125,-0.5527496337890625
1738772977936998400,4.515998291015625,-0.8430328369140625,-0.0037384033203125,-0.552490234375
1738772977946989600,4.525989501953125,-0.8414764404296875,-0.00323486328125,-0.5523223876953125
1738772977956980500,4.53598046875,-0.8428192138671875,-0.002655029296875,-0.552490234375
1738772977966971400,4.545971435546875,-0.8426971435546875,-0.003082275390625,-0.552520751953125
1738772977976962300,4.55596240234375,-0.842987060546875,-0.003448486328125,-0.552581787109375
1738772977986953500,4.565953369140625,-0.8428955078125,-0.0020599365234375,-0.5536956787109375
1738772977996945400,4.5759453125,-0.843414306640625,-0.0030059814453125,-0.5530853271484375
1738772978006936600,4.5859365234375,-0.8438568115234375,-0.0038909912109375,-0.5526123046875
1738772978016927500,4.595927490234375,-0.8417816162109375,-0.0025634765625,-0.5523834228515625
1738772978026918400,4.60591845703125,-0.843048095703125,-0.0018768310546875,-0.551361083984375
1738772978036909300,4.615909423828125,-0.842987060546875,-0.003753662109375,-0.552520751953125
1738772978046900500,4.625900390625,-0.8430633544921875,-0.0027313232421875,-0.5527801513671875
1738772978056892400,4.635892333984375,-0.842193603515625,-0.0038909912109375,-0.5529632568359375
1738772978066883300,4.64588330078125,-0.8430328369140625,-0.00457763671875,-0.5518035888671875
1738772978076874500,4.65587451171875,-0.84423828125,-0.003570556640625,-0.5531158447265625
1738772978086865400,4.665865478515625,-0.8419189453125,-0.0039520263671875,-0.55352783203125
1738772978096856300,4.675856201171875,-0.8433837890625,-0.00311279296875,-0.5522613525390625
1738772978106847500,4.685847412109375,-0.8433685302734375,-0.0027618408203125,-0.552459716796875
1738772978116838400,4.69583837890625,-0.84393310546875,-0.0024566650390625,-0.5525665283203125
1738772978126829300,4.705829345703125,-0.841766357421875,-0.00250244140625,-0.5531158447265625
1738772978136821500,4.715821533203125,-0.8417510986328125,-0.00469970703125,-0.553009033203125
1738772978146812400,4.7258125,-0.8438568115234375,-0.0037384033203125,-0.5515289306640625
1738772978156802600,4.735802490234375,-0.8421630859375,-0.002532958984375,-0.552337646484375
1738772978166793500,4.74579345703125,-0.843902587890625,-0.0029449462890625,-0.551971435546875
1738772978176784600,4.75578466796875,-0.8441925048828125,-0.0023956298828125,-0.552215576171875
1738772978186775800,4.76577587890625,-0.842498779296875,-0.004180908203125,-0.5531005859375
1738772978196766700,4.7757666015625,-0.8431854248046875,-0.00201416015625,-0.551727294921875
1738772978206758700,4.785758544921875,-0.8422698974609375,-0.0029296875,-0.5520172119140625
1738772978216749600,4.79574951171875,-0.8423309326171875,-0.0028076171875,-0.552886962890625
1738772978226740500,4.805740478515625,-0.842315673828125,-0.003143310546875,-0.55322265625
1738772978236731600,4.815731689453125,-0.841705322265625,-0.0036468505859375,-0.5523834228515625
1738772978246722800,4.825722900390625,-0.8420562744140625,-0.0029144287109375,-0.5531158447265625
1738772978256713700,4.835713623046875,-0.8427581787109375,-0.0033111572265625,-0.5550079345703125
1738772978266705000,4.845704833984375,-0.842437744140625,-0.0036773681640625,-0.5529327392578125
1738772978276696600,4.855696533203125,-0.8427734375,-0.0025787353515625,-0.5518951416015625
1738772978286687500,4.8656875,-0.8426055908203125,-0.0023651123046875,-0.552032470703125
1738772978296678700,4.8756787109375,-0.8426055908203125,-0.002777099609375,-0.5527496337890625
1738772978306669800,4.885669921875,-0.8419036865234375,-0.003692626953125,-0.551513671875
1738772978316660700,4.89566064453125,-0.842620849609375,-0.002777099609375,-0.5510711669921875
1738772978326652000,4.90565185546875,-0.8421173095703125,-0.0029296875,-0.5524749755859375
1738772978336642800,4.915642822265625,-0.84295654296875,-0.0027923583984375,-0.552276611328125
1738772978346634800,4.925634765625,-0.8416748046875,-0.002349853515625,-0.5516204833984375
1738772978356626000,4.9356259765625,-0.8420867919921875,-0.002532958984375,-0.5531158447265625
1738772978366616800,4.945616943359375,-0.8437652587890625,-0.002197265625,-0.552642822265625
1738772978376607700,4.955607666015625,-0.841522216796875,-0.0034942626953125,-0.55224609375
1738772978386598700,4.9655986328125,-0.8428802490234375,-0.0037841796875,-0.550445556640625
1738772978396589800,4.97558984375,-0.8446197509765625,-0.0023651123046875,-0.5522918701171875
1738772978406580700,4.985580810546875,-0.8427276611328125,-0.0030059814453125,-0.5526123046875
1738772978416573000,4.995572998046875,-0.8427734375,-0.00274658203125,-0.552337646484375
1738772978426563800,5.005563720703125,-0.8440704345703125,-0.0027008056640625,-0.5534820556640625
1738772978436554800,5.0155546875,-0.8421478271484375,-0.0020599365234375,-0.552734375
1738772978446545700,5.025545654296875,-0.843048095703125,-0.0023956298828125,-0.551666259765625
1738772978456536800,5.035536865234375,-0.84228515625,-0.0032196044921875,-0.55279541015625
1738772978466527700,5.04552783203125,-0.84283447265625,-0.003631591796875,-0.55328369140625
1738772978476518700,5.0555185546875,-0.8427581787109375,-0.0035247802734375,-0.55328369140625
1738772978486510800,5.0655107421875,-0.8428497314453125,-0.003448486328125,-0.5529937744140625
1738772978496501800,5.075501708984375,-0.8421783447265625,-0.0027313232421875,-0.5513458251953125
1738772978506492700,5.08549267578125,-0.8430633544921875,-0.0020294189453125,-0.552215576171875
1738772978516483800,5.09548388671875,-0.8417205810546875,-0.00244140625,-0.55255126953125
1738772978526474800,5.105474853515625,-0.84271240234375,-0.002471923828125,-0.552734375
1738772978536465700,5.115465576171875,-0.843109130859375,-0.00408935546875,-0.5534210205078125
1738772978546456800,5.125456787109375,-0.8416900634765625,-0.003326416015625,-0.5535125732421875
1738772978556448800,5.13544873046875,-0.841796875,-0.0035400390625,-0.55194091796875
1738772978566439700,5.145439697265625,-0.841705322265625,-0.0032196044921875,-0.5525970458984375
1738772978576430800,5.155430908203125,-0.8436431884765625,-0.003265380859375,-0.5523223876953125
1738772978586421800,5.165421875,-0.8437652587890625,-0.0030517578125,-0.552825927734375
1738772978596412700,5.17541259765625,-0.8415985107421875,-0.003692626953125,-0.5528411865234375
1738772978606403600,5.185403564453125,-0.8420867919921875,-0.00433349609375,-0.552581787109375
1738772978616394800,5.195394775390625,-0.8433685302734375,-0.003082275390625,-0.5533905029296875
1738772978626386700,5.20538671875,-0.8428955078125,-0.0028076171875,-0.5525970458984375
1738772978636377900,5.2153779296875,-0.8426971435546875,-0.002838134765625,-0.5520172119140625
1738772978646368800,5.22536865234375,-0.843719482421875,-0.0035552978515625,-0.5524444580078125
1738772978656359700,5.235359619140625,-0.842926025390625,-0.0048065185546875,-0.5523223876953125
1738772978666350600,5.2453505859375,-0.841949462890625,-0.0027618408203125,-0.5522308349609375
1738772978676341800,5.255341796875,-0.84295654296875,-0.0033721923828125,-0.5528564453125
1738772978686332700,5.265332763671875,-0.842742919921875,-0.0024871826171875,-0.5525054931640625
1738772978696323600,5.275323486328125,-0.8430938720703125,-0.00299072265625,-0.5527801513671875
1738772978706315800,5.285315673828125,-0.843475341796875,-0.0026092529296875,-0.5525970458984375
1738772978716306700,5.295306640625,-0.8431396484375,-0.0023040771484375,-0.552703857421875
1738772978726297600,5.305297607421875,-0.8427886962890625,-0.0031280517578125,-0.55255126953125
1738772978736288800,5.315288818359375,-0.8407745361328125,-0.0041351318359375,-0.55157470703125
1738772978746279700,5.32527978515625,-0.843170166015625,-0.0029754638671875,-0.552398681640625
1738772978756270600,5.3352705078125,-0.8419952392578125,-0.0025177001953125,-0.55291748046875
1738772978766261500,5.345261474609375,-0.841644287109375,-0.0034942626953125,-0.551544189453125
1738772978776253700,5.355253662109375,-0.841339111328125,-0.0033111572265625,-0.5510101318359375
1738772978786244600,5.36524462890625,-0.84283447265625,-0.0024261474609375,-0.5535736083984375
1738772978796235800,5.37523583984375,-0.8424530029296875,-0.0033111572265625,-0.5516815185546875
1738772978806226700,5.385226806640625,-0.8419952392578125,-0.00244140625,-0.5522918701171875
1738772978816217600,5.395217529296875,-0.8425750732421875,-0.002960205078125,-0.551513671875
1738772978826208500,5.40520849609375,-0.843841552734375,-0.002349853515625,-0.55218505859375
1738772978836199700,5.41519970703125,-0.8423614501953125,-0.0022430419921875,-0.551055908203125
1738772978846191600,5.425191650390625,-0.8424530029296875,-0.0030670166015625,-0.552215576171875
1738772978856182500,5.4351826171875,-0.843292236328125,-0.002685546875,-0.5529937744140625
1738772978866173700,5.445173583984375,-0.8421783447265625,-0.002777099609375,-0.5521697998046875
1738772978876164600,5.45516455078125,-0.8424072265625,-0.0037384033203125,-0.552459716796875
1738772978886155500,5.465155517578125,-0.843353271484375,-0.003509521484375,-0.5515289306640625
1738772978896146700,5.475146728515625,-0.8426666259765625,-0.00201416015625,-0.5525054931640625
1738772978906137600,5.4851376953125,-0.8428497314453125,-0.003662109375,-0.550994873046875
1738772978916128500,5.49512841796875,-0.8428497314453125,-0.0032958984375,-0.55194091796875
1738772978926120700,5.50512060546875,-0.8440093994140625,-0.0036773681640625,-0.551055908203125
1738772978936111600,5.515111572265625,-0.842529296875,-0.0031280517578125,-0.5526123046875
1738772978946102500,5.5251025390625,-0.8424072265625,-0.00286865234375,-0.553558349609375
1738772978956093700,5.53509375,-0.8420562744140625,-0.002685546875,-0.5529937744140625
1738772978966084600,5.545084716796875,-0.842193603515625,-0.0037994384765625,-0.5515594482421875
1738772978976075800,5.55507568359375,-0.841949462890625,-0.003204345703125,-0.5535736083984375
1738772978986066700,5.565066650390625,-0.8434295654296875,-0.002777099609375,-0.55169677734375
1738772978996058600,5.57505859375,-0.842193603515625,-0.0025634765625,-0.5523223876953125
1738772979006049500,5.585049560546875,-0.8422393798828125,-0.0022735595703125,-0.55194091796875
1738772979016040700,5.595040771484375,-0.842559814453125,-0.00347900390625,-0.5521240234375
1738772979026031600,5.605031494140625,-0.841583251953125,-0.0036163330078125,-0.552886962890625
1738772979036022800,5.615022705078125,-0.842041015625,-0.0023956298828125,-0.55133056640625
1738772979046013700,5.625013671875,-0.84228515625,-0.002899169921875,-0.5527801513671875
1738772979056004900,5.6350048828125,-0.842620849609375,-0.002960205078125,-0.553466796875
1738772979065996500,5.64499658203125,-0.8421783447265625,-0.003143310546875,-0.5523529052734375
1738772979075987500,5.654987548828125,-0.843475341796875,-0.0032196044921875,-0.551910400390625
1738772979085978600,5.664978515625,-0.8430633544921875,-0.00335693359375,-0.55316162109375
1738772979095969800,5.6749697265625,-0.843353271484375,-0.0022430419921875,-0.553863525390625
1738772979105960700,5.684960693359375,-0.842529296875,-0.0027008056640625,-0.5521240234375
1738772979115951900,5.694951904296875,-0.8412017822265625,-0.0034027099609375,-0.553131103515625
1738772979125942800,5.70494287109375,-0.8429412841796875,-0.0026397705078125,-0.5524749755859375
1738772979135933700,5.71493359375,-0.84185791015625,-0.0020751953125,-0.5527496337890625
1738772979145926000,5.72492578125,-0.8417816162109375,-0.00274658203125,-0.5528717041015625
1738772979155917000,5.7349169921875,-0.8431854248046875,-0.0029449462890625,-0.5533294677734375
1738772979165908000,5.744907958984375,-0.8421630859375,-0.004241943359375,-0.5527191162109375
1738772979175899000,5.75489892578125,-0.84332275390625,-0.0031890869140625,-0.5530242919921875
1738772979185889800,5.764889892578125,-0.8433990478515625,-0.001739501953125,-0.5528717041015625
1738772979195881000,5.774880859375,-0.8419952392578125,-0.0036163330078125,-0.5525360107421875
1738772979205871900,5.784871826171875,-0.8430938720703125,-0.0031890869140625,-0.552703857421875
1738772979215863800,5.79486376953125,-0.8430633544921875,-0.0030059814453125,-0.5530242919921875
1738772979225855000,5.80485498046875,-0.841705322265625,-0.0023651123046875,-0.552947998046875
1738772979235846000,5.814845947265625,-0.841766357421875,-0.0015869140625,-0.5521087646484375
1738772979245836800,5.8248369140625,-0.841796875,-0.0021820068359375,-0.5522613525390625
1738772979255828000,5.834827880859375,-0.84234619140625,-0.0035400390625,-0.553192138671875
1738772979265819000,5.84481884765625,-0.841827392578125,-0.0043487548828125,-0.5526885986328125
1738772979275809800,5.854809814453125,-0.843292236328125,-0.00341796875,-0.552520751953125
1738772979285801000,5.864801025390625,-0.8426055908203125,-0.00250244140625,-0.552398681640625
1738772979295793000,5.87479296875,-0.8425445556640625,-0.0029754638671875,-0.5526275634765625
1738772979305783800,5.88478369140625,-0.8431243896484375,-0.002960205078125,-0.5525054931640625
1738772979315775000,5.89477490234375,-0.8424530029296875,-0.00262451171875,-0.553955078125
1738772979325766000,5.904765869140625,-0.841766357421875,-0.0029144287109375,-0.554443359375
1738772979335756800,5.9147568359375,-0.8431243896484375,-0.003753662109375,-0.552734375
1738772979345747700,5.924747802734375,-0.8439178466796875,-0.0034027099609375,-0.5527191162109375
1738772979355739000,5.93473876953125,-0.841522216796875,-0.002593994140625,-0.5519561767578125
1738772979365730800,5.944730712890625,-0.842559814453125,-0.002410888671875,-0.5513458251953125
1738772979375722000,5.954721923828125,-0.8428192138671875,-0.002593994140625,-0.55194091796875
1738772979385713000,5.964712890625,-0.8417205810546875,-0.002532958984375,-0.553070068359375
1738772979395703800,5.974703857421875,-0.84149169921875,-0.002899169921875,-0.5522308349609375
1738772979405694700,5.98469482421875,-0.84222412109375,-0.0020751953125,-0.55303955078125
1738772979415686000,5.994685791015625,-0.842803955078125,-0.0030517578125,-0.55242919921875
1738772979425676800,6.0046767578125,-0.842681884765625,-0.0023956298828125,-0.55413818359375
1738772979435667700,6.014667724609375,-0.8408966064453125,-0.0034332275390625,-0.551422119140625
1738772979445660000,6.024659912109375,-0.8423614501953125,-0.0034027099609375,-0.55157470703125
1738772979455650800,6.03465087890625,-0.8427886962890625,-0.0037078857421875,-0.55242919921875
1738772979465641700,6.044641845703125,-0.843109130859375,-0.003265380859375,-0.5531158447265625
1738772979475633000,6.0546328125,-0.8426513671875,-0.00311279296875,-0.5525970458984375
1738772979485623800,6.064623779296875,-0.84271240234375,-0.0040435791015625,-0.552825927734375
1738772979495614700,6.07461474609375,-0.8425750732421875,-0.0036773681640625,-0.553131103515625
1738772979505606000,6.08460595703125,-0.8420257568359375,-0.001190185546875,-0.552032470703125
1738772979515597800,6.094597900390625,-0.843841552734375,-0.0027008056640625,-0.552703857421875
1738772979525588700,6.104588623046875,-0.8418731689453125,-0.0030517578125,-0.5528564453125
1738772979535580000,6.114579833984375,-0.841796875,-0.003936767578125,-0.55157470703125
1738772979545570800,6.12457080078125,-0.84320068359375,-0.0019378662109375,-0.5524444580078125
1738772979555561700,6.134561767578125,-0.843505859375,-0.00286865234375,-0.5526275634765625
1738772979565552600,6.144552734375,-0.841827392578125,-0.0020751953125,-0.553314208984375
1738772979575543800,6.154543701171875,-0.842010498046875,-0.0028076171875,-0.55242919921875
1738772979585535700,6.16453564453125,-0.84112548828125,-0.0037841796875,-0.552947998046875
1738772979595527000,6.17452685546875,-0.8428192138671875,-0.00347900390625,-0.551788330078125
1738772979605517800,6.184517822265625,-0.84332275390625,-0.0025634765625,-0.5517578125
1738772979615508700,6.1945087890625,-0.8427886962890625,-0.0033416748046875,-0.55303955078125
1738772979625499600,6.204499755859375,-0.8437042236328125,-0.0040130615234375,-0.5521697998046875
1738772979635490800,6.21449072265625,-0.84271240234375,-0.00250244140625,-0.5520782470703125
1738772979645481700,6.224481689453125,-0.8426666259765625,-0.002655029296875,-0.552703857421875
1738772979655472600,6.23447265625,-0.8426666259765625,-0.00244140625,-0.55255126953125
1738772979665464800,6.24446484375,-0.84210205078125,-0.0031280517578125,-0.5533905029296875
1738772979675455700,6.254455810546875,-0.841827392578125,-0.0023651123046875,-0.55181884765625
1738772979685446700,6.26444677734375,-0.8428955078125,-0.00311279296875,-0.551544189453125
1738772979695437800,6.274437744140625,-0.8438873291015625,-0.0031280517578125,-0.5532989501953125
1738772979705428700,6.2844287109375,-0.8428497314453125,-0.0024261474609375,-0.5532989501953125
1738772979715419600,6.294419677734375,-0.8415679931640625,-0.003753662109375,-0.5525970458984375
1738772979725410800,6.304410888671875,-0.8423309326171875,-0.0034637451171875,-0.5525665283203125
1738772979735402800,6.31440283203125,-0.8423919677734375,-0.00341796875,-0.553131103515625
1738772979745393700,6.3243935546875,-0.8419647216796875,-0.002166748046875,-0.5527496337890625
1738772979755384800,6.334384765625,-0.843505859375,-0.0029754638671875,-0.5522613525390625
1738772979765375700,6.344375732421875,-0.8439483642578125,-0.0013275146484375,-0.554046630859375
1738772979775366700,6.35436669921875,-0.841888427734375,-0.0018768310546875,-0.5517578125
1738772979785357800,6.36435791015625,-0.842559814453125,-0.0033111572265625,-0.5525360107421875
1738772979795349000,6.374348876953125,-0.8430328369140625,-0.004547119140625,-0.5527801513671875
1738772979805340000,6.38433984375,-0.8427734375,-0.0029754638671875,-0.5533905029296875
1738772979815331800,6.394331787109375,-0.842559814453125,-0.004180908203125,-0.5515899658203125
1738772979825322800,6.40432275390625,-0.8417510986328125,-0.0030670166015625,-0.552001953125
1738772979835314000,6.41431396484375,-0.841827392578125,-0.003143310546875,-0.553497314453125
1738772979845304800,6.424304931640625,-0.8425140380859375,-0.0040283203125,-0.55218505859375
1738772979855296000,6.4342958984375,-0.842529296875,-0.0035247802734375,-0.5522003173828125
1738772979865287000,6.444286865234375,-0.8424530029296875,-0.003204345703125,-0.5512542724609375
1738772979875277800,6.45427783203125,-0.8433380126953125,-0.00360107421875,-0.5527496337890625
1738772979885269000,6.46426904296875,-0.842376708984375,-0.003875732421875,-0.551910400390625
1738772979895261000,6.474260986328125,-0.8430633544921875,-0.00390625,-0.5518798828125
1738772979905251800,6.484251953125,-0.842315673828125,-0.0036163330078125,-0.5513458251953125
1738772979915243000,6.494242919921875,-0.8424530029296875,-0.003265380859375,-0.5521392822265625
1738772979925234000,6.50423388671875,-0.840606689453125,-0.00286865234375,-0.552642822265625
1738772979935224800,6.514224853515625,-0.842620849609375,-0.0034332275390625,-0.5521087646484375
1738772979945215700,6.5242158203125,-0.8435821533203125,-0.0034637451171875,-0.5525970458984375
1738772979955207000,6.53420703125,-0.842437744140625,-0.0034942626953125,-0.5536956787109375
1738772979965198800,6.54419873046875,-0.843841552734375,-0.003692626953125,-0.5514373779296875
1738772979975190000,6.55418994140625,-0.842010498046875,-0.003814697265625,-0.553314208984375
1738772979985181000,6.564180908203125,-0.8427734375,-0.003570556640625,-0.5526275634765625
1738772979995171800,6.574171875,-0.843048095703125,-0.0038604736328125,-0.5524749755859375
1738772980005162800,6.584162841796875,-0.8419342041015625,-0.0025787353515625,-0.5526123046875
1738772980015154000,6.59415380859375,-0.8421630859375,-0.004241943359375,-0.5519561767578125
1738772980025144800,6.604144775390625,-0.84332275390625,-0.001800537109375,-0.552764892578125
1738772980035135700,6.6141357421875,-0.84271240234375,-0.00299072265625,-0.5527191162109375
1738772980045128000,6.6241279296875,-0.8431396484375,-0.0030670166015625,-0.550506591796875
1738772980055118800,6.634118896484375,-0.84326171875,-0.0020751953125,-0.552734375
1738772980065109800,6.64410986328125,-0.84326171875,-0.0026092529296875,-0.5525054931640625
1738772980075101000,6.654100830078125,-0.8433380126953125,-0.002716064453125,-0.5516204833984375
1738772980085091800,6.664091796875,-0.8433380126953125,-0.0025634765625,-0.5514068603515625
1738772980095082800,6.674082763671875,-0.841644287109375,-0.0033111572265625,-0.552398681640625
1738772980105074000,6.684073974609375,-0.842529296875,-0.002777099609375,-0.55279541015625
1738772980115065900,6.69406591796875,-0.8426666259765625,-0.0034332275390625,-0.5515899658203125
1738772980125056800,6.704056884765625,-0.842559814453125,-0.0032196044921875,-0.5528564453125
1738772980135048000,6.7140478515625,-0.843292236328125,-0.0027313232421875,-0.5516204833984375
1738772980145038800,6.724038818359375,-0.8430328369140625,-0.0028076171875,-0.553009033203125
1738772980155030000,6.734030029296875,-0.8433990478515625,-0.003204345703125,-0.553070068359375
1738772980165021200,6.744021240234375,-0.842987060546875,-0.002838134765625,-0.5517578125
1738772980175012000,6.75401220703125,-0.8428497314453125,-0.0025634765625,-0.552886962890625
1738772980185004000,6.764004150390625,-0.8417816162109375,-0.003021240234375,-0.55267333984375
1738772980194995200,6.7739951171875,-0.84246826171875,-0.003448486328125,-0.5524139404296875
1738772980204986000,6.783986083984375,-0.8438568115234375,-0.0036163330078125,-0.551361083984375
1738772980214977000,6.79397705078125,-0.84185791015625,-0.0038604736328125,-0.5519561767578125
1738772980224968000,6.803968017578125,-0.84197998046875,-0.004119873046875,-0.55194091796875
1738772980234959000,6.813958984375,-0.8419952392578125,-0.0038604736328125,-0.55291748046875
1738772980244950000,6.823949951171875,-0.842041015625,-0.003631591796875,-0.552764892578125
1738772980254941000,6.83394091796875,-0.8426971435546875,-0.0019683837890625,-0.5513916015625
1738772980264933000,6.84393310546875,-0.84356689453125,-0.0027923583984375,-0.5538177490234375
1738772980274924000,6.853924072265625,-0.8430023193359375,-0.0035247802734375,-0.552520751953125
1738772980284915000,6.8639150390625,-0.843597412109375,-0.0035247802734375,-0.5520172119140625
1738772980294906000,6.873906005859375,-0.8431854248046875,-0.003387451171875,-0.5524139404296875
1738772980304897000,6.88389697265625,-0.8427581787109375,-0.0031280517578125,-0.5518951416015625
1738772980314888000,6.893887939453125,-0.8423309326171875,-0.002349853515625,-0.550537109375
1738772980324879000,6.903879150390625,-0.8427734375,-0.002227783203125,-0.551544189453125
1738772980334870000,6.9138701171875,-0.84295654296875,-0.0043487548828125,-0.553131103515625
1738772980344862000,6.923862060546875,-0.8430633544921875,-0.002960205078125,-0.55352783203125
1738772980354853000,6.93385302734375,-0.8426513671875,-0.002960205078125,-0.5533905029296875
1738772980364844000,6.943843994140625,-0.8430023193359375,-0.003143310546875,-0.5529937744140625
1738772980374835000,6.9538349609375,-0.8421478271484375,-0.0024871826171875,-0.55230712890625
1738772980384826000,6.963826171875,-0.8420867919921875,-0.0030670166015625,-0.55328369140625
1738772980394817000,6.973817138671875,-0.8411102294921875,-0.0023956298828125,-0.552978515625
1738772980404808000,6.983807861328125,-0.8428497314453125,-0.0026397705078125,-0.5519561767578125
1738772980414800100,6.993800048828125,-0.8426055908203125,-0.002960205078125,-0.5521697998046875
1738772980424791000,7.003791015625,-0.84130859375,-0.0028839111328125,-0.552215576171875
1738772980434782000,7.013781982421875,-0.84173583984375,-0.0026092529296875,-0.5521087646484375
1738772980444772900,7.02377294921875,-0.8425140380859375,-0.002471923828125,-0.5530853271484375
1738772980454764000,7.033763916015625,-0.844940185546875,-0.0043182373046875,-0.5532379150390625
1738772980464755000,7.0437548828125,-0.843719482421875,-0.004119873046875,-0.5522003173828125
1738772980474746000,7.05374609375,-0.842254638671875,-0.00323486328125,-0.551513671875
1738772980484738000,7.063738037109375,-0.8426971435546875,-0.0024261474609375,-0.5527801513671875
1738772980494729000,7.07372900390625,-0.8438568115234375,-0.003143310546875,-0.551910400390625
1738772980504720000,7.083719970703125,-0.8429107666015625,-0.002655029296875,-0.5526123046875
1738772980514711000,7.0937109375,-0.842498779296875,-0.0042724609375,-0.5529632568359375
1738772980524702000,7.103701904296875,-0.844635009765625,-0.002899169921875,-0.55218505859375
1738772980534693000,7.113693115234375,-0.842864990234375,-0.0014190673828125,-0.5513916015625
1738772980544684300,7.123684326171875,-0.84295654296875,-0.0030059814453125,-0.551483154296875
1738772980554675200,7.13367529296875,-0.8428802490234375,-0.003997802734375,-0.5509185791015625
1738772980564667000,7.1436669921875,-0.84222412109375,-0.003570556640625,-0.5528106689453125
1738772980574658000,7.153657958984375,-0.8422393798828125,-0.0028228759765625,-0.552093505859375
1738772980584649000,7.16364892578125,-0.8431854248046875,-0.00286865234375,-0.5517425537109375
1738772980594640100,7.17364013671875,-0.8425445556640625,-0.0029144287109375,-0.5527801513671875
1738772980604631300,7.18363134765625,-0.8433074951171875,-0.003662109375,-0.5528717041015625
1738772980614622200,7.193622314453125,-0.8431396484375,-0.00225830078125,-0.5523834228515625
1738772980624613000,7.203613037109375,-0.8425750732421875,-0.0030059814453125,-0.5524749755859375
1738772980634605000,7.21360498046875,-0.8428497314453125,-0.0021514892578125,-0.5523834228515625
1738772980644596200,7.22359619140625,-0.8410491943359375,-0.002960205078125,-0.553619384765625
1738772980654587100,7.233587158203125,-0.84228515625,-0.001800537109375,-0.55181884765625
1738772980664578000,7.243578125,-0.8425140380859375,-0.0019073486328125,-0.5528717041015625
1738772980674569200,7.2535693359375,-0.842315673828125,-0.0028076171875,-0.5530548095703125
1738772980684560100,7.26356005859375,-0.8433074951171875,-0.0028076171875,-0.5516510009765625
1738772980694551000,7.273551025390625,-0.8418121337890625,-0.0019989013671875,-0.552032470703125
1738772980704543200,7.283543212890625,-0.8420257568359375,-0.0023956298828125,-0.55279541015625
1738772980714534100,7.2935341796875,-0.8425750732421875,-0.0035552978515625,-0.552642822265625
1738772980724525000,7.303525146484375,-0.8423004150390625,-0.0044403076171875,-0.5528564453125
1738772980734516200,7.31351611328125,-0.8424224853515625,-0.0023345947265625,-0.5516204833984375
1738772980744507100,7.323507080078125,-0.84259033203125,-0.003082275390625,-0.5515289306640625
1738772980754498000,7.333498046875,-0.8433837890625,-0.0042572021484375,-0.552947998046875
1738772980764489200,7.3434892578125,-0.8421783447265625,-0.003173828125,-0.5528106689453125
1738772980774480100,7.353480224609375,-0.841064453125,-0.00335693359375,-0.5516815185546875
1738772980784472000,7.36347216796875,-0.8430023193359375,-0.0029144287109375,-0.551910400390625
1738772980794463200,7.373463134765625,-0.8424072265625,-0.0037841796875,-0.5524139404296875
1738772980804454100,7.3834541015625,-0.84197998046875,-0.0039215087890625,-0.552734375
1738772980814445000,7.393445068359375,-0.842132568359375,-0.003143310546875,-0.5523223876953125
1738772980824436200,7.403436279296875,-0.842315673828125,-0.0040435791015625,-0.552276611328125
1738772980834427100,7.41342724609375,-0.8423919677734375,-0.0019073486328125,-0.5525054931640625
1738772980844418000,7.42341796875,-0.842742919921875,-0.0016937255859375,-0.5515289306640625
1738772980854410200,7.43341015625,-0.843048095703125,-0.00323486328125,-0.5522308349609375
1738772980864401200,7.443401123046875,-0.84295654296875,-0.0021820068359375,-0.553253173828125
1738772980874392000,7.45339208984375,-0.843109130859375,-0.003509521484375,-0.551300048828125
1738772980884383000,7.463383056640625,-0.8414764404296875,-0.00250244140625,-0.5516815185546875
1738772980894374100,7.4733740234375,-0.840972900390625,-0.0033721923828125,-0.55206298828125
1738772980904365000,7.483364990234375,-0.841278076171875,-0.004058837890625,-0.5518035888671875
1738772980914356000,7.49335595703125,-0.8416595458984375,-0.00335693359375,-0.553009033203125
1738772980924347100,7.50334716796875,-0.843505859375,-0.00274658203125,-0.5535736083984375
1738772980934339000,7.513339111328125,-0.84222412109375,-0.0028228759765625,-0.552978515625
1738772980944330000,7.523330078125,-0.841278076171875,-0.0030975341796875,-0.551116943359375
1738772980954321200,7.533321044921875,-0.84246826171875,-0.002227783203125,-0.5524749755859375
1738772980964312000,7.54331201171875,-0.8431854248046875,-0.00341796875,-0.5527801513671875
1738772980974303000,7.553302978515625,-0.84197998046875,-0.0035400390625,-0.552459716796875
1738772980984294100,7.563294189453125,-0.8418426513671875,-0.0034027099609375,-0.552947998046875
1738772980994285000,7.57328515625,-0.844146728515625,-0.0029296875,-0.5532684326171875
1738772981004277000,7.583277099609375,-0.84210205078125,-0.0032806396484375,-0.5522003173828125
1738772981014268200,7.59326806640625,-0.8423309326171875,-0.0040740966796875,-0.5516204833984375
1738772981024259000,7.603259033203125,-0.842987060546875,-0.00262451171875,-0.5522308349609375
1738772981034250000,7.61325,-0.843536376953125,-0.0030975341796875,-0.553253173828125
1738772981044241000,7.623240966796875,-0.841888427734375,-0.0017547607421875,-0.552703857421875
1738772981054232000,7.633232177734375,-0.8434600830078125,-0.001922607421875,-0.5516815185546875
1738772981064223000,7.643222900390625,-0.842315673828125,-0.0041351318359375,-0.5535430908203125
1738772981074214000,7.6532138671875,-0.8423309326171875,-0.0029296875,-0.553131103515625
1738772981084206000,7.6632060546875,-0.8417205810546875,-0.0024871826171875,-0.55255126953125
1738772981094197000,7.673197021484375,-0.8421173095703125,-0.0028533935546875,-0.5522003173828125
1738772981104188000,7.68318798828125,-0.8429718017578125,-0.003662109375,-0.5529937744140625
1738772981114179000,7.693178955078125,-0.84405517578125,-0.0024871826171875,-0.553955078125
1738772981124170000,7.703169921875,-0.842681884765625,-0.00311279296875,-0.5534210205078125
1738772981134161000,7.713160888671875,-0.843292236328125,-0.00433349609375,-0.550811767578125
1738772981144152000,7.723152099609375,-0.8428497314453125,-0.004608154296875,-0.5521087646484375
1738772981154144000,7.73314404296875,-0.842681884765625,-0.0028839111328125,-0.552276611328125
1738772981164135400,7.743135498046875,-0.843231201171875,-0.0038604736328125,-0.552703857421875
1738772981174126300,7.753126220703125,-0.8430023193359375,-0.0043792724609375,-0.5517578125
1738772981184117500,7.763117431640625,-0.8427886962890625,-0.0036773681640625,-0.5513763427734375
1738772981194108400,7.7731083984375,-0.8431854248046875,-0.003875732421875,-0.5518341064453125
1738772981204099300,7.783099365234375,-0.840606689453125,-0.002593994140625,-0.5515289306640625
1738772981214090200,7.79309033203125,-0.8428192138671875,-0.0022735595703125,-0.55218505859375
1738772981224081400,7.803081298828125,-0.84326171875,-0.002685546875,-0.55340576171875
1738772981234073300,7.8130732421875,-0.84185791015625,-0.0037689208984375,-0.552886962890625
1738772981244064300,7.823064208984375,-0.842681884765625,-0.0023956298828125,-0.550933837890625
1738772981254055400,7.833055419921875,-0.8432464599609375,-0.00335693359375,-0.552215576171875
1738772981264046300,7.84304638671875,-0.8430633544921875,-0.00274658203125,-0.551910400390625
1738772981274037200,7.853037353515625,-0.842559814453125,-0.0026397705078125,-0.5515899658203125
1738772981284028400,7.8630283203125,-0.8432464599609375,-0.00335693359375,-0.55120849609375
1738772981294019600,7.87301953125,-0.8429107666015625,-0.0033416748046875,-0.551513671875
1738772981304011300,7.88301123046875,-0.8430633544921875,-0.002288818359375,-0.5517730712890625
1738772981314002400,7.89300244140625,-0.8429718017578125,-0.0023345947265625,-0.5522003173828125
1738772981323993300,7.902993408203125,-0.8429107666015625,-0.001983642578125,-0.5522613525390625
1738772981333984300,7.912984375,-0.8437957763671875,-0.0027008056640625,-0.5522003173828125
1738772981343975400,7.922975341796875,-0.8441619873046875,-0.00299072265625,-0.5523529052734375
1738772981353966600,7.932966552734375,-0.8435821533203125,-0.002593994140625,-0.552337646484375
1738772981363957500,7.94295751953125,-0.842559814453125,-0.0013275146484375,-0.55224609375
1738772981374572500,7.953572509765625,-0.8417205810546875,-0.0033111572265625,-0.551910400390625
1738772981384564500,7.963564453125,-0.8420867919921875,-0.0030059814453125,-0.55194091796875
1738772981394555400,7.973555419921875,-0.8414154052734375,-0.0019683837890625,-0.552703857421875
1738772981404546600,7.983546630859375,-0.8434600830078125,-0.003753662109375,-0.552642822265625
1738772981414537500,7.993537353515625,-0.842071533203125,-0.00341796875,-0.5514678955078125
1738772981424528400,8.0035283203125,-0.841827392578125,-0.0032196044921875,-0.5514068603515625
1738772981434519600,8.01351953125,-0.84283447265625,-0.0028839111328125,-0.5524139404296875
1738772981444510500,8.023510498046875,-0.842742919921875,-0.002899169921875,-0.5524444580078125
1738772981454502400,8.03350244140625,-0.8427886962890625,-0.0029754638671875,-0.5513153076171875
1738772981464493600,8.04349365234375,-0.8417510986328125,-0.00347900390625,-0.552001953125
1738772981474484500,8.053484375,-0.842742919921875,-0.0036163330078125,-0.5528564453125
1738772981484475400,8.063475341796876,-0.8418121337890625,-0.0024871826171875,-0.5519561767578125
1738772981494466600,8.073466552734375,-0.8427734375,-0.0020751953125,-0.55255126953125
1738772981504457500,8.08345751953125,-0.8421173095703125,-0.003387451171875,-0.5529937744140625
1738772981514448400,8.093448486328125,-0.84405517578125,-0.0026092529296875,-0.551971435546875
1738772981524439300,8.103439208984375,-0.843353271484375,-0.0030364990234375,-0.552032470703125
1738772981534431500,8.113431396484375,-0.842254638671875,-0.0040435791015625,-0.552215576171875
1738772981544422400,8.12342236328125,-0.8426055908203125,-0.002838134765625,-0.5519256591796875
1738772981554413600,8.13341357421875,-0.8426055908203125,-0.00433349609375,-0.5534515380859375
1738772981564404500,8.143404541015625,-0.8428497314453125,-0.0025177001953125,-0.5532989501953125
1738772981574395400,8.1533955078125,-0.8427276611328125,-0.003570556640625,-0.551300048828125
1738772981584386300,8.16338623046875,-0.8433685302734375,-0.0025787353515625,-0.5513458251953125
1738772981594377500,8.17337744140625,-0.8432769775390625,-0.0039215087890625,-0.5536956787109375
1738772981604368400,8.183368408203124,-0.84234619140625,-0.0040130615234375,-0.5517120361328125
1738772981614360300,8.1933603515625,-0.843048095703125,-0.003997802734375,-0.5522308349609375
1738772981624351500,8.2033515625,-0.8422698974609375,-0.003662109375,-0.5518035888671875
1738772981634342400,8.21334228515625,-0.842559814453125,-0.0027618408203125,-0.5513458251953125
1738772981644333300,8.223333251953125,-0.8428497314453125,-0.003814697265625,-0.551788330078125
1738772981654324500,8.233324462890625,-0.84246826171875,-0.003448486328125,-0.552642822265625
1738772981664315400,8.2433154296875,-0.842529296875,-0.0020294189453125,-0.552581787109375
1738772981674306300,8.253306396484374,-0.8429107666015625,-0.003753662109375,-0.551666259765625
1738772981684297500,8.26329736328125,-0.843780517578125,-0.0030670166015625,-0.551727294921875
1738772981694289400,8.273289306640624,-0.8429412841796875,-0.0028076171875,-0.5530242919921875
1738772981704280300,8.2832802734375,-0.8409423828125,-0.0038604736328125,-0.5520477294921875
1738772981714895400,8.293895263671875,-0.84234619140625,-0.0020599365234375,-0.552642822265625
1738772981724887300,8.30388720703125,-0.8437652587890625,-0.00384521484375,-0.55218505859375
1738772981734878500,8.31387841796875,-0.8422698974609375,-0.004241943359375,-0.55206298828125
1738772981744869400,8.323869384765626,-0.8431854248046875,-0.0025634765625,-0.552886962890625
1738772981754860300,8.3338603515625,-0.8435211181640625,-0.001922607421875,-0.55206298828125
1738772981764851500,8.3438515625,-0.8435516357421875,-0.0030517578125,-0.5531005859375
1738772981774842600,8.353842529296875,-0.8424072265625,-0.00341796875,-0.5523681640625
1738772981784833500,8.36383349609375,-0.84271240234375,-0.001953125,-0.5522003173828125
1738772981794825500,8.373825439453125,-0.84283447265625,-0.0025787353515625,-0.5526123046875
1738772981804816400,8.38381640625,-0.84356689453125,-0.00311279296875,-0.5512237548828125
1738772981814807300,8.393807373046876,-0.84197998046875,-0.0026092529296875,-0.552490234375
1738772981824798500,8.403798583984376,-0.8424835205078125,-0.0030670166015625,-0.553009033203125
1738772981834789600,8.41378955078125,-0.84368896484375,-0.0035400390625,-0.5526580810546875
1738772981844780500,8.423780517578125,-0.8432464599609375,-0.0027008056640625,-0.5525054931640625
1738772981854771500,8.433771484375,-0.8422698974609375,-0.00335693359375,-0.5509490966796875
1738772981864762600,8.4437626953125,-0.8421173095703125,-0.0033111572265625,-0.5535125732421875
1738772981874754300,8.45375439453125,-0.8426513671875,-0.003631591796875,-0.5520782470703125
1738772981884745500,8.463745361328124,-0.844390869140625,-0.0027618408203125,-0.552001953125
1738772981894736600,8.473736572265626,-0.8416900634765625,-0.0041046142578125,-0.5517120361328125
1738772981904727600,8.4837275390625,-0.843780517578125,-0.003814697265625,-0.55255126953125
1738772981914718500,8.493718505859375,-0.8426971435546875,-0.002716064453125,-0.5534210205078125
1738772981924709600,8.503709716796875,-0.841888427734375,-0.0037841796875,-0.552734375
1738772981934700500,8.513700439453125,-0.8424072265625,-0.0034332275390625,-0.5524749755859375
1738772981944692500,8.5236923828125,-0.8404693603515625,-0.0023040771484375,-0.5523681640625
1738772981954683600,8.53368359375,-0.842254638671875,-0.003173828125,-0.55279541015625
1738772981964674600,8.543674560546876,-0.8426666259765625,-0.0034332275390625,-0.553070068359375
1738772981974665500,8.55366552734375,-0.843170166015625,-0.0030059814453125,-0.5536041259765625
1738772981984656400,8.563656494140625,-0.8428802490234375,-0.002227783203125,-0.5524139404296875
1738772981994647600,8.5736474609375,-0.842803955078125,-0.0032806396484375,-0.5515289306640625
1738772982004638500,8.583638427734375,-0.8427276611328125,-0.0034027099609375,-0.552490234375
1738772982014629400,8.59362939453125,-0.8429107666015625,-0.002960205078125,-0.5530853271484375
1738772982024621600,8.60362158203125,-0.8422088623046875,-0.00299072265625,-0.551910400390625
1738772982034612500,8.613612548828126,-0.8419647216796875,-0.00494384765625,-0.552459716796875
1738772982044603400,8.623603271484376,-0.8429107666015625,-0.0041046142578125,-0.552642822265625
1738772982054594600,8.633594482421875,-0.8427581787109375,-0.0024261474609375,-0.5523529052734375
1738772982064585500,8.64358544921875,-0.84283447265625,-0.0023040771484375,-0.5537567138671875
1738772982074576400,8.653576416015625,-0.843292236328125,-0.0025482177734375,-0.5516204833984375
1738772982084567600,8.663567626953125,-0.842864990234375,-0.0013580322265625,-0.5529327392578125
1738772982094559500,8.6735595703125,-0.8431396484375,-0.00213623046875,-0.5530853271484375
1738772982104550400,8.68355029296875,-0.8434600830078125,-0.002838134765625,-0.5519561767578125
1738772982114541600,8.69354150390625,-0.8430633544921875,-0.0039825439453125,-0.55218505859375
1738772982124532500,8.703532470703125,-0.8437957763671875,-0.002349853515625,-0.55224609375
1738772982134523400,8.7135234375,-0.842681884765625,-0.002471923828125,-0.5516815185546875
1738772982144514600,8.7235146484375,-0.8418426513671875,-0.0037841796875,-0.5518646240234375
1738772982154505200,8.733505126953125,-0.8422393798828125,-0.00335693359375,-0.5519866943359375
1738772982164497400,8.743497314453125,-0.8444061279296875,-0.00323486328125,-0.5533905029296875
1738772982174488300,8.75348828125,-0.84356689453125,-0.0029449462890625,-0.55206298828125
1738772982184479500,8.7634794921875,-0.8416900634765625,-0.0023651123046875,-0.5509490966796875
1738772982194470400,8.773470458984375,-0.8426513671875,-0.0042877197265625,-0.5517578125
1738772982204461300,8.78346142578125,-0.84246826171875,-0.0032196044921875,-0.5528564453125
1738772982214452200,8.7934521484375,-0.842437744140625,-0.0023040771484375,-0.552978515625
1738772982224443400,8.803443359375,-0.8430633544921875,-0.00311279296875,-0.5521087646484375
1738772982234435300,8.813435302734375,-0.843658447265625,-0.00201416015625,-0.5533294677734375
1738772982244426200,8.82342626953125,-0.8428192138671875,-0.0026092529296875,-0.5528411865234375
1738772982254417400,8.83341748046875,-0.8424224853515625,-0.002197265625,-0.55230712890625
1738772982264408300,8.843408203125,-0.8433837890625,-0.002197265625,-0.5533447265625
1738772982274399200,8.853399169921875,-0.84320068359375,-0.0034637451171875,-0.5520172119140625
1738772982284390400,8.863390380859375,-0.8431549072265625,-0.002471923828125,-0.551727294921875
1738772982294381300,8.87338134765625,-0.8422698974609375,-0.003265380859375,-0.5529327392578125
1738772982304373200,8.883373291015625,-0.8427886962890625,-0.0035400390625,-0.5523834228515625
1738772982314364400,8.893364501953124,-0.841888427734375,-0.00341796875,-0.5527496337890625
1738772982324355300,8.903355224609374,-0.843505859375,-0.0024871826171875,-0.5523834228515625
1738772982334346200,8.91334619140625,-0.8426361083984375,-0.0030517578125,-0.5528411865234375
1738772982344337400,8.92333740234375,-0.8421173095703125,-0.0035400390625,-0.55328369140625
1738772982354328300,8.933328369140625,-0.8433837890625,-0.00213623046875,-0.5539398193359375
1738772982364319200,8.9433193359375,-0.842681884765625,-0.00262451171875,-0.5512237548828125
1738772982374310100,8.95331005859375,-0.8425445556640625,-0.003326416015625,-0.551910400390625
1738772982384302300,8.96330224609375,-0.84149169921875,-0.0022735595703125,-0.5531158447265625
1738772982394293200,8.973293212890624,-0.8426361083984375,-0.0027923583984375,-0.55255126953125
1738772982404284400,8.983284423828126,-0.841705322265625,-0.003173828125,-0.5524139404296875
1738772982414275300,8.993275390625,-0.8419036865234375,-0.0030059814453125,-0.552276611328125
1738772982424266200,9.003266357421875,-0.8426971435546875,-0.0047760009765625,-0.551727294921875
1738772982434257200,9.013257080078125,-0.8429107666015625,-0.002288818359375,-0.5522003173828125
1738772982444248300,9.023248291015625,-0.8419342041015625,-0.00299072265625,-0.5513763427734375
1738772982454240300,9.033240234375,-0.84246826171875,-0.002838134765625,-0.552215576171875
1738772982464231200,9.043231201171874,-0.8426513671875,-0.0031585693359375,-0.5531463623046875
1738772982474222300,9.053222412109376,-0.8434295654296875,-0.003814697265625,-0.5516510009765625
1738772982484213200,9.063213134765626,-0.842803955078125,-0.0028228759765625,-0.5525970458984375
1738772982494204200,9.0732041015625,-0.8428802490234375,-0.003204345703125,-0.5522918701171875
1738772982504195300,9.0831953125,-0.842132568359375,-0.0020751953125,-0.55206298828125
1738772982514187300,9.093187255859375,-0.843414306640625,-0.0037841796875,-0.5518341064453125
1738772982524178200,9.10317822265625,-0.8443756103515625,-0.0039215087890625,-0.5527191162109375
1738772982534169300,9.11316943359375,-0.8429107666015625,-0.0034332275390625,-0.552215576171875
1738772982544160300,9.12316015625,-0.841827392578125,-0.0022430419921875,-0.5529022216796875
1738772982554151400,9.1331513671875,-0.84271240234375,-0.0029296875,-0.5521087646484375
1738772982564142600,9.143142578125,-0.844512939453125,-0.00177001953125,-0.553497314453125
1738772982574133500,9.153133544921875,-0.8428955078125,-0.00286865234375,-0.5531005859375
1738772982584125200,9.163125244140625,-0.8438568115234375,-0.003326416015625,-0.5517730712890625
1738772982594116400,9.173116455078125,-0.8437652587890625,-0.0023651123046875,-0.5516357421875
1738772982604107300,9.183107177734374,-0.8428497314453125,-0.0037689208984375,-0.553558349609375
1738772982614098400,9.193098388671874,-0.8432769775390625,-0.00457763671875,-0.5521087646484375
1738772982624089600,9.203089599609376,-0.8421630859375,-0.00347900390625,-0.5511016845703125
1738772982634080500,9.21308056640625,-0.84271240234375,-0.0023956298828125,-0.55218505859375
1738772982644071400,9.223071533203125,-0.8446044921875,-0.0032958984375,-0.55206298828125
1738772982654063400,9.2330634765625,-0.8416900634765625,-0.0031280517578125,-0.5526123046875
1738772982664054300,9.24305419921875,-0.8415374755859375,-0.0032806396484375,-0.552734375
1738772982674045400,9.25304541015625,-0.8428192138671875,-0.0030364990234375,-0.551544189453125
1738772982684036400,9.263036376953124,-0.8434295654296875,-0.00225830078125,-0.55389404296875
1738772982694027500,9.273027587890626,-0.8431549072265625,-0.0017547607421875,-0.55328369140625
1738772982704018400,9.283018310546876,-0.8414459228515625,-0.0030975341796875,-0.552642822265625
1738772982714009300,9.29300927734375,-0.842620849609375,-0.00457763671875,-0.5533294677734375
1738772982724001300,9.303001220703125,-0.8430023193359375,-0.0037384033203125,-0.552093505859375
1738772982733992400,9.312992431640625,-0.8436431884765625,-0.002777099609375,-0.55291748046875
1738772982743983400,9.3229833984375,-0.84332275390625,-0.003265380859375,-0.5517578125
1738772982753974500,9.332974609375,-0.843536376953125,-0.0057525634765625,-0.55078125
1738772982763965400,9.34296533203125,-0.8434295654296875,-0.00439453125,-0.5528411865234375
1738772982773956400,9.352956298828126,-0.841796875,-0.0013580322265625,-0.5524444580078125
1738772982783947500,9.362947509765625,-0.8423004150390625,-0.0028839111328125,-0.5524139404296875
1738772982793939500,9.372939453125,-0.843963623046875,-0.0030517578125,-0.552947998046875
1738772982803930400,9.382930419921875,-0.8404541015625,-0.0034637451171875,-0.5528717041015625
1738772982813921500,9.392921630859375,-0.8422698974609375,-0.00408935546875,-0.5530548095703125
1738772982823912400,9.402912353515624,-0.842987060546875,-0.0033721923828125,-0.5525054931640625
1738772982833903400,9.4129033203125,-0.843231201171875,-0.00445556640625,-0.55242919921875
1738772982843894300,9.422894287109376,-0.841522216796875,-0.002349853515625,-0.55181884765625
1738772982853885400,9.432885498046875,-0.8429412841796875,-0.0027618408203125,-0.552947998046875
1738772982863877400,9.44287744140625,-0.84332275390625,-0.0032958984375,-0.552276611328125
1738772982873868500,9.45286865234375,-0.8433990478515625,-0.003387451171875,-0.5519866943359375
1738772982883859500,9.462859375,-0.84234619140625,-0.003509521484375,-0.552398681640625
1738772982893850400,9.472850341796875,-0.8440093994140625,-0.0037841796875,-0.5520172119140625
1738772982903841300,9.48284130859375,-0.8433380126953125,-0.00335693359375,-0.5525054931640625
1738772982913832400,9.49283251953125,-0.8422393798828125,-0.0024871826171875,-0.5523834228515625
1738772982923823400,9.5028232421875,-0.8428497314453125,-0.001983642578125,-0.5529632568359375
1738772982933815600,9.512815673828126,-0.8426971435546875,-0.003570556640625,-0.5528106689453125
1738772982943806500,9.522806396484375,-0.843017578125,-0.0032958984375,-0.5523223876953125
1738772982953797400,9.53279736328125,-0.84173583984375,-0.00262451171875,-0.5518341064453125
1738772982963788300,9.542788330078125,-0.8419189453125,-0.0036468505859375,-0.5526275634765625
1738772982973779500,9.552779541015624,-0.84271240234375,-0.00341796875,-0.5534515380859375
1738772982983770400,9.562770263671876,-0.84185791015625,-0.003570556640625,-0.552093505859375
1738772982993762300,9.57276220703125,-0.841705322265625,-0.0041961669921875,-0.55303955078125
1738772983003753500,9.58275341796875,-0.84283447265625,-0.0041046142578125,-0.553497314453125
1738772983013744400,9.592744384765625,-0.8414764404296875,-0.0031280517578125,-0.552947998046875
1738772983023735300,9.6027353515625,-0.8424835205078125,-0.003204345703125,-0.552886962890625
1738772983033726500,9.6127265625,-0.8432464599609375,-0.0031280517578125,-0.5522003173828125
1738772983043717400,9.62271728515625,-0.843048095703125,-0.00323486328125,-0.5531005859375
1738772983053708300,9.632708251953124,-0.8428497314453125,-0.002716064453125,-0.5509033203125
1738772983063700500,9.642700439453124,-0.842529296875,-0.00238037109375,-0.55108642578125
1738772983073691400,9.65269140625,-0.84393310546875,-0.0031890869140625,-0.5538482666015625
1738772983083682300,9.662682373046875,-0.84271240234375,-0.003265380859375,-0.552703857421875
1738772983093673500,9.672673583984375,-0.8413543701171875,-0.0025177001953125,-0.552337646484375
1738772983103664400,9.682664306640625,-0.842559814453125,-0.0042724609375,-0.5524749755859375
1738772983113655300,9.6926552734375,-0.8424530029296875,-0.0025177001953125,-0.5518035888671875
1738772983123646200,9.702646240234374,-0.8423309326171875,-0.0034942626953125,-0.55316162109375
1738772983133638400,9.712638427734374,-0.8424835205078125,-0.003753662109375,-0.55133056640625
1738772983143629300,9.72262939453125,-0.8417510986328125,-0.002197265625,-0.551361083984375
1738772983153620200,9.7326201171875,-0.842437744140625,-0.0028076171875,-0.5520172119140625
1738772983163611100,9.742611083984375,-0.84405517578125,-0.0022735595703125,-0.552490234375
1738772983173602000,9.75260205078125,-0.842498779296875,-0.0030670166015625,-0.5529022216796875
1738772983183593200,9.76259326171875,-0.8425140380859375,-0.00390625,-0.5512237548828125
1738772983193584000,9.772584228515624,-0.8422393798828125,-0.004058837890625,-0.5517730712890625
1738772983203576000,9.782576171875,-0.84356689453125,-0.0030975341796875,-0.5517578125
1738772983213567200,9.792567138671876,-0.84222412109375,-0.003204345703125,-0.551483154296875
1738772983223558100,9.80255810546875,-0.84332275390625,-0.0031280517578125,-0.552520751953125
1738772983233549000,9.812549072265625,-0.8431549072265625,-0.002197265625,-0.5530548095703125
1738772983243540200,9.822540283203125,-0.8416595458984375,-0.003936767578125,-0.552001953125
1738772983253531100,9.83253125,-0.8419952392578125,-0.001861572265625,-0.550628662109375
1738772983263522000,9.84252197265625,-0.8432159423828125,-0.0020751953125,-0.5522003173828125
1738772983273514200,9.85251416015625,-0.843902587890625,-0.0028076171875,-0.5537261962890625
1738772983283505200,9.862505126953126,-0.84271240234375,-0.00225830078125,-0.551605224609375
1738772983293496000,9.87249609375,-0.844482421875,-0.001708984375,-0.5513916015625
1738772983303487200,9.8824873046875,-0.843170166015625,-0.0033721923828125,-0.5523529052734375
1738772983313478100,9.89247802734375,-0.8414306640625,-0.0029296875,-0.552581787109375
1738772983323469000,9.902468994140625,-0.8435516357421875,-0.0043487548828125,-0.5516357421875
1738772983333460000,9.9124599609375,-0.84344482421875,-0.0031890869140625,-0.5518341064453125
1738772983343452200,9.9224521484375,-0.8426513671875,-0.00390625,-0.5530548095703125
1738772983353443000,9.932443115234374,-0.8422393798828125,-0.002532958984375,-0.55230712890625
1738772983363434000,9.94243408203125,-0.8418731689453125,-0.002105712890625,-0.552520751953125
1738772983373425200,9.952425048828125,-0.841583251953125,-0.0027618408203125,-0.5522613525390625
1738772983383416000,9.962416015625,-0.8427886962890625,-0.00286865234375,-0.5511016845703125
1738772983393407200,9.9724072265625,-0.8431396484375,-0.0035552978515625,-0.5518035888671875
1738772983403398400,9.9823984375,-0.8430328369140625,-0.00274658203125,-0.5517120361328125
1738772983413390000,9.99239013671875,-0.8422393798828125,-0.003631591796875,-0.5516510009765625
1738772983423381000,10.002381103515624,-0.8434600830078125,-0.003204345703125,-0.5525665283203125
1738772983433372200,10.0123720703125,-0.8433990478515625,-0.0032958984375,-0.552154541015625
1738772983443363000,10.022363037109375,-0.8431396484375,-0.00250244140625,-0.5524444580078125
1738772983453354200,10.032354248046875,-0.8436737060546875,-0.0035247802734375,-0.5525665283203125
1738772983463345400,10.042345458984375,-0.8422698974609375,-0.0028076171875,-0.551483154296875
1738772983473336300,10.05233642578125,-0.8427734375,-0.00244140625,-0.551177978515625
1738772983483328000,10.062327880859375,-0.84326171875,-0.0025177001953125,-0.55303955078125
1738772983493319200,10.072319091796874,-0.8433074951171875,-0.0035247802734375,-0.5533599853515625
1738772983503310000,10.08231005859375,-0.843017578125,-0.003509521484375,-0.551361083984375
1738772983513301200,10.09230126953125,-0.841796875,-0.002410888671875,-0.5521087646484375
1738772983523292400,10.10229248046875,-0.84356689453125,-0.0024566650390625,-0.5534515380859375
1738772983533283300,10.112283447265625,-0.8443756103515625,-0.003143310546875,-0.5519256591796875
1738772983543274200,10.122274169921875,-0.842681884765625,-0.004058837890625,-0.5512847900390625
1738772983553266200,10.13226611328125,-0.8426666259765625,-0.002960205078125,-0.55145263671875
1738772983563257300,10.14225732421875,-0.8425750732421875,-0.0030059814453125,-0.5519256591796875
1738772983573248300,10.152248291015624,-0.843170166015625,-0.002777099609375,-0.552093505859375
1738772983583239200,10.1622392578125,-0.8421173095703125,-0.0029296875,-0.5523834228515625
1738772983593230300,10.172230224609375,-0.8422393798828125,-0.003692626953125,-0.552703857421875
1738772983603221200,10.18222119140625,-0.843780517578125,-0.0043182373046875,-0.5527801513671875
1738772983613213200,10.192213134765625,-0.843597412109375,-0.0027923583984375,-0.552154541015625
1738772983623204400,10.202204345703125,-0.8428497314453125,-0.0027313232421875,-0.5518798828125
1738772983633195300,10.2121953125,-0.842315673828125,-0.0027313232421875,-0.55157470703125
1738772983643186200,10.222186279296874,-0.843292236328125,-0.0013580322265625,-0.5525054931640625
1738772983653177300,10.23217724609375,-0.8446502685546875,-0.002899169921875,-0.5537109375
1738772983663168300,10.242168212890626,-0.843902587890625,-0.003692626953125,-0.5524749755859375
1738772983673159200,10.2521591796875,-0.842926025390625,-0.0022430419921875,-0.551910400390625
1738772983683151400,10.2621513671875,-0.842071533203125,-0.003021240234375,-0.551361083984375
1738772983693142300,10.272142333984375,-0.841888427734375,-0.00384521484375,-0.552734375
1738772983703133200,10.28213330078125,-0.843658447265625,-0.0016021728515625,-0.552276611328125
1738772983713124400,10.292124267578124,-0.84228515625,-0.0030975341796875,-0.551300048828125
1738772983723115300,10.302115234375,-0.84246826171875,-0.00286865234375,-0.5527801513671875
1738772983733106200,10.312106201171876,-0.84375,-0.0039825439453125,-0.552154541015625
1738772983743098400,10.322098388671876,-0.8424224853515625,-0.0026397705078125,-0.551666259765625
1738772983753089300,10.33208935546875,-0.842376708984375,-0.0026092529296875,-0.55218505859375
1738772983763080200,10.342080078125,-0.843017578125,-0.0024566650390625,-0.55206298828125
1738772983773071400,10.3520712890625,-0.8420257568359375,-0.0029144287109375,-0.552703857421875
1738772983783062300,10.362062255859374,-0.84210205078125,-0.002471923828125,-0.55230712890625
1738772983793053200,10.37205322265625,-0.8437347412109375,-0.0025482177734375,-0.5525054931640625
1738772983803044000,10.382044189453126,-0.84222412109375,-0.0029754638671875,-0.552398681640625
1738772983813036300,10.392036376953126,-0.8428955078125,-0.00274658203125,-0.552001953125
1738772983823027200,10.402027099609375,-0.84344482421875,-0.0041351318359375,-0.5525665283203125
1738772983833018400,10.412018310546875,-0.84307861328125,-0.002410888671875,-0.553070068359375
1738772983843009300,10.42200927734375,-0.8432159423828125,-0.003021240234375,-0.5518798828125
1738772983853000200,10.432000244140625,-0.8432769775390625,-0.0020294189453125,-0.5518341064453125
1738772983862991000,10.4419912109375,-0.84429931640625,-0.0036163330078125,-0.552490234375
1738772983872982300,10.451982177734376,-0.8423919677734375,-0.0032196044921875,-0.5523529052734375
1738772983882974200,10.46197412109375,-0.842193603515625,-0.002471923828125,-0.552215576171875
1738772983892965000,10.471965087890625,-0.843505859375,-0.003082275390625,-0.5526123046875
1738772983902956300,10.481956298828125,-0.8426513671875,-0.0037078857421875,-0.5527496337890625
1738772983912947200,10.491947265625,-0.8414764404296875,-0.0028076171875,-0.5522613525390625
1738772983922938000,10.501938232421875,-0.8430938720703125,-0.0031585693359375,-0.5526885986328125
1738772983932929300,10.51192919921875,-0.843780517578125,-0.00323486328125,-0.5531005859375
1738772983942921200,10.521921142578124,-0.8429718017578125,-0.0032806396484375,-0.552276611328125
1738772983952912100,10.531912109375,-0.8430938720703125,-0.00213623046875,-0.55059814453125
1738772983962903300,10.5419033203125,-0.842559814453125,-0.0034027099609375,-0.5509033203125
1738772983972894200,10.551894287109375,-0.8416595458984375,-0.0036773681640625,-0.5517425537109375
1738772983982885000,10.561885009765625,-0.8430633544921875,-0.0024566650390625,-0.553070068359375
1738772983992876300,10.571876220703125,-0.8438873291015625,-0.0036773681640625,-0.5531463623046875
1738772984002867200,10.5818671875,-0.8424072265625,-0.0042877197265625,-0.552459716796875
1738772984012859100,10.591859130859374,-0.8423919677734375,-0.003021240234375,-0.55224609375
1738772984022850300,10.601850341796874,-0.8425140380859375,-0.0045166015625,-0.5538787841796875
1738772984032841200,10.61184130859375,-0.8425140380859375,-0.0036163330078125,-0.552032470703125
1738772984042832100,10.62183203125,-0.84185791015625,-0.0041961669921875,-0.5524749755859375
1738772984052823300,10.6318232421875,-0.8433074951171875,-0.0037384033203125,-0.553131103515625
1738772984062814200,10.641814208984375,-0.8430328369140625,-0.003143310546875,-0.55133056640625
1738772984072806100,10.65180615234375,-0.8423309326171875,-0.001800537109375,-0.55279541015625
1738772984082797300,10.66179736328125,-0.843719482421875,-0.0029449462890625,-0.5532379150390625
1738772984092788200,10.671788330078124,-0.84246826171875,-0.0041961669921875,-0.5529632568359375
1738772984102779100,10.681779052734376,-0.84295654296875,-0.0034942626953125,-0.55169677734375
1738772984112770000,10.69177001953125,-0.842071533203125,-0.0023956298828125,-0.55145263671875
1738772984122761200,10.70176123046875,-0.841400146484375,-0.00323486328125,-0.5520782470703125
1738772984132752100,10.711752197265625,-0.842987060546875,-0.0029296875,-0.552276611328125
1738772984142744300,10.721744384765625,-0.8438720703125,-0.003692626953125,-0.5521697998046875
1738772984152735200,10.7317353515625,-0.842437744140625,-0.0022735595703125,-0.5521392822265625
1738772984162726000,10.741725830078124,-0.84222412109375,-0.00244140625,-0.5510711669921875
1738772984172716800,10.751716796875,-0.8428955078125,-0.003143310546875,-0.55218505859375
1738772984182708000,10.7617080078125,-0.8437347412109375,-0.0026702880859375,-0.55267333984375
1738772984192699000,10.771698974609375,-0.8440093994140625,-0.0033111572265625,-0.5508270263671875
1738772984202689800,10.781689697265625,-0.8427886962890625,-0.0020904541015625,-0.5521087646484375
1738772984212682000,10.791681884765625,-0.8422088623046875,-0.0027313232421875,-0.55224609375
1738772984222673000,10.8016728515625,-0.843841552734375,-0.003387451171875,-0.5514984130859375
1738772984232663800,10.811663818359374,-0.84259033203125,-0.0036773681640625,-0.5536956787109375
1738772984242655000,10.821655029296876,-0.8414459228515625,-0.004974365234375,-0.5528717041015625
1738772984252646000,10.83164599609375,-0.8439178466796875,-0.00286865234375,-0.5508575439453125
1738772984262636800,10.84163671875,-0.8415679931640625,-0.00341796875,-0.55279541015625
1738772984272629000,10.85162890625,-0.841461181640625,-0.004302978515625,-0.55224609375
1738772984282620000,10.861619873046875,-0.8437347412109375,-0.0031890869140625,-0.55224609375
1738772984292610800,10.87161083984375,-0.8415679931640625,-0.002166748046875,-0.5525360107421875
1738772984302602000,10.88160205078125,-0.842926025390625,-0.0042266845703125,-0.55218505859375
1738772984312593000,10.891593017578124,-0.8441619873046875,-0.0028839111328125,-0.55224609375
1738772984322583800,10.901583740234376,-0.8423614501953125,-0.002899169921875,-0.55206298828125
1738772984332574700,10.91157470703125,-0.8420257568359375,-0.002410888671875,-0.5529327392578125
1738772984342567000,10.92156689453125,-0.8435821533203125,-0.0035247802734375,-0.553131103515625
1738772984352557800,10.931557861328125,-0.8431549072265625,-0.002838134765625,-0.551849365234375
1738772984362548700,10.941548828125,-0.8420257568359375,-0.0035400390625,-0.5516510009765625
1738772984372540000,10.951539794921874,-0.842437744140625,-0.00286865234375,-0.5515289306640625
1738772984382530800,10.96153076171875,-0.84423828125,-0.0031280517578125,-0.5518798828125
1738772984392522000,10.97152197265625,-0.842437744140625,-0.002044677734375,-0.5513153076171875
1738772984402514000,10.981513916015626,-0.8416900634765625,-0.0021514892578125,-0.5517120361328125
1738772984412504800,10.9915048828125,-0.8416595458984375,-0.0027008056640625,-0.551422119140625
1738772984422495700,11.001495849609375,-0.8432769775390625,-0.0021209716796875,-0.5529632568359375
1738772984432487000,11.01148681640625,-0.8419647216796875,-0.002288818359375,-0.551483154296875
1738772984442477800,11.021477783203125,-0.8420562744140625,-0.00390625,-0.5518341064453125
1738772984452469000,11.031468994140624,-0.84222412109375,-0.0030517578125,-0.5520782470703125
1738772984462460200,11.041460205078126,-0.8423004150390625,-0.0035400390625,-0.5533905029296875
1738772984472451800,11.051451904296876,-0.8421783447265625,-0.002105712890625,-0.552825927734375
1738772984482442800,11.06144287109375,-0.8434600830078125,-0.00323486328125,-0.5517120361328125
1738772984492434000,11.071433837890625,-0.8438262939453125,-0.002960205078125,-0.5516510009765625
1738772984502424800,11.0814248046875,-0.8431396484375,-0.002838134765625,-0.551483154296875
1738772984512416000,11.091416015625,-0.84259033203125,-0.0022125244140625,-0.552215576171875
1738772984522407200,11.1014072265625,-0.8423614501953125,-0.0034942626953125,-0.55206298828125
1738772984532398000,11.111398193359374,-0.842681884765625,-0.003082275390625,-0.55157470703125
1738772984542389800,11.1213896484375,-0.8437957763671875,-0.00274658203125,-0.5536346435546875
1738772984552381000,11.131380859375,-0.842498779296875,-0.0027313232421875,-0.55328369140625
1738772984562372000,11.1413720703125,-0.843902587890625,-0.003173828125,-0.5522308349609375
1738772984572363000,11.151363037109375,-0.8428802490234375,-0.002777099609375,-0.551513671875
1738772984582354000,11.16135400390625,-0.842254638671875,-0.003631591796875,-0.5516815185546875
1738772984592345000,11.171344970703124,-0.8424835205078125,-0.0033416748046875,-0.552276611328125
1738772984602336800,11.181336669921874,-0.8426055908203125,-0.00274658203125,-0.5518798828125
1738772984612328000,11.191327880859374,-0.8428955078125,-0.0040435791015625,-0.551483154296875
1738772984622319000,11.201319091796876,-0.8434600830078125,-0.003265380859375,-0.552581787109375
1738772984632310000,11.21131005859375,-0.8431854248046875,-0.0025787353515625,-0.5524139404296875
1738772984642301000,11.221301025390625,-0.8436737060546875,-0.00323486328125,-0.5516815185546875
1738772984652292000,11.2312919921875,-0.8433990478515625,-0.003570556640625,-0.552215576171875
1738772984662283000,11.241282958984375,-0.8433837890625,-0.0028076171875,-0.5519561767578125
1738772984672275000,11.25127490234375,-0.8426666259765625,-0.0023956298828125,-0.5526580810546875
1738772984682266000,11.26126611328125,-0.843780517578125,-0.002105712890625,-0.5525970458984375
1738772984692257000,11.271257080078126,-0.843048095703125,-0.0027923583984375,-0.552581787109375
1738772984702248000,11.281248046875,-0.8440093994140625,-0.00262451171875,-0.5519561767578125
1738772984712239000,11.291239013671875,-0.842498779296875,-0.0025177001953125,-0.5520477294921875
1738772984722230000,11.30122998046875,-0.842987060546875,-0.0038299560546875,-0.5519866943359375
1738772984732221000,11.311220947265625,-0.84210205078125,-0.002044677734375,-0.5517578125
1738772984742213000,11.321213134765625,-0.843109130859375,-0.0026702880859375,-0.5525054931640625
1738772984752204000,11.3312041015625,-0.8435516357421875,-0.00244140625,-0.5515899658203125
1738772984762195000,11.34119482421875,-0.842254638671875,-0.0042572021484375,-0.5538330078125
1738772984772186000,11.35118603515625,-0.8434600830078125,-0.0031585693359375,-0.5532684326171875
1738772984782177000,11.361177001953125,-0.842193603515625,-0.0028839111328125,-0.551849365234375
1738772984792168000,11.37116796875,-0.8435821533203125,-0.003082275390625,-0.55303955078125
1738772984802160000,11.38116015625,-0.8426055908203125,-0.003662109375,-0.553375244140625
1738772984812151000,11.391151123046875,-0.84197998046875,-0.00274658203125,-0.5523529052734375
1738772984822142000,11.401141845703124,-0.842437744140625,-0.0030059814453125,-0.5516204833984375
1738772984832133000,11.411133056640624,-0.841949462890625,-0.0021514892578125,-0.552642822265625
1738772984842124000,11.4211240234375,-0.8429718017578125,-0.0029144287109375,-0.551788330078125
1738772984852115000,11.431114990234375,-0.841400146484375,-0.0037384033203125,-0.5517578125
1738772984862105900,11.44110595703125,-0.842376708984375,-0.0034637451171875,-0.5518341064453125
1738772984872098000,11.45109814453125,-0.842559814453125,-0.0026702880859375,-0.5523681640625
1738772984882089000,11.4610888671875,-0.84375,-0.00341796875,-0.5536041259765625
1738772984892079900,11.471079833984374,-0.8431549072265625,-0.0010833740234375,-0.5524444580078125
1738772984902071000,11.481071044921874,-0.843231201171875,-0.0027923583984375,-0.550567626953125
1738772984912062000,11.49106201171875,-0.842498779296875,-0.0038909912109375,-0.5521240234375
1738772984922052900,11.501052978515625,-0.8429412841796875,-0.0027923583984375,-0.5506134033203125
1738772984932045000,11.511045166015625,-0.84185791015625,-0.0034027099609375,-0.5521697998046875
1738772984942036000,11.521035888671875,-0.8426666259765625,-0.002655029296875,-0.5528564453125
1738772984952027000,11.53102685546875,-0.842987060546875,-0.0020751953125,-0.5530548095703125
1738772984962018000,11.54101806640625,-0.8433837890625,-0.0033416748046875,-0.5521697998046875
1738772984972009000,11.551009033203124,-0.841827392578125,-0.0027923583984375,-0.5521697998046875
1738772984981999900,11.560999755859376,-0.8425445556640625,-0.0035858154296875,-0.5520782470703125
1738772984991992000,11.570991943359376,-0.842987060546875,-0.002777099609375,-0.551666259765625
1738772985001983000,11.58098291015625,-0.84271240234375,-0.002777099609375,-0.55169677734375
1738772985011974000,11.590973876953125,-0.8413238525390625,-0.0036468505859375,-0.550994873046875
1738772985021965000,11.600965087890625,-0.8435211181640625,-0.003448486328125,-0.551300048828125
1738772985031956000,11.6109560546875,-0.843658447265625,-0.0015106201171875,-0.55218505859375
1738772985041947000,11.62094677734375,-0.843597412109375,-0.00341796875,-0.55194091796875
1738772985051938000,11.63093798828125,-0.8424224853515625,-0.0027923583984375,-0.551177978515625
1738772985061930000,11.640929931640626,-0.84326171875,-0.0030975341796875,-0.552581787109375
1738772985071921000,11.6509208984375,-0.84271240234375,-0.003143310546875,-0.55242919921875
1738772985081912000,11.660912109375,-0.841888427734375,-0.0025634765625,-0.552001953125
1738772985091903000,11.670903076171875,-0.84295654296875,-0.0032501220703125,-0.55322265625
1738772985101894000,11.680893798828125,-0.8426666259765625,-0.0029296875,-0.552581787109375
1738772985111884800,11.690884765625,-0.841827392578125,-0.00323486328125,-0.552764892578125
1738772985121877000,11.700876953125,-0.842010498046875,-0.00274658203125,-0.5525054931640625
1738772985131868000,11.710867919921874,-0.8430023193359375,-0.0027313232421875,-0.551361083984375
1738772985141859000,11.720859130859376,-0.8433074951171875,-0.00390625,-0.552734375
1738772985151850000,11.73085009765625,-0.84222412109375,-0.0022430419921875,-0.552520751953125
1738772985161841700,11.740841552734375,-0.84356689453125,-0.00213623046875,-0.551788330078125
1738772985171832800,11.750832763671875,-0.8438720703125,-0.0030059814453125,-0.5520477294921875
1738772985181823700,11.76082373046875,-0.844207763671875,-0.002044677734375,-0.5512237548828125
1738772985191816000,11.77081591796875,-0.8424224853515625,-0.0019683837890625,-0.5523681640625
1738772985201806800,11.780806884765624,-0.842864990234375,-0.00335693359375,-0.5518341064453125
1738772985211797800,11.7907978515625,-0.8444671630859375,-0.0040283203125,-0.552978515625
1738772985221788700,11.80078857421875,-0.8430023193359375,-0.0026092529296875,-0.5523223876953125
1738772985231779800,11.81077978515625,-0.8424072265625,-0.0030517578125,-0.5514984130859375
1738772985241770800,11.820770751953125,-0.844024658203125,-0.0027618408203125,-0.5527496337890625
1738772985251762700,11.8307626953125,-0.8427734375,-0.0027313232421875,-0.551483154296875
1738772985261753900,11.84075390625,-0.841766357421875,-0.0022735595703125,-0.551666259765625
1738772985271744800,11.850744873046875,-0.842620849609375,-0.0029754638671875,-0.5527496337890625
1738772985281735700,11.860735595703124,-0.8411712646484375,-0.0027008056640625,-0.5517578125
1738772985291726800,11.870726806640626,-0.8420562744140625,-0.00311279296875,-0.552520751953125
1738772985301717800,11.8807177734375,-0.84259033203125,-0.0030975341796875,-0.5507659912109375
1738772985311708700,11.890708740234375,-0.8428192138671875,-0.0015869140625,-0.5509490966796875
1738772985321700900,11.900700927734375,-0.84356689453125,-0.003753662109375,-0.5520477294921875
1738772985331691800,11.91069189453125,-0.8433837890625,-0.0034332275390625,-0.552154541015625
1738772985341682700,11.9206826171875,-0.8419189453125,-0.0033111572265625,-0.5516510009765625
1738772985351673900,11.930673828125,-0.8430938720703125,-0.0017547607421875,-0.55194091796875
1738772985361664800,11.940664794921876,-0.8434906005859375,-0.003143310546875,-0.552215576171875
1738772985372280800,11.95128076171875,-0.843475341796875,-0.0039520263671875,-0.5518646240234375
1738772985382271700,11.961271728515625,-0.842437744140625,-0.0036468505859375,-0.5527801513671875
1738772985392262700,11.9712626953125,-0.843170166015625,-0.0037841796875,-0.55303955078125
1738772985402253600,11.981253662109374,-0.84375,-0.0028076171875,-0.5525665283203125
1738772985412244700,11.99124462890625,-0.84259033203125,-0.0043487548828125,-0.552032470703125
1738772985422236700,12.001236572265626,-0.842987060546875,-0.0024566650390625,-0.551910400390625
1738772985432227800,12.011227783203125,-0.8429412841796875,-0.0028228759765625,-0.5508270263671875
1738772985442218800,12.02121875,-0.842193603515625,-0.0032958984375,-0.55157470703125
1738772985452209700,12.031209716796875,-0.84381103515625,-0.00323486328125,-0.5520477294921875
1738772985462200600,12.04120068359375,-0.84307861328125,-0.0027618408203125,-0.5522003173828125
1738772985472191700,12.051191650390624,-0.8425445556640625,-0.00286865234375,-0.551361083984375
1738772985482182700,12.0611826171875,-0.8420867919921875,-0.0030517578125,-0.5529632568359375
1738772985492174600,12.071174560546876,-0.8424072265625,-0.004180908203125,-0.55303955078125
1738772985502165800,12.081165771484375,-0.842864990234375,-0.00347900390625,-0.5523223876953125
1738772985512156700,12.09115673828125,-0.8427276611328125,-0.002532958984375,-0.55084228515625
1738772985522147600,12.101147705078125,-0.8427581787109375,-0.0031585693359375,-0.55181884765625
1738772985532138800,12.111138671875,-0.8426666259765625,-0.0041046142578125,-0.5531005859375
1738772985542129700,12.121129638671874,-0.8434600830078125,-0.0020904541015625,-0.55169677734375
1738772985552121600,12.13112158203125,-0.84259033203125,-0.002716064453125,-0.5522003173828125
1738772985562112800,12.14111279296875,-0.8424530029296875,-0.002410888671875,-0.5514068603515625
1738772985572103700,12.151103759765626,-0.843170166015625,-0.001861572265625,-0.5528564453125
1738772985582094600,12.161094482421875,-0.84356689453125,-0.002532958984375,-0.551544189453125
1738772985592085800,12.171085693359375,-0.8431243896484375,-0.0033111572265625,-0.55181884765625
1738772985602076700,12.18107666015625,-0.8424072265625,-0.0039215087890625,-0.5523223876953125
1738772985612067600,12.191067626953124,-0.8416900634765625,-0.0037689208984375,-0.5513916015625
1738772985622059800,12.201059814453124,-0.8414459228515625,-0.00341796875,-0.55084228515625
1738772985632050700,12.21105078125,-0.8427886962890625,-0.003631591796875,-0.5512237548828125
1738772985642041600,12.22104150390625,-0.8431854248046875,-0.003082275390625,-0.5520782470703125
1738772985652032800,12.23103271484375,-0.84283447265625,-0.003753662109375,-0.5516204833984375
1738772985662023700,12.241023681640625,-0.84356689453125,-0.0032501220703125,-0.5523681640625
1738772985672014600,12.2510146484375,-0.841827392578125,-0.0029144287109375,-0.5522308349609375
1738772985682006800,12.2610068359375,-0.84234619140625,-0.002288818359375,-0.5520172119140625
1738772985691997700,12.270997802734374,-0.842193603515625,-0.003387451171875,-0.552490234375
1738772985701988600,12.280988525390624,-0.843353271484375,-0.0025177001953125,-0.5523834228515625
1738772985711979500,12.2909794921875,-0.8418731689453125,-0.0020599365234375,-0.551361083984375
1738772985722595600,12.301595703125,-0.8417510986328125,-0.0031890869140625,-0.5521087646484375
1738772985732586500,12.31158642578125,-0.8428955078125,-0.0039825439453125,-0.552337646484375
1738772985742577700,12.32157763671875,-0.84197998046875,-0.0044403076171875,-0.5525360107421875
1738772985752568800,12.33156884765625,-0.842681884765625,-0.0034027099609375,-0.5510711669921875
1738772985762559700,12.341559814453126,-0.84228515625,-0.0025787353515625,-0.55206298828125
1738772985772551700,12.3515517578125,-0.8421173095703125,-0.00274658203125,-0.552490234375
1738772985782542600,12.36154248046875,-0.8435516357421875,-0.00360107421875,-0.552764892578125
1738772985792533800,12.37153369140625,-0.8428192138671875,-0.0042572021484375,-0.552764892578125
1738772985802525000,12.38152490234375,-0.843109130859375,-0.0028076171875,-0.5524139404296875
1738772985812515800,12.391515869140624,-0.843841552734375,-0.002960205078125,-0.5531768798828125
1738772985822506800,12.4015068359375,-0.8432769775390625,-0.0019989013671875,-0.5528717041015625
1738772985832498000,12.411497802734376,-0.8425140380859375,-0.0039215087890625,-0.5523834228515625
1738772985842489600,12.421489501953126,-0.8433380126953125,-0.003875732421875,-0.5514373779296875
1738772985852480800,12.431480712890625,-0.8427734375,-0.004058837890625,-0.5525360107421875
1738772985862472000,12.441471923828125,-0.843780517578125,-0.0017852783203125,-0.5536346435546875
1738772985872462800,12.451462890625,-0.843109130859375,-0.00225830078125,-0.552001953125
1738772985882453800,12.461453857421875,-0.844512939453125,-0.00262451171875,-0.5519866943359375
1738772985892445000,12.47144482421875,-0.842132568359375,-0.0020294189453125,-0.5524139404296875
1738772985902436600,12.4814365234375,-0.842498779296875,-0.0025634765625,-0.5527496337890625
1738772985912427800,12.491427734375,-0.8420257568359375,-0.00244140625,-0.5537872314453125
1738772985922419000,12.5014189453125,-0.8427886962890625,-0.0035247802734375,-0.5530548095703125
1738772985932409900,12.511409912109375,-0.8438262939453125,-0.0028228759765625,-0.5528564453125
1738772985942400800,12.52140087890625,-0.8420257568359375,-0.0032501220703125,-0.551177978515625
1738772985952391700,12.5313916015625,-0.843353271484375,-0.0024566650390625,-0.551544189453125
1738772985962384000,12.5413837890625,-0.8437042236328125,-0.003265380859375,-0.5528564453125
1738772985972374800,12.551374755859374,-0.842681884765625,-0.0025787353515625,-0.551727294921875
1738772985982366000,12.561365966796876,-0.844024658203125,-0.00335693359375,-0.55194091796875
1738772985992356900,12.57135693359375,-0.8429412841796875,-0.003631591796875,-0.552642822265625
1738772986002347800,12.58134765625,-0.843170166015625,-0.0026092529296875,-0.5522308349609375
1738772986012338700,12.591338623046875,-0.8430938720703125,-0.0031585693359375,-0.552093505859375
1738772986022331000,12.601330810546875,-0.84320068359375,-0.00225830078125,-0.55169677734375
1738772986032321800,12.61132177734375,-0.8422698974609375,-0.003875732421875,-0.5518798828125
1738772986042312700,12.621312744140624,-0.842742919921875,-0.003753662109375,-0.5527801513671875
1738772986052304000,12.631303955078126,-0.8415985107421875,-0.0020599365234375,-0.5525665283203125
1738772986062294800,12.641294677734376,-0.8438262939453125,-0.0029449462890625,-0.5517578125
1738772986072285700,12.65128564453125,-0.842559814453125,-0.0020294189453125,-0.55255126953125
1738772986082278000,12.66127783203125,-0.84320068359375,-0.003662109375,-0.5525360107421875
1738772986092268800,12.671268798828125,-0.843475341796875,-0.0041046142578125,-0.5511474609375
1738772986102259700,12.681259765625,-0.842041015625,-0.002349853515625,-0.5512237548828125
1738772986112251000,12.6912509765625,-0.8436431884765625,-0.0021514892578125,-0.5529022216796875
1738772986122241800,12.70124169921875,-0.8425445556640625,-0.0023193359375,-0.5525054931640625
1738772986132232700,12.711232666015626,-0.84210205078125,-0.0034027099609375,-0.5502471923828125
1738772986142225000,12.721224853515626,-0.8415374755859375,-0.002960205078125,-0.5528411865234375
1738772986152215800,12.7312158203125,-0.843475341796875,-0.0030975341796875,-0.5542755126953125
1738772986162206700,12.741206787109375,-0.844207763671875,-0.004058837890625,-0.552490234375
1738772986172197600,12.75119775390625,-0.842437744140625,-0.003387451171875,-0.5527496337890625
1738772986182188500,12.7611884765625,-0.841796875,-0.00244140625,-0.552581787109375
