time,seconds_elapsed,z,y,x
1738772973449721900,0.028721923828125,-0.00038143451092764735,-0.000508464640006423,-0.000795239582657814
1738772973459712800,0.038712646484375,0.0018975469283759594,0.0006747343577444553,-0.00010378945444244891
1738772973469705000,0.048705078125,0.0006471927044913173,0.0004726001061499119,0.000877052778378129
1738772973479696000,0.05869580078125,-0.001343987649306655,-0.00037586153484880924,0.0014136835234239697
1738772973489687000,0.06868701171875,0.0007892043795436621,0.0003130983095616102,0.0004400318721309304
1738772973499678000,0.078677978515625,0.0001425795489922166,0.0015314463526010513,-0.00039736187318339944
1738772973509668900,0.0886689453125,-0.0004672843497246504,0.0013564764522016048,-0.000539042055606842
1738772973519659800,0.09865966796875,0.0002113846130669117,0.0006486603524535894,-0.0005571083747781813
1738772973529652000,0.10865185546875,0.00016344781033694744,-0.0002871747128665447,-0.0010852132691070437
1738772973539643000,0.118642822265625,-0.00013159634545445442,-0.00032666511833667755,-0.00018819014076143503
1738772973549634000,0.128634033203125,0.0007160878740251064,-0.00014636898413300514,0.0014760191552340984
1738772973559625000,0.138625,0.001605355180799961,0.00013539870269596577,0.0014849056024104357
1738772973569616000,0.148615966796875,-0.0020050923340022564,0.0005447266157716513,0.00030752213206142187
1738772973579606800,0.158606689453125,-0.0012488908832892776,0.00028068386018276215,0.0012863125884905457
1738772973589598000,0.168597900390625,-0.0006563375354744494,-0.0007238604594022036,0.0013566199922934175
1738772973599590000,0.17858984375,0.0007589126471430063,0.0007664340082556009,-0.0016920233611017466
1738772973609580800,0.188580810546875,0.0005144344177097082,0.0005579085554927588,-0.0006853484665043652
1738772973619572000,0.198572021484375,0.0004204339347779751,-0.0014274136628955603,0.00021728991123382002
1738772973629563000,0.20856298828125,0.001339224399998784,-0.0005922464188188314,0.0003142289933748543
1738772973639553800,0.2185537109375,-0.00013673544162884355,-0.0011281510815024376,0.00029866310069337487
1738772973649545000,0.228544921875,-0.000408910505939275,-0.0005497124511748552,-0.0009905732003971934
1738772973659537000,0.238536865234375,-0.001517396536655724,0.0006208678241819143,0.0004727401537820697
1738772973669527800,0.24852783203125,0.00035693624522536993,0.0003915696870535612,-0.0018247689586132765
1738772973679519000,0.25851904296875,0.00047328881919384,-0.0010793651454150677,0.00035439833300188184
1738772973689510000,0.268510009765625,0.000933749251998961,0.00038910191506147385,0.0008257778245024383
1738772973699500800,0.278500732421875,-0.0013777525164186954,0.0010064360685646534,-0.00020489183953031898
1738772973709492000,0.288491943359375,-0.00051968201296404,-0.0010274199303239584,0.0007583735277876258
1738772973719484000,0.29848388671875,0.0014086035080254078,-0.00005338946357369423,0.00007859228935558349
1738772973729474800,0.308474853515625,0.00017396197654306889,-0.0006456763949245214,-0.0006090358947403729
1738772973739466000,0.318466064453125,-0.0005166298360563815,-0.0004483980592340231,0.00014111623750068247
1738772973749457000,0.328456787109375,-0.0002788095735013485,-0.000013237353414297104,0.0009307434665970504
1738772973759447800,0.33844775390625,0.0010065374663099647,-0.0006473937537521124,-0.0007958191563375294
1738772973769438700,0.348438720703125,0.0002475365763530135,-0.0005421987734735012,-0.0004096608026884496
1738772973779430000,0.358429931640625,-0.0006806404562667012,0.0011628291103988886,0.0006621645879931748
1738772973789421800,0.368421875,0.0005939484108239412,-0.0001913884188979864,-0.00009630369459046051
1738772973799413000,0.3784130859375,-0.0006904453039169312,-0.000024877255782485008,0.00023474720364902169
1738772973809404000,0.38840380859375,0.0006398035911843181,0.0006715392228215933,0.0006302266265265644
1738772973819394800,0.398394775390625,0.0004792328691110015,0.0009705752599984407,0.00021666419343091547
1738772973829385700,0.4083857421875,0.0005484749563038349,0.0010267680045217276,-0.0009639150812290609
1738772973839377000,0.418376953125,0.0003153607249259949,0.00018010754138231277,0.0005088872276246548
1738772973849368800,0.428368896484375,-0.0007634858484379947,-0.0006822238210588694,0.0016061095520853996
1738772973859360000,0.438360107421875,0.0007755754049867392,0.0009425675962120295,-0.000040770391933619976
1738772973869351000,0.448350830078125,0.0022155465558171272,0.0006773166824132204,0.00022501307830680162
1738772973879341800,0.458341796875,-0.0002334087621420622,-0.00013487576507031918,0.000993848778307438
1738772973889332700,0.468332763671875,-0.0004973280010744929,0.0009503623005002737,-0.0010977978818118572
1738772973899324000,0.478323974609375,-0.0000977151794359088,-0.0003657108172774315,0.00029587128665298223
1738772973909315800,0.48831591796875,-0.0001709521166048944,-0.0014754501171410084,-0.0009904354810714722
1738772973919306800,0.498306640625,0.0010577647481113672,0.0023570344783365726,0.0014667768264189363
1738772973929298000,0.5082978515625,-0.0004961898666806519,0.0005085342563688755,0.0001458488986827433
1738772973939288800,0.518288818359375,0.0019734397064894438,-0.0006941733881831169,0.000744433025829494
1738772973949279700,0.52827978515625,-0.00017360079800710082,0.0004933301825076342,0.0015463108429685235
1738772973959271000,0.53827099609375,-0.00009254773613065481,0.00039762374944984913,0.00020484774722717702
1738772973969261800,0.54826171875,-0.0007452884456142783,-0.00015072105452418327,-0.0006287216674536467
1738772973979253800,0.558253662109375,0.0006995745934545994,0.0005574754904955626,0.0005923035787418485
1738772973989245000,0.568244873046875,0.000407159561291337,-0.0005456057842820883,-0.0004705640021711588
1738772973999235800,0.57823583984375,0.0010741213336586952,0.0007276884280145168,-0.00034588397829793394
1738772974009226800,0.588226806640625,0.0019971728324890137,-0.0013051023706793785,0.0005531992064788938
1738772974019218000,0.598218017578125,-0.0002256756415590644,-0.0014635564293712378,-0.00016259885160252452
1738772974029208800,0.608208740234375,0.0024510675575584173,-0.0006651405710726976,-9.449722710996866e-7
1738772974039200800,0.61820068359375,0.0003578912001103163,0.0006341636180877686,0.0008842326351441443
1738772974049192000,0.62819189453125,-0.00029484956758096814,0.00046425405889749527,0.000055190539569593966
1738772974059182800,0.638182861328125,0.000354645773768425,-0.0014957638923078775,0.0010707464534789324
1738772974069173800,0.648173828125,0.0011152445804327726,0.0008701884653419256,-0.0007939988281577826
1738772974079164700,0.65816455078125,0.0004045492969453335,0.001517362194135785,-0.0005695355357602239
1738772974089155800,0.66815576171875,0.0007510265568271279,-0.00006615323945879936,-0.00040095747681334615
1738772974099147800,0.678147705078125,0.0013195695355534554,0.0006080239545553923,0.0006810115883126855
1738772974109139000,0.688138916015625,0.0004159588133916259,-0.0002271435223519802,-0.00033844640711322427
1738772974119129900,0.6981298828125,0.0006988310487940907,-0.00008680112659931183,-0.000017775542801246047
1738772974129120800,0.708120849609375,0.0007315879920497537,-0.0005493920762091875,-0.00040473282570019364
1738772974139111700,0.718111572265625,-0.00021326151909306645,-0.00041307532228529453,0.0006986669031903148
1738772974149103600,0.728103515625,-0.00030354270711541176,0.001064180163666606,-0.0007892411667853594
1738772974159095800,0.738095703125,0.00020292424596846104,0.00006477604620158672,0.0002733257715590298
1738772974169086700,0.748086669921875,0.0008388870628550649,0.0006786345038563013,-0.0007663723081350327
1738772974179077600,0.75807763671875,-0.0003077421570196748,-0.0003133397549390793,0.0013507632538676262
1738772974189068800,0.76806884765625,-0.001468880451284349,-0.0002992250956594944,0.0006253181491047144
1738772974199059700,0.778059814453125,-0.000588047259952873,0.001475189346820116,0.0006958942394703627
1738772974209050600,0.788050537109375,-0.001001636148430407,-0.0009440260473638773,0.0006844426388852298
1738772974219042800,0.798042724609375,-0.0009161491761915386,-0.000687677413225174,-0.0008681450271978974
1738772974229033700,0.80803369140625,-0.0012040368746966124,-0.00006689457222819328,0.00026849217829294503
1738772974239024600,0.818024658203125,-0.0008468547603115439,-0.0004493433516472578,0.00010368708171881735
1738772974249015800,0.828015869140625,-0.0002732098218984902,-0.0005164551548659801,-0.00017141747230198234
1738772974259006700,0.8380068359375,-0.0004942530649714172,0.0002802843227982521,0.00026981713017448783
1738772974268997600,0.84799755859375,0.002389684086665511,-0.00012877723202109337,-0.000030054798116907477
1738772974278988800,0.85798876953125,-0.0007738624699413776,0.0008059791289269924,-0.000987572013400495
1738772974288980700,0.867980712890625,-0.0007933034794405103,-0.00011147977784276009,-0.001124192145653069
1738772974298971600,0.8779716796875,0.00016792281530797482,-0.0003298486117273569,0.00042480259435251355
1738772974308962800,0.887962890625,0.001215610420331359,0.00019692443311214447,-0.00040530471596866846
1738772974318953700,0.89795361328125,0.0002958321711048484,-0.00003145914524793625,-0.00038104894338175654
1738772974328944600,0.907944580078125,0.0023722988553345203,0.001858053496107459,0.001042943331412971
1738772974338935800,0.917935791015625,0.0006647180998697877,0.0010565405245870352,0.000895631150342524
1738772974348927700,0.927927734375,-0.0008556805551052094,-0.0007205866277217865,0.00006765435682609677
1738772974358918700,0.937918701171875,0.0003931462997570634,-0.00009258324280381203,0.0007753975223749876
1738772974368909800,0.947909912109375,0.0001939418725669384,0.00030396156944334507,0.0016800733283162117
1738772974378900700,0.957900634765625,0.00033985194750130177,0.0000935983844101429,0.0003342399140819907
1738772974388891600,0.9678916015625,-0.0009429927449673414,0.0007916130125522614,-0.0000074436538852751255
1738772974398882600,0.977882568359375,0.0006332732737064362,0.0007194720674306154,-0.0009339613607153296
1738772974408873700,0.987873779296875,-0.0003718036459758878,0.0006611489225178957,0.00072785111842677
1738772974418865700,0.99786572265625,0.0003765667788684368,0.0012088003568351269,-0.0015375344082713127
1738772974428856800,1.00785693359375,-0.00009108427911996841,0.0008324957452714443,-0.000021663232473656535
1738772974438847700,1.01784765625,0.0005674663698300719,-0.00008142925798892975,0.0015748824225738645
1738772974448838700,1.027838623046875,-0.0011084608267992735,-0.0007259142585098743,-0.0012009304482489824
1738772974458829600,1.03782958984375,0.0022812639363110065,0.00023152213543653488,0.0003783724387176335
1738772974468820700,1.04782080078125,-0.0016612798208370805,0.00021927151829004288,-0.0008088647155091166
1738772974478812700,1.057812744140625,-0.0005043256678618491,-0.0007487356197088957,-0.00010020348418038338
1738772974488803600,1.067803466796875,0.000995300360955298,0.00018763169646263123,0.0015783869894221425
1738772974498794800,1.077794677734375,0.0007211572956293821,0.00148446811363101,-0.0004814334388356656
1738772974508785700,1.08778564453125,0.000934742740355432,-0.0004583077970892191,-0.0008902286645025015
1738772974518776600,1.097776611328125,-0.0005780311184935272,0.0011479139793664217,-0.0004992323811165988
1738772974528767700,1.107767822265625,0.00007231277413666248,-0.0007626377046108246,-0.0007839243626222014
1738772974538759700,1.117759765625,-0.00011099118273705244,0.00045814760960638523,0.00167292810510844
1738772974548750600,1.12775048828125,-0.00006971217226237059,0.0008445724379271269,-0.0007303085294552147
1738772974558741800,1.13774169921875,0.00023426034022122622,0.00012364238500595093,-0.001324684009887278
1738772974568732700,1.147732666015625,-0.00015615904703736305,0.0013020914047956467,0.00035497170756570995
1738772974578723600,1.1577236328125,-0.0006694354233331978,-0.0001427801325917244,0.00011188516509719193
1738772974588714800,1.16771484375,0.0013734755339100957,-0.0009108358062803745,-0.0011733563151210546
1738772974598706700,1.177706787109375,0.00024535972625017166,-0.000048496294766664505,0.001282616169191897
1738772974608697600,1.187697509765625,-0.0004542527021840215,0.00017680693417787552,0.0005816721823066473
1738772974618688800,1.197688720703125,0.0005532482173293829,0.0008603539317846298,0.00019297399558126926
1738772974628679700,1.2076796875,0.00007441185880452394,0.0013208147138357162,-0.0001977117353817448
1738772974638670600,1.217670654296875,-0.0010365546913817525,-0.00010110344737768173,-0.0002357350313104689
1738772974648661800,1.227661865234375,-0.0018155293073505163,-0.0009290801826864481,0.0011488423915579915
1738772974658652700,1.237652587890625,0.0017428669380024076,-0.0025837586726993322,0.0006202810327522457
1738772974668644600,1.24764453125,0.0014081074623391032,-0.0011264770291745663,-0.0002337946934858337
1738772974678635800,1.2576357421875,-0.0003407156909815967,-0.0003840862773358822,0.0007548840949311852
1738772974688626700,1.267626708984375,0.00015543121844530106,-0.00045252940617501736,-0.0009514031698927283
1738772974698617600,1.27761767578125,-0.0009759748354554176,-0.0011922488920390606,-0.0011503658024594188
1738772974708608500,1.2876083984375,0.00048423639964312315,0.00018966523930430412,-0.0002709900727495551
1738772974718599700,1.297599609375,-0.000041222781874239445,-0.0006734950002282858,-0.0013457078021019697
1738772974728591600,1.307591552734375,0.001224311301484704,0.0007483665831387043,-0.00216835830360651
1738772974738582800,1.317582763671875,-0.00017017556820064783,-0.00028208945877850056,0.0008249986567534506
1738772974748573700,1.32757373046875,0.00006897631101310253,-0.00035106553696095943,0.0006082172621972859
1738772974758564600,1.337564697265625,0.00044546532444655895,0.00006691156886518002,-0.0007907608523964882
1738772974768555500,1.347555419921875,-0.001574542373418808,-0.0009336380753666162,-0.00123044871725142
1738772974778546700,1.357546630859375,-0.0017452130559831858,-0.00007990351878106594,-0.00001193255593534559
1738772974788538600,1.36753857421875,0.0015363339334726334,0.0011113286018371582,0.0007694389205425978
1738772974798529500,1.377529541015625,0.0001541515812277794,-0.00008692778646945953,-0.0009578987956047058
1738772974808520700,1.387520751953125,-0.00036836054641753435,0.0002968336921185255,0.0007172295590862632
1738772974818511600,1.39751171875,-0.00023901090025901794,-0.0006274364423006773,-0.000819907640106976
1738772974828502500,1.40750244140625,-0.0024816589429974556,-0.0004580593667924404,-0.0005634452681988478
1738772974838494000,1.417493896484375,-0.0008284627692773938,0.000365204643458128,-0.0010695017408579588
1738772974848485600,1.427485595703125,-0.00011793139856308699,-0.00018766755238175392,0.00021733759786002338
1738772974858476500,1.4374765625,0.0016848754603415728,-0.0009426961187273264,-0.001356975408270955
1738772974868467700,1.4474677734375,0.0016947293188422918,0.00019207666628062725,0.002150141168385744
1738772974878458600,1.457458740234375,0.0002047999296337366,0.0002865646965801716,0.0032092800829559565
1738772974888449800,1.46744970703125,0.00008655560668557882,-0.0007129197474569082,-0.000022199659724719822
1738772974898441000,1.47744091796875,-0.0008853457984514534,0.0014109413605183363,0.00022501489729620516
1738772974908432600,1.4874326171875,-0.0005407327553257346,0.00020106718875467777,-0.000604027125518769
1738772974918423600,1.497423583984375,-0.00040780880954116583,0.0012206330429762602,0.0012351734330877662
1738772974928414700,1.507414794921875,0.00002815062180161476,-0.0007594272028654814,0.002692455193027854
1738772974938405600,1.517405517578125,-0.00006916048005223274,0.001349461730569601,0.0004056142643094063
1738772974948396800,1.527396728515625,0.0017055700300261378,-0.0007182164117693901,0.0011204066686332226
1738772974958388000,1.537387939453125,-0.00024306564591825008,0.00010586949065327644,0.00009917913121171296
1738772974968379600,1.547379638671875,-0.00018181296763941646,-0.0016254514921456575,0.0005117027903907001
1738772974978370600,1.55737060546875,0.0010962355881929398,0.00027652690187096596,-0.00044854183215647936
1738772974988361700,1.56736181640625,0.00220411061309278,-0.0008518544491380453,-0.0009806414600461721
1738772974998352600,1.5773525390625,-0.0010137815261259675,0.0005676685832440853,0.0010198289528489113
1738772975008343800,1.58734375,0.002001715824007988,-0.0006512601394206285,0.0012195659801363945
1738772975018334700,1.597334716796875,0.0009234466124325991,0.0005306887906044722,-0.0014686810318380594
1738772975028326700,1.60732666015625,0.0011777784675359726,-0.0004951606970280409,0.0001441292988602072
1738772975038317600,1.617317626953125,-0.0005104924202896655,-0.001260553952306509,0.0008862445829436183
1738772975048308700,1.627308837890625,0.0016639786772429943,0.0011512048076838255,0.00013869532267563045
1738772975058300000,1.6372998046875,-0.00024066126206889749,-0.000056983670219779015,0.0007870104163885117
1738772975068290800,1.647290771484375,0.0005047575104981661,0.0007206592708826065,-0.0004212658095639199
1738772975078281700,1.65728173828125,0.0002586072077974677,-0.0013622359838336706,-0.0001620430120965466
1738772975088273000,1.66727294921875,0.001425870810635388,-0.0010993820615112782,0.0005732557619921863
1738772975098264600,1.6772646484375,-0.000584362365771085,0.0009910063818097115,0.0009231723961420357
1738772975108255700,1.687255859375,0.00050460419151932,-0.001299312338232994,-0.0009753951453603804
1738772975118247000,1.697246826171875,0.0008551225764676929,0.0004677122924476862,0.0007488575647585094
1738772975128237800,1.70723779296875,0.0018040069844573736,-0.0004947541747242212,0.0006652343436144292
1738772975138228700,1.717228759765625,-0.0006664617685601115,0.00026317033916711807,0.00023083083215169609
1738772975148218600,1.727218505859375,0.0012307740980759263,-0.0008407100103795528,-0.00020353076979517937
1738772975158210800,1.7372109375,0.00011864444240927696,-0.0004737104754894972,0.0002765870885923505
1738772975168201700,1.74720166015625,0.0010819098679348826,0.00034228223375976086,0.00044117041397839785
1738772975178192600,1.757192626953125,0.0013411873951554298,-0.0001632405910640955,-0.0011123083531856537
1738772975188183800,1.767183837890625,0.00029509770683944225,0.001045568147674203,0.0013931936118751764
1738772975198174700,1.7771748046875,0.00015154085122048855,0.0006701555103063583,0.0005960746202617884
1738772975208165600,1.78716552734375,0.0011978968977928162,0.0009069107472896576,0.0005028639570809901
1738772975218157800,1.79715771484375,0.0008237012661993504,0.00012254389002919197,-0.0012332929763942957
1738772975228148700,1.807148681640625,0.0010410151444375515,0.00004584481939673424,-0.0007384777418337762
1738772975238139600,1.8171396484375,0.0011675362475216389,0.0011173500679433346,-0.0010174333583563566
1738772975248130800,1.827130859375,0.00009321712423115969,0.0021274867467582226,-0.0009428648045286536
1738772975258121700,1.837121826171875,0.0003952576080337167,-0.0011203903704881668,0.0008783304947428405
1738772975268112600,1.847112548828125,0.001270638662390411,0.0005965493619441986,-0.0005778860067948699
1738772975278103600,1.857103515625,-0.0012021594448015094,0.0017662632744759321,0.0010370896197855473
1738772975288095700,1.867095703125,0.0014807089464738965,0.000769974896684289,0.0003175034944433719
1738772975298086700,1.877086669921875,-0.0006630721036344767,-0.001115960069000721,-0.00010185975406784564
1738772975308077800,1.887077880859375,-0.0008950334740802646,-0.0004371204413473606,-0.00008854395127855241
1738772975318068700,1.89706884765625,0.0005687448428943753,-0.0009912888053804636,-0.00008606811752542853
1738772975328059600,1.9070595703125,-0.0003345994045957923,0.000304338987916708,0.0001136689679697156
1738772975338050600,1.917050537109375,0.0008122996659949422,0.000025717075914144516,-0.001700099790468812
1738772975348042800,1.927042724609375,0.00043785921297967434,0.00013570557348430157,0.0009215159225277603
1738772975358033700,1.93703369140625,-0.00014446594286710024,0.0006163355428725481,-0.00032863274100236595
1738772975368024600,1.947024658203125,0.000959680532105267,0.000011531636118888855,-0.0008546070312149823
1738772975378015700,1.957015625,0.0006650050636380911,0.002339774975553155,0.00041947263525798917
1738772975388006700,1.967006591796875,0.00006179919000715017,0.0013203166890889406,0.0006583581562153995
1738772975397997600,1.97699755859375,0.001541185425594449,0.0004120604135096073,-0.00033823182457126677
1738772975407988700,1.98698876953125,0.00170470355078578,-0.0000947390217334032,0.0005864177364856005
1738772975417980700,1.996980712890625,0.001706510316580534,0.0011569384951144457,0.0004960090154781938
1738772975427971600,2.0069716796875,0.0014899952802807093,-0.00020446931011974812,-0.0023333332501351833
1738772975437962800,2.016962646484375,-0.0006760979304090142,-0.0003475341945886612,-0.0006501296302303672
1738772975447953700,2.02695361328125,-0.000235078448895365,-0.00045991968363523483,-0.0008037940715439618
1738772975457944600,2.036944580078125,0.0011842534877359867,-0.00007852236740291119,0.0003600533527787775
1738772975467935700,2.046935791015625,0.00006173097062855959,0.00030097831040620804,-0.002089522313326597
1738772975477927700,2.056927734375,0.0012117523001506925,0.0010901836212724447,0.00022305722814053297
1738772975487918600,2.066918701171875,0.001075931009836495,-0.0006975962314754725,0.0002185298944823444
1738772975497909800,2.07690966796875,-0.00022907747188583016,-0.00038253283128142357,0.0008207388455048203
1738772975507900700,2.086900634765625,0.00023777468595653772,-0.00014844094403088093,-0.0007965988479554653
1738772975517891600,2.0968916015625,-0.0006507026264443994,-0.000989730702713132,0.0009395876550115645
1738772975527882500,2.106882568359375,-0.00031301379203796387,0.00015915697440505028,-0.00021276217012200505
1738772975537873700,2.116873779296875,0.0005626603960990906,0.0006659040227532387,-0.00012476708798203617
1738772975547865600,2.126865478515625,-0.0006128588574938476,0.0002808107528835535,-0.0007447509560734034
1738772975557856800,2.136856689453125,-0.0005093489307910204,0.00026501319371163845,-0.0005371940787881613
1738772975567847700,2.14684765625,-0.00005075254011899233,0.00014463835395872593,-0.0004338634025771171
1738772975577838600,2.156838623046875,-0.0000595262972638011,0.001722418237477541,0.001227559638209641
1738772975587829500,2.16682958984375,-0.0003617950715124607,0.00028005032800137997,0.000489597674459219
1738772975597820700,2.176820556640625,0.0015222827205434442,0.0017150761559605598,-0.0017429902218282223
1738772975607812600,2.1868125,0.0002527537290006876,-0.00045673176646232605,0.0005217618891038001
1738772975617803800,2.1968037109375,-0.0014878814108669758,-0.00012176297605037689,0.0005345245008356869
1738772975627794700,2.206794677734375,0.0002434395719319582,-0.00035745278000831604,0.0005193444667384028
1738772975637785600,2.21678564453125,0.00048511731438338757,0.0004799377638846636,0.0006675338954664767
1738772975647776500,2.226776611328125,-0.0005974576342850924,0.000982742989435792,-0.00032076521893031895
1738772975657767700,2.236767578125,0.00026810832787305117,0.0004366491921246052,-0.0018476925324648619
1738772975667758600,2.246758544921875,0.0012010136852040887,0.00044756801798939705,0.001046630903147161
1738772975677750500,2.25675048828125,-0.0008567649638280272,0.0017685287166386843,0.00002236157888546586
1738772975687741700,2.26674169921875,-0.0007196121150627732,-0.0007010207045823336,-0.00043090846156701446
1738772975697732600,2.276732666015625,0.0002317461185157299,-0.000843455083668232,-0.0004151933826506138
1738772975707723500,2.2867236328125,0.0024288538843393326,-0.0000791279599070549,0.0011547401081770658
1738772975717714700,2.296714599609375,-0.00017223774921149015,-0.0008510809857398272,-0.00048658018931746483
1738772975727705600,2.30670556640625,0.0019383173203095794,0.000014979159459471703,0.0005256873555481434
1738772975737697500,2.316697509765625,0.0011127993930131197,0.0012157654855400324,-0.00044180400436744094
1738772975747688700,2.326688720703125,-0.0002752402797341347,0.00026581622660160065,0.00021626311354339123
1738772975757679600,2.3366796875,-0.0002669964451342821,0.0003522983752191067,0.00030454242369160056
1738772975767670500,2.34667041015625,-0.00044516194611787796,0.000018071848899126053,0.0009966980433091521
1738772975777661700,2.35666162109375,-0.0017095125513151288,0.0013956755865365267,0.00043586999527178705
1738772975787652600,2.366652587890625,-0.00033159309532493353,0.00010564015246927738,-0.00014310119149740785
1738772975797643800,2.376643798828125,0.0005046500591561198,-0.0000589294359087944,0.0008017810760065913
1738772975807635700,2.3866357421875,-0.001530005014501512,0.0010537391062825918,0.0005581018049269915
1738772975817626600,2.396626708984375,0.00006261456292122602,0.00020429561845958233,-0.0002539493143558502
1738772975827617500,2.406617431640625,-0.0015818874817341566,0.00024078087881207466,-0.00047206220915541053
1738772975837608400,2.4166083984375,-0.0003420771099627018,0.0016151973977684975,-0.000623864121735096
1738772975847599900,2.426599853515625,-0.0002752317814156413,0.00024739792570471764,-0.000060339225456118584
1738772975857590800,2.4365908203125,0.0010798911098390818,0.0009827010799199343,0.0006330469041131437
1738772975867581700,2.446581787109375,0.0022988198325037956,-0.0004644608125090599,0.00047219201223924756
1738772975877573600,2.45657373046875,0.0006756798829883337,-0.000044921645894646645,0.001494997413828969
1738772975887564500,2.466564453125,0.0012935332488268614,0.0004291210789233446,-0.0008917275117710233
1738772975897555700,2.4765556640625,-0.00022365653421729803,0.0005337914917618036,-0.00040109059773385525
1738772975907547000,2.486546875,-0.0005520243430510163,-0.0015141793992370367,-0.00045861484250053763
1738772975917537800,2.496537841796875,0.0008203483885154128,-0.00011478806845843792,-0.0004185405559837818
1738772975927528700,2.50652880859375,-0.0011360096978023648,-0.0005550086498260498,-0.0007975084008648992
1738772975937520600,2.516520751953125,-0.0009482233435846865,-0.0005352301523089409,0.0007348208455368876
1738772975947511600,2.526511474609375,0.0008848304860293865,0.0002621202729642391,0.000697003910318017
1738772975957502700,2.536502685546875,0.0017584082670509815,0.0015070007648319006,-0.000569257652387023
1738772975967494000,2.546493896484375,0.00038421712815761566,-0.0006395070813596249,-0.00016126135597005486
1738772975977484800,2.55648486328125,0.0007003025384619832,0.00048308377154171467,0.00018109451048076153
1738772975987475700,2.566475830078125,-0.0009857446420937777,0.0001722928136587143,-0.0002527344331610948
1738772975997467000,2.576466796875,0.0007909613195806742,0.0005107882898300886,-0.0019463852513581514
1738772976007458600,2.58645849609375,-0.0015864426968619227,-0.000398681266233325,0.0007977358181960881
1738772976017449700,2.59644970703125,-0.00047501514200121164,0.001114910701289773,0.0007325600017793477
1738772976027441000,2.60644091796875,-0.0005570405046455562,0.00037481822073459625,0.0008753054426051676
1738772976037431800,2.616431884765625,0.00008297048043459654,0.0004826122894883156,-0.00036424287827685475
1738772976047422700,2.626422607421875,-0.0009221064974553883,-0.0011336600873619318,0.0020352653227746487
1738772976057413600,2.63641357421875,0.0006984950741752982,0.001190699404105544,0.0004921264480799437
1738772976067404800,2.64640478515625,-0.000263438792899251,-0.00016884435899555683,-0.0010461154161021113
1738772976077396700,2.656396728515625,-0.0007820189348421991,0.00014034914784133434,-0.0005093983490951359
1738772976087388000,2.666387939453125,0.0005223973421379924,-0.000839161453768611,-0.0001317621354246512
1738772976097378800,2.67637890625,0.00042148015927523375,0.0009718975052237511,-0.0018148153321817517
1738772976107369700,2.68636962890625,-0.0008869308512657881,-0.0013996476773172617,0.0008121267892420292
1738772976117360600,2.696360595703125,-0.0007708952180109918,0.000337864737957716,-0.00021115390700288117
1738772976127351800,2.706351806640625,0.00044776732102036476,0.00013652979396283627,0.0007462524808943272
1738772976137343700,2.71634375,0.0008513955399394035,-0.0014881384558975697,-0.00034463295014575124
1738772976147334700,2.726334716796875,-0.0003076121211051941,0.0010365380439907312,-0.0002647381043061614
1738772976157326300,2.736326416015625,-0.0020372001454234123,0.001513077411800623,0.0010757051641121507
1738772976167317500,2.7463173828125,0.0002837446518242359,-0.0006643233355134726,0.000058111356338486075
1738772976177308700,2.75630859375,-0.00014953827485442162,0.00048031657934188843,0.0006082348991185427
1738772976187299600,2.766299560546875,-0.000656337768305093,-0.0010555286426097155,0.0003280703676864505
1738772976197290800,2.776290771484375,-0.0009762068511918187,-0.0009657212067395449,0.00043251924216747284
1738772976207282400,2.786282470703125,-0.000032382551580667496,0.000551215372979641,0.0007947091362439096
1738772976217273600,2.796273681640625,0.0018239563796669245,0.0005146819166839123,-0.00045713200233876705
1738772976227264800,2.8062646484375,0.0013030420523136854,-0.00029065809212625027,-0.0013125392142683268
1738772976237255700,2.816255615234375,-0.00008406699635088444,0.0006285221315920353,-0.0011382880620658398
1738772976247246600,2.82624658203125,0.0011761407367885113,0.0009291926398873329,0.000296356767648831
1738772976257237800,2.83623779296875,0.00053594377823174,-0.0000075963325798511505,0.00021532279788516462
1738772976267228700,2.846228759765625,-0.0009090873645618558,-0.0004044072702527046,-0.0004904148518107831
1738772976277220600,2.856220703125,-0.0006957149016670883,0.0003547871019691229,-0.0005559762357734144
1738772976287211800,2.866211669921875,0.000596717232838273,-0.00014668633230030537,-0.0005535794189199805
1738772976297202700,2.87620263671875,0.001355427666567266,0.0005476251244544983,-0.0003172978467773646
1738772976307193600,2.886193603515625,-0.0004840175970457494,0.000803820788860321,-0.0007609804742969573
1738772976317184800,2.896184814453125,0.0007262281142175198,-0.00026978179812431335,-0.0001495914184488356
1738772976327175700,2.90617578125,-0.00041573529597371817,0.0006404865998774767,0.000887443486135453
1738772976337166600,2.91616650390625,-0.00035144167486578226,0.0007722743321210146,-0.0012381556443870068
1738772976347158800,2.92615869140625,0.0000043567270040512085,-0.00020830146968364716,-0.00035478512290865183
1738772976357149700,2.936149658203125,0.00032773357816040516,0.0001397386658936739,-0.000637328193988651
1738772976367140600,2.946140625,0.0003224072279408574,-0.00013030576519668102,0.0003312635235488415
1738772976377131500,2.956131591796875,-0.000025850371457636356,0.0008615998085588217,-0.0009402330033481121
1738772976387122700,2.966122802734375,-0.00002425245475023985,-0.0006585326045751572,-0.0005556725664064288
1738772976397113600,2.976113525390625,-0.00012309406884014606,-0.0004880370106548071,-0.00219244253821671
1738772976407104500,2.9861044921875,-0.0009691803716123104,0.000729826744645834,0.0013759268913418055
1738772976417096700,2.9960966796875,-0.00020263006445020437,0.0000937937293201685,0.0003994850267190486
1738772976427087600,3.006087646484375,-0.0016790865920484066,0.00028820475563406944,0.00019229113240726292
1738772976437078500,3.01607861328125,0.0006261975504457951,0.0004265198949724436,0.000011540018022060394
1738772976447069700,3.026069580078125,-0.00008167058695107698,0.001166079891845584,-0.000489134225063026
1738772976457060600,3.036060546875,-0.00027133047115057707,0.0002467627637088299,-0.00006112566916272044
1738772976467051500,3.046051513671875,-0.0022950666025280952,-0.0009396756067872047,-0.0009109403472393751
1738772976477042700,3.056042724609375,-0.00014951778575778008,-0.0002442637924104929,0.00037196645280346274
1738772976487034600,3.06603466796875,-0.00031889486126601696,0.0001272473018616438,-0.0001675899839028716
1738772976497025500,3.076025634765625,-0.00001663784496486187,0.0004856239538639784,0.0012112511321902275
1738772976507016700,3.0860166015625,-0.0018859105184674263,0.0006880240980535746,0.00020084786228835583
1738772976517007600,3.096007568359375,0.0016655906802043319,-0.0014337082393467426,-0.0004492957377806306
1738772976526998500,3.10599853515625,-0.0016641595866531134,0.0005455531645566225,-0.0001920343638630584
1738772976536989700,3.11598974609375,-0.0011910675093531609,0.0008093055803328753,-0.00018618445028550923
1738772976546980600,3.125980712890625,-0.001102384296245873,0.0005741484928876162,-0.0004620879190042615
1738772976556972500,3.13597265625,0.0002181422896683216,-0.00020990031771361828,0.0003063365293201059
1738772976566963700,3.145963623046875,0.00038964988198131323,-0.0003832720685750246,0.000727382255718112
1738772976576954600,3.15595458984375,-0.000464967277366668,-0.0006907256320118904,0.001094588777050376
1738772976586945500,3.165945556640625,0.0006655446486547589,-0.0010750198271125555,-0.000806375639513135
1738772976596936400,3.1759365234375,-0.00008647877257317305,0.000148045364767313,0.0013192371698096395
1738772976606927600,3.185927734375,0.0007638684473931789,0.0014005298726260662,-0.0012507132487371564
1738772976616918500,3.19591845703125,-0.0010366587666794658,0.0010206738952547312,-0.00046077268780209124
1738772976626910700,3.20591064453125,0.000015023513697087765,-0.0022233224008232355,-0.0004341410822235048
1738772976636901600,3.215901611328125,-0.0005021188990212977,-0.0009034543763846159,-0.0017843169625848532
1738772976646892500,3.225892578125,-0.0000738826347514987,-0.000219820998609066,0.00019094959134235978
1738772976656883500,3.235883544921875,0.0012990921968594193,0.0008514346554875374,0.000035691511584445834
1738772976666874600,3.24587451171875,-0.0012223887024447322,0.0005001639947295189,0.00010786316124722362
1738772976676865500,3.255865478515625,-0.00012068403884768486,-0.00004381616599857807,-0.0008926959708333015
1738772976686856400,3.2658564453125,0.0004654777003452182,-0.0009684658143669367,-0.001031446736305952
1738772976696848600,3.2758486328125,0.00018484867177903652,0.00043832440860569477,0.0007705662283115089
1738772976706839600,3.285839599609375,0.0009747421136125922,-0.0004415838047862053,-0.0010664823930710554
1738772976716830500,3.29583056640625,0.0013562901876866817,-0.0009392900392413139,-0.0003939777670893818
1738772976726821600,3.305821533203125,-0.00008607795462012291,-0.0011456850916147232,0.0008851385209709406
1738772976736812500,3.3158125,-0.0006851864163763821,0.0003050172235816717,0.0008749868138693273
1738772976746803500,3.325803466796875,0.0002447894075885415,-0.00006596092134714127,-0.0009420879068784416
1738772976756794400,3.33579443359375,-0.00034815771505236626,0.00009118206799030304,-0.0015396673697978258
1738772976766786600,3.34578662109375,-0.00004508998245000839,0.00000516185536980629,0.0005828719586133957
1738772976776777500,3.355777587890625,0.0002667505759745836,0.00018766196444630623,0.0014555761590600014
1738772976786768600,3.3657685546875,0.00011574930977076292,-0.0007345904596149921,0.001706978539004922
1738772976796759600,3.375759521484375,0.00008210912346839905,0.0009050911758095026,0.0002225283533334732
1738772976806750500,3.38575048828125,0.00030980934388935566,-0.0006174377631396055,-0.0004640345578081906
1738772976816741400,3.395741455078125,-0.00021204468794167042,0.0008141181897372007,0.000013291952200233936
1738772976826732500,3.405732666015625,-0.0006549284444190562,0.00004100264050066471,-0.0004301243752706796
1738772976836724500,3.415724365234375,-0.0011008686851710081,-0.002477893838658929,-0.000438738614320755
1738772976846715400,3.42571533203125,-0.00039406580617651343,-0.0004669409245252609,-0.0004560491652227938
1738772976856706600,3.43570654296875,-0.0022707118187099695,0.001304826932027936,0.00022131108562462032
1738772976866697500,3.445697509765625,-0.0008302079513669014,-0.0006163772195577621,-0.0016000247560441494
1738772976876688400,3.4556884765625,0.0010279907146468759,-0.00019609718583524227,0.0002728014369495213
1738772976886679600,3.465679443359375,0.00007218215614557266,0.0005533164367079735,0.00041208474431186914
1738772976896670500,3.47567041015625,-0.0008029060554690659,-0.0005011691246181726,-0.0009791270131245255
1738772976906662400,3.485662353515625,0.0021225763484835625,0.00021309079602360725,-0.00026566616725176573
1738772976916653600,3.495653564453125,-0.0008004216360859573,0.00009574578143656254,0.0007254192605614662
1738772976926644500,3.50564453125,-0.0003705874551087618,-0.0006400856655091047,-0.0011715503642335534
1738772976936635400,3.515635498046875,0.0008918590610846877,0.0006234780885279179,0.0007806757930666208
1738772976946626600,3.52562646484375,0.0003134205471724272,-0.0003653538879007101,0.00023179824347607791
1738772976956617500,3.535617431640625,0.0011111359344795346,-0.0006743671838194132,0.00030954653630033135
1738772976966608600,3.545608642578125,0.000216846470721066,0.000033501069992780685,0.0011420507216826081
1738772976976600600,3.5556005859375,-0.001342866919003427,0.001148442504927516,0.0008292071288451552
1738772976986591500,3.565591552734375,-0.001913848565891385,-0.0007179006934165955,-0.000015014986274763942
1738772976996582400,3.57558251953125,-0.0016257117968052626,0.00034130620770156384,-0.00007257677498273551
1738772977006573600,3.585573486328125,-0.0002981260186061263,-0.0008714974392205477,-0.0015903122257441282
1738772977016564500,3.595564453125,-0.0005572389345616102,0.000649674329906702,-0.0005503398133441806
1738772977026555600,3.6055556640625,0.002404462546110153,-0.001496034674346447,0.00044807925587520003
1738772977036546600,3.615546630859375,0.001022753887809813,0.001263071782886982,0.0010186885483562946
1738772977046538500,3.62553857421875,0.0008097010431811213,0.0011261855252087116,-0.0012244919780641794
1738772977056529400,3.635529296875,0.00017341668717563152,0.0005152837838977575,0.0011008708970621228
1738772977066520600,3.6455205078125,-0.0005166083574295044,0.00006520957686007023,-0.00025600966182537377
1738772977076511700,3.65551171875,0.0008273690473288298,0.000046987785026431084,0.00045290106208994985
1738772977086502700,3.665502685546875,0.00019673258066177368,-0.0002667324151843786,-0.00020516605582088232
1738772977096493600,3.67549365234375,0.00020219781436026096,0.0004957937635481358,-0.0003585133235901594
1738772977106484700,3.685484619140625,-0.0005181872984394431,0.0009104479104280472,-0.001484231441281736
1738772977116476400,3.695476318359375,0.0005532806972041726,-0.0013644755817949772,-0.00005450297612696886
1738772977126467600,3.705467529296875,0.000017452752217650414,0.00007496308535337448,0.00007039928459562361
1738772977136458800,3.715458740234375,-0.000107324100099504,0.00008533266372978687,0.00012058400898240507
1738772977146449700,3.72544970703125,0.00008176034316420555,0.0016973440069705248,-0.0007212412310764194
1738772977156440600,3.735440673828125,0.0010503228986635804,2.8242357075214386e-7,0.0010902321664616466
1738772977166431500,3.745431396484375,-0.000452765088994056,-0.00007828068919479847,0.0007935561006888747
1738772977176422400,3.75542236328125,-0.00010284618474543095,-0.0005112446378916502,0.0006255230400711298
1738772977186414600,3.76541455078125,-0.00018247461412101984,-0.00016077258624136448,0.0001839709293562919
1738772977196405500,3.775405517578125,-0.000014382763765752316,-0.00011793989688158035,0.0007006293162703514
1738772977206396400,3.785396484375,-0.0014311844715848565,0.0015452040825039148,0.0012194131268188357
1738772977216387600,3.7953876953125,0.001041101641021669,0.00035835616290569305,-0.0010594414779916406
1738772977226378500,3.80537841796875,-0.0004108537104912102,0.0002587540075182915,0.0006926521891728044
1738772977236369400,3.815369384765625,-0.000024567008949816227,0.0001718329731374979,0.0009362990967929363
1738772977246360600,3.825360595703125,-0.0007167225703597069,0.0003358840476721525,-0.0006448195781558752
1738772977256351500,3.8353515625,-0.000015762867406010628,-0.0008784492965787649,0.0004123666149098426
1738772977266343400,3.845343505859375,-0.00030418322421610355,-0.00005739671178162098,0.001366843469440937
1738772977276334600,3.85533447265625,-0.00029296381399035454,-0.0017193392850458622,0.0007729079807177186
1738772977286325500,3.865325439453125,0.0007089173886924982,-0.00008442485705018044,-0.0006143326172605157
1738772977296316400,3.87531640625,-0.0011100135743618011,0.0006056700367480516,0.0007827622466720641
1738772977306307600,3.8853076171875,0.00039733562152832747,0.00043576047755777836,0.000238145818002522
1738772977316298500,3.895298583984375,0.0011507145827636123,-0.00009840843267738819,-0.0005002123070880771
1738772977326289400,3.905289306640625,0.0007227446185424924,-0.0007548774592578411,0.0006297669606283307
1738772977336281600,3.915281494140625,-0.00016690650954842567,-0.00015199603512883186,-0.0007231130730360746
1738772977346272500,3.9252724609375,-0.00016078120097517967,0.0010328444186598063,-0.0009875649120658636
1738772977356263400,3.935263427734375,0.0014162445440888405,0.0003104596398770809,-0.00018632707360666245
1738772977366878500,3.94587841796875,-0.0003009617794305086,0.0005400241352617741,0.00153540656901896
1738772977376869400,3.955869384765625,0.001730416202917695,-0.0009627549443393946,-0.0006546406075358391
1738772977386860300,3.9658603515625,-0.0005942570278421044,0.0012130476534366608,0.000838860054500401
1738772977396851500,3.9758515625,-0.00021975638810545206,-0.00032657524570822716,-0.00007507020200137049
1738772977406843400,3.985843505859375,-0.0007627749000675976,0.000402331817895174,0.001023750053718686
1738772977416834300,3.995834228515625,0.00043994036968797445,-0.0005836249329149723,-0.00003732091863639653
1738772977426825500,4.005825439453125,0.0018777810037136078,-0.0013543437235057354,-0.0006325374124571681
1738772977436816400,4.01581640625,-0.0008565476746298373,-0.0004395442083477974,0.0002720451739151031
1738772977446807300,4.025807373046875,-0.0002978164702653885,-0.000022493069991469383,-0.0003617871552705765
1738772977456798500,4.035798583984375,-0.0010063252411782742,-0.0007518979255110025,0.00007588780135847628
1738772977466789400,4.045789306640625,0.0011764016235247254,-0.0004770597442984581,-0.0007997595239430666
1738772977476781300,4.05578125,-0.0005252067930996418,0.001524906838312745,0.0016689324984326959
1738772977486772500,4.0657724609375,-0.0006157542229630053,-0.00024662772193551064,0.00036664673825725913
1738772977496763400,4.075763427734375,-0.000050393398851156235,0.0009359680116176605,0.0006462726159952581
1738772977506754300,4.08575439453125,-0.0013063402147963643,0.00011624675244092941,-0.000014191347872838378
1738772977516745200,4.0957451171875,-0.0013540155487135053,0.0008320691995322704,0.0007155007333494723
1738772977526736400,4.105736328125,0.0011155337560921907,0.0007748110219836235,-0.0007441778434440494
1738772977536727600,4.1157275390625,-0.000615734257735312,-0.00008331960998475552,-0.0010726075852289796
1738772977546719500,4.125719482421875,-0.00042185618076473475,0.00030896393582224846,-0.0005391763988882303
1738772977556710400,4.13571044921875,0.0005992050282657146,0.0003700628876686096,0.0002862726687453687
1738772977566701300,4.145701416015625,0.0007153188344091177,-0.0008872153703123331,-0.0006040220614522696
1738772977576692200,4.155692138671875,-0.0012457378907129169,0.0007406473159790039,0.0000922944163903594
1738772977586683400,4.165683349609375,0.00002379098441451788,-0.0006958618760108948,-0.000694403366651386
1738772977596674600,4.175674560546875,-0.0009853541851043701,-0.00025239656679332256,0.0014304595533758402
1738772977606665500,4.18566552734375,0.0015616929158568382,-0.001220455626025796,-0.0008271021069958806
1738772977616656600,4.19565673828125,-0.0010509300045669079,-0.000006556510925292969,0.00045973138185217977
1738772977626648300,4.2056484375,-0.0008432033937424421,-0.0009402607101947069,-0.0003035305708181113
1738772977636639200,4.21563916015625,-0.00012968119699507952,-0.0008139482233673334,0.0015942073659971356
1738772977646630400,4.22563037109375,-0.0006580523913726211,0.0009578531607985497,-0.00143327412661165
1738772977656621600,4.23562158203125,0.00010853400453925133,0.00023266300559043884,-0.0007147796568460763
1738772977666612500,4.245612548828125,-0.00035219290293753147,-0.00024803727865219116,-0.00121705187484622
1738772977676603600,4.255603759765625,-0.0005454086931422353,-0.00027748430147767067,0.00024693255545571446
1738772977686594600,4.265594482421875,0.0008705940563231707,0.0010213395580649376,0.0004482674994505942
1738772977696586500,4.27558642578125,0.00012406893074512482,-0.00016556563787162304,-0.001837803516536951
1738772977706577700,4.28557763671875,-0.000937467091716826,-0.0010678446851670742,-0.001112092169933021
1738772977717193500,4.296193359375,-0.0006671975716017187,0.0005759759806096554,-0.0008144950261339545
1738772977727184600,4.3061845703125,0.0008697127923369408,0.00009261211380362511,0.00026248727226629853
1738772977737175600,4.316175537109375,0.00047541363164782524,-0.0010489067062735558,0.00009176245657727122
1738772977747166500,4.32616650390625,0.000780878122895956,-0.00016260682605206966,-0.0006741626420989633
1738772977757157400,4.336157470703125,0.0006381059065461159,0.0004907208494842052,-0.0013052476570010185
1738772977767148500,4.3461484375,0.0014791321009397507,-0.00039131822995841503,0.00007986236596480012
1738772977777140500,4.356140380859375,-0.00008400110527873039,-0.0022107823751866817,-0.00027203591889701784
1738772977787131600,4.366131591796875,0.001155167818069458,0.0007679632399231195,0.000028634967748075724
1738772977797122600,4.37612255859375,-0.0010997913777828217,-0.0007926942780613899,0.00005817503551952541
1738772977807113500,4.386113525390625,-0.00012161221820861101,0.0008664550259709358,0.001013983623124659
1738772977817104400,4.3961044921875,0.0006125536747276783,-0.0004955246113240719,-0.0008787509286776185
1738772977827095600,4.406095458984375,-0.00044871598947793245,-0.0008569154888391495,0.000601434032432735
1738772977837086500,4.41608642578125,-0.0002920891856774688,0.0007299501448869705,0.0023065784480422735
1738772977847078700,4.42607861328125,0.0009313670452684164,0.0010471325367689133,-0.0001278168783755973
1738772977857069600,4.436069580078125,0.0013416451402008533,0.00010127830319106579,0.0005482175620272756
1738772977867060500,4.446060546875,0.00019914901349693537,0.0017327305395156145,-0.00010186007420998067
1738772977877051400,4.456051513671875,0.0010304375318810344,-0.0014245600905269384,0.000021968589862808585
1738772977887042600,4.46604248046875,0.00021098286379128695,-0.000012818258255720139,-0.0008704566862434149
1738772977897033500,4.476033447265625,0.0012031516525894403,-0.00024997186847031116,0.0011421421077102423
1738772977907024400,4.4860244140625,0.0000010007061064243317,-0.001064366428181529,0.000378347554942593
1738772977917015600,4.496015625,-0.0008282343042083085,-0.0003390402998775244,0.00014672568067908287
1738772977927007500,4.506007568359375,-0.001397884450852871,0.00024126260541379452,0.001027432968840003
1738772977936998400,4.515998291015625,0.0011929463362321258,0.000903465086594224,-0.000044484331738203764
1738772977946989600,4.525989501953125,-0.00022731744684278965,0.0009905507322400808,-0.0004894985468126833
1738772977956980500,4.53598046875,0.000790830934420228,-0.0002467955928295851,0.00035914176260121167
1738772977966971400,4.545971435546875,-0.0005474076024256647,0.0007287203334271908,0.0013005692744627595
1738772977976962300,4.55596240234375,0.0018804821884259582,-0.0014005114790052176,0.0015318146906793118
1738772977986953500,4.565953369140625,-0.00009877909906208515,0.00006928713992238045,0.0018878792179748416
1738772977996945400,4.5759453125,-0.0003756068763323128,0.0009804884903132915,0.0007040920900180936
1738772978006936600,4.5859365234375,-0.000513025966938585,-0.0007545610424131155,-0.0017526739975437522
1738772978016927500,4.595927490234375,-0.0006723625701852143,0.00008556433022022247,-0.0008465726859867573
1738772978026918400,4.60591845703125,-0.0010835547000169754,0.0005750530399382114,0.00034146345569752157
1738772978036909300,4.615909423828125,0.0007024203659966588,-0.0012299350928515196,-0.00006990243127802387
1738772978046900500,4.625900390625,-0.0005005294224247336,-0.000561481574550271,-0.0013287786860018969
1738772978056892400,4.635892333984375,0.00034845899790525436,0.0006257579661905766,-0.0008603938040323555
1738772978066883300,4.64588330078125,0.00007175654172897339,-0.0006387108005583286,-0.0002848847070708871
1738772978076874500,4.65587451171875,0.0007389483507722616,-0.0008675255812704563,0.0006117625162005424
1738772978086865400,4.665865478515625,0.0007623841520398855,-0.00039348285645246506,0.0010109704453498125
1738772978096856300,4.675856201171875,0.0016571913147345185,0.00005247513763606548,0.00047113950131461024
1738772978106847500,4.685847412109375,0.000723753240890801,0.00069616106338799,-0.0018729747971519828
1738772978116838400,4.69583837890625,-0.001142531749792397,0.0016397906001657248,-0.0002014783676713705
1738772978126829300,4.705829345703125,-0.001347328769043088,-0.0011392177548259497,0.0016978881321847439
1738772978136821500,4.715821533203125,-0.0008121685823425651,0.0006600399501621723,0.0013442778727039695
1738772978146812400,4.7258125,0.0016659027896821499,-0.001129604410380125,-0.0013300685677677393
1738772978156802600,4.735802490234375,0.0005237803561612964,-0.00042385607957839966,0.001189999864436686
1738772978166793500,4.74579345703125,0.00039088865742087364,-0.0002917633391916752,0.0013535178732126951
1738772978176784600,4.75578466796875,-0.0011552724754437804,-0.0015340647660195827,0.0008351595606654882
1738772978186775800,4.76577587890625,0.00019734702073037624,-0.0011455095373094082,0.0004319569852668792
1738772978196766700,4.7757666015625,-0.0011926500592380762,0.0008696108125150204,0.00008316984894918278
1738772978206758700,4.785758544921875,-0.001007826765999198,0.0010523037053644657,-0.0004768929211422801
1738772978216749600,4.79574951171875,-0.0006000482244417071,0.00025505339726805687,-0.00022377680579666048
1738772978226740500,4.805740478515625,0.0013003835920244455,0.0002795546315610409,-0.0005374971660785377
1738772978236731600,4.815731689453125,0.00012293725740164518,-0.0005547662731260061,-0.0007425304502248764
1738772978246722800,4.825722900390625,-0.00036042649298906326,0.0005927896127104759,-0.0008104410371743143
1738772978256713700,4.835713623046875,0.0014388075796887279,-0.00023747817613184452,-0.0007036036113277078
1738772978266705000,4.845704833984375,0.0009415954118594527,0.0009992937557399273,0.001169663853943348
1738772978276696600,4.855696533203125,-0.0001884899102151394,-0.0007174606435000896,0.002141822362318635
1738772978286687500,4.8656875,-0.0006888979114592075,0.0007534029427915812,0.00041343082557432353
1738772978296678700,4.8756787109375,0.0012884789612144232,-0.00007998151704668999,-0.0003788024478126317
1738772978306669800,4.885669921875,-0.0012489808723330498,-0.000326590146869421,0.0007961842347867787
1738772978316660700,4.89566064453125,0.0016022056806832552,-0.0001441221684217453,-0.0005893498891964555
1738772978326652000,4.90565185546875,0.0012791641056537628,-0.0008400061633437872,0.001437848317436874
1738772978336642800,4.915642822265625,-0.0013988232240080833,-0.00021235202439129353,0.0006644027889706194
1738772978346634800,4.925634765625,-0.0011311755515635014,-0.0005138218402862549,0.00015467379125766456
1738772978356626000,4.9356259765625,0.0007220183033496141,0.001755966106429696,-0.0003465898334980011
1738772978366616800,4.945616943359375,0.00045144103933125734,-0.0003005268517881632,-0.0000054389238357543945
1738772978376607700,4.955607666015625,-0.00010573514737188816,-0.00009495974518358707,-0.000015711470041424036
1738772978386598700,4.9655986328125,-0.0006447589839808643,0.00038574100472033024,0.0007294410024769604
1738772978396589800,4.97558984375,-0.00024199928157031536,0.0005118804983794689,-0.00045418698573485017
1738772978406580700,4.985580810546875,0.0007534903706982732,-0.00022315210662782192,0.00016153583419509232
1738772978416573000,4.995572998046875,0.00010513816960155964,-0.00007117120549082756,0.0013388129882514477
1738772978426563800,5.005563720703125,-0.0023894449695944786,0.0011333762668073177,0.0022032749839127064
1738772978436554800,5.0155546875,-0.0011852348688989878,0.00010252813808619976,0.0003566340892575681
1738772978446545700,5.025545654296875,-0.000466181430965662,-0.00045061041601002216,-0.0005485743749886751
1738772978456536800,5.035536865234375,-0.0002292833523824811,-0.0002939184196293354,0.00045228961971588433
1738772978466527700,5.04552783203125,0.0005776544567197561,-0.001059843460097909,0.00040781483403407037
1738772978476518700,5.0555185546875,-0.0003564555663615465,-0.0003499407321214676,-0.0013093760935589671
1738772978486510800,5.0655107421875,0.00047604856081306934,0.0004117232747375965,0.0010749520733952522
1738772978496501800,5.075501708984375,0.001248969929292798,0.001282588578760624,-0.00027561490423977375
1738772978506492700,5.08549267578125,0.0002172613749280572,0.00020533986389636993,0.0012799374526366591
1738772978516483800,5.09548388671875,0.00031568831764161587,0.0010089892894029617,0.00011479062959551811
1738772978526474800,5.105474853515625,-0.0007666203309781849,-0.0007154075428843498,0.0006777829257771373
1738772978536465700,5.115465576171875,0.0001848330721259117,-0.00015095481649041176,0.002147868275642395
1738772978546456800,5.125456787109375,0.0012961700558662415,0.0015808988828212023,0.001531879068352282
1738772978556448800,5.13544873046875,-0.0009668705752119422,0.001249291468411684,-0.00043222171370871365
1738772978566439700,5.145439697265625,0.000577230122871697,0.0002487422898411751,0.0002737822651397437
1738772978576430800,5.155430908203125,0.00024404062423855066,-0.0004933499731123447,0.00046005440526641905
1738772978586421800,5.165421875,-0.00045210972893983126,-0.00002463371492922306,0.0006158493924885988
1738772978596412700,5.17541259765625,-0.0004248365294188261,-0.00020734337158501148,-0.00035238033160567284
1738772978606403600,5.185403564453125,-0.00011431192979216576,0.0009215706959366798,0.00012885287287645042
1738772978616394800,5.195394775390625,-0.0006551632541231811,-0.00017291097901761532,0.0009829591726884246
1738772978626386700,5.20538671875,-0.001493792631663382,-0.00010819616727530956,0.00041410798439756036
1738772978636377900,5.2153779296875,0.0003439908614382148,-0.000009624520316720009,0.000529348966665566
1738772978646368800,5.22536865234375,0.00016129808500409126,0.0004247371107339859,0.00010563997784629464
1738772978656359700,5.235359619140625,0.0006969348760321736,0.001126366900280118,0.001054708962328732
1738772978666350600,5.2453505859375,-0.0014583613956347108,0.000119426054880023,-0.0003519727033562958
1738772978676341800,5.255341796875,-0.00004875403828918934,0.0005973507650196552,-0.0011951171327382326
1738772978686332700,5.265332763671875,-0.0005459662061184645,-0.0009440870489925146,0.00020490663882810622
1738772978696323600,5.275323486328125,0.0003298817900940776,-0.0015052459202706814,0.0007133338367566466
1738772978706315800,5.285315673828125,-0.00015028612688183784,-0.00032253609970211983,0.0004938893252983689
1738772978716306700,5.295306640625,-0.0017246160423383117,0.00030498206615448,0.0009046522318385541
1738772978726297600,5.305297607421875,-0.0008215380948968232,-0.0006052865646779537,0.0002388619614066556
1738772978736288800,5.315288818359375,-0.0009701360249891877,-0.00009870948269963264,-0.0002538396220188588
1738772978746279700,5.32527978515625,-0.0013589574955403805,-0.0009858084376901388,0.00043485380592755973
1738772978756270600,5.3352705078125,0.0012894098181277514,0.0006985273212194443,0.0004240028792992234
1738772978766261500,5.345261474609375,0.0010728947818279266,0.00036030588671565056,0.000752903230022639
1738772978776253700,5.355253662109375,-0.0008444235427305102,0.0010837765876203775,0.00036129431100562215
1738772978786244600,5.36524462890625,-0.0007948887650854886,-0.0005016031209379435,-0.002212917199358344
1738772978796235800,5.37523583984375,-0.0009534166310913861,0.0004608428571373224,0.0006774776265956461
1738772978806226700,5.385226806640625,0.0014961590059101582,0.0007042556535452604,0.0009113031555898488
1738772978816217600,5.395217529296875,-0.0007711114594712853,0.001125306123867631,0.0020156060345470905
1738772978826208500,5.40520849609375,-0.00022010342217981815,-0.00019295886158943176,-0.0011311849812045693
1738772978836199700,5.41519970703125,0.0003667238634079695,0.00035632355138659477,-0.00019372659153304994
1738772978846191600,5.425191650390625,-0.00038854870945215225,0.0005675121210515499,-0.001308259554207325
1738772978856182500,5.4351826171875,-0.00017567514441907406,-0.00036470755003392696,0.0005628718063235283
1738772978866173700,5.445173583984375,0.0006656174082309008,0.000577785074710846,0.00029602303402498364
1738772978876164600,5.45516455078125,-0.00041586323641240597,0.0012611811980605125,-0.0021213344298303127
1738772978886155500,5.465155517578125,0.0005476684309542179,0.000055301934480667114,-0.0003926766221411526
1738772978896146700,5.475146728515625,-0.0007794729899615049,0.0002075578086078167,-0.0006781882839277387
1738772978906137600,5.4851376953125,-0.0004827968077734113,-0.000712031964212656,0.00045392150059342384
1738772978916128500,5.49512841796875,0.0002457087393850088,0.00022693956270813942,0.00024899657000787556
1738772978926120700,5.50512060546875,0.00047820270992815495,-0.0005677477456629276,-0.00009535017306916416
1738772978936111600,5.515111572265625,0.002265636343508959,-0.00046278489753603935,-0.0009730758029036224
1738772978946102500,5.5251025390625,-0.00007421697955578566,-0.0008912873454391956,0.00038540264358744025
1738772978956093700,5.53509375,-0.0011378342751413584,-0.0003576488234102726,0.0001454691810067743
1738772978966084600,5.545084716796875,-0.0007450179546140134,0.0007345136255025864,-0.0006249833386391401
1738772978976075800,5.55507568359375,0.0012267272686585784,0.0011556502431631088,-0.0009686145349405706
1738772978986066700,5.565066650390625,-0.0020433682948350906,-0.00004357099533081055,0.000776554923504591
1738772978996058600,5.57505859375,-0.0010830126702785492,0.00040057022124528885,-0.00115958449896425
1738772979006049500,5.585049560546875,-0.0005927246529608965,0.0005798009224236012,0.0000015537370927631855
1738772979016040700,5.595040771484375,0.0009395262459293008,-0.0004312950186431408,0.0010756540577858686
1738772979026031600,5.605031494140625,-0.0007579726516269147,-0.0001564566045999527,0.0001848267565947026
1738772979036022800,5.615022705078125,-0.0014680870808660984,0.00005691172555088997,-0.0005256852600723505
1738772979046013700,5.625013671875,0.00027681607753038406,-0.0007273892406374216,0.00009057021816261113
1738772979056004900,5.6350048828125,0.00007121753878891468,-0.00050171441398561,0.0006469429936259985
1738772979065996500,5.64499658203125,-0.0002443670528009534,-0.0010529886931180954,-0.0001101936650229618
1738772979075987500,5.654987548828125,0.0001877050381153822,-0.00041753961704671383,0.0017807215917855501
1738772979085978600,5.664978515625,-0.001006190082989633,0.000047182198613882065,-0.00019987135601695627
1738772979095969800,5.6749697265625,0.0012621908681467175,-0.0009164675138890743,-0.00046421121805906296
1738772979105960700,5.684960693359375,-0.0007945683901198208,-0.0008472253102809191,-0.0007899157935753465
1738772979115951900,5.694951904296875,-0.0008355786558240652,0.0002792775630950928,0.00003838862176053226
1738772979125942800,5.70494287109375,-0.00041692977538332343,-0.0011151537764817476,-0.000766951241530478
1738772979135933700,5.71493359375,-0.0004346463247202337,-0.000419053016230464,0.0012346120784059167
1738772979145926000,5.72492578125,0.00032142503187060356,-0.00038416567258536816,-0.0007686177268624306
1738772979155917000,5.7349169921875,-0.0004407863016240299,-0.0008248561061918736,-0.0013120808871462941
1738772979165908000,5.744907958984375,-0.00035050511360168457,-0.0008419002406299114,-0.00020527117885649204
1738772979175899000,5.75489892578125,0.0007085532415658236,0.0003789006732404232,0.00022779771825298667
1738772979185889800,5.764889892578125,-0.0001252825604751706,-0.0003542676568031311,0.0008757448522374034
1738772979195881000,5.774880859375,0.0004680771380662918,0.0003416920080780983,0.00040986810927279294
1738772979205871900,5.784871826171875,-0.001009977189823985,-0.00006630411371588707,0.0008612739620730281
1738772979215863800,5.79486376953125,0.0009301300160586834,-0.00113084283657372,-0.0006887932540848851
1738772979225855000,5.80485498046875,-0.0010363481706008315,0.00001032138243317604,0.0009591707494109869
1738772979235846000,5.814845947265625,0.0008736635791137815,0.000019724015146493912,0.00025001069298014045
1738772979245836800,5.8248369140625,-0.0001902693184092641,-0.00040877843275666237,-0.0005326923565007746
1738772979255828000,5.834827880859375,0.00003268313594162464,-0.000043112318962812424,0.00009698877693153918
1738772979265819000,5.84481884765625,0.0021075517870485783,-0.00026894849725067616,-0.0010191419860348105
1738772979275809800,5.854809814453125,-0.0006673635798506439,-0.00027387915179133415,0.0006622285582125187
1738772979285801000,5.864801025390625,0.0022844839841127396,-0.001787353539839387,0.0009775467915460467
1738772979295793000,5.87479296875,-0.000492952240165323,-0.0003389050252735615,-0.0010404916247352958
1738772979305783800,5.88478369140625,-0.0005235786084085703,-0.000334643991664052,0.0011182667221873999
1738772979315775000,5.89477490234375,0.00043695338536053896,-0.0007072906009852886,0.0004344079934526235
1738772979325766000,5.904765869140625,0.0007996760541573167,0.0009031230583786964,-0.0013222130946815014
1738772979335756800,5.9147568359375,0.0003537501906976104,0.00034986715763807297,-0.0007267904584296048
1738772979345747700,5.924747802734375,0.0002765185199677944,0.000341078732162714,0.001495084841735661
1738772979355739000,5.93473876953125,-0.0004259412526153028,0.0003455495461821556,-0.0007885223021730781
1738772979365730800,5.944730712890625,0.0012119027087464929,-0.0011117320973426104,-0.0005895841168239713
1738772979375722000,5.954721923828125,0.0018750206800177693,0.00014168722555041313,-0.00044229981722310185
1738772979385713000,5.964712890625,0.00024676392786204815,0.0010492922738194466,-0.00046493668924085796
1738772979395703800,5.974703857421875,-0.001451989053748548,-0.0006935170385986567,-0.0003447715425863862
1738772979405694700,5.98469482421875,0.0005405880510807037,-0.0005094928201287985,0.00048506943858228624
1738772979415686000,5.994685791015625,0.0007710016798228025,-0.0004131926689296961,0.00047831761185079813
1738772979425676800,6.0046767578125,-0.0002820122754201293,0.0000555235892534256,-0.0008620513835921884
1738772979435667700,6.014667724609375,-0.0003692683530971408,0.0004863152280449867,0.000822864705696702
1738772979445660000,6.024659912109375,-0.0008438436780124903,-0.0006694965995848179,0.00024016504175961018
1738772979455650800,6.03465087890625,-0.00011126801837235689,0.0008569215424358845,-0.0008379117352887988
1738772979465641700,6.044641845703125,-0.0001224532024934888,-0.00015135109424591064,0.00014532732893712819
1738772979475633000,6.0546328125,-0.00023360294289886951,-0.00027786497958004475,-0.00043490479583851993
1738772979485623800,6.064623779296875,0.0002537555992603302,0.0010236217640340328,-0.0003848373598884791
1738772979495614700,6.07461474609375,-0.0007207199814729393,-0.00026678526774048805,0.00018238744814880192
1738772979505606000,6.08460595703125,-0.0013769228244200349,0.0005084611475467682,0.00039437509258277714
1738772979515597800,6.094597900390625,-0.0009539332240819931,-0.0008869061712175608,-0.0002467502490617335
1738772979525588700,6.104588623046875,-0.0006820245180279016,0.0006215083412826061,0.0002778925118036568
1738772979535580000,6.114579833984375,-0.00008213415276259184,0.00022714771330356598,-0.000055318843806162477
1738772979545570800,6.12457080078125,-0.0010083816014230251,-0.0003369096666574478,-0.0008766376995481551
1738772979555561700,6.134561767578125,-0.0022668507881462574,-0.00020898622460663319,0.0009106581564992666
1738772979565552600,6.144552734375,-0.00020423252135515213,0.0003358963876962662,0.0009149191901087761
1738772979575543800,6.154543701171875,-0.0002543264999985695,0.0003237123601138592,-0.0009928414365276694
1738772979585535700,6.16453564453125,-0.00034727074671536684,0.0007522152736783028,0.00012195779709145427
1738772979595527000,6.17452685546875,-0.0002054153010249138,-0.0005365046672523022,0.0007826702785678208
1738772979605517800,6.184517822265625,0.0009999314788728952,-0.00028510228730738163,-0.0013214932987466455
1738772979615508700,6.1945087890625,0.000835767132230103,0.00045400019735097885,0.00048021189286373556
1738772979625499600,6.204499755859375,0.000008589355275034904,-0.0003233766183257103,-0.00004629505565389991
1738772979635490800,6.21449072265625,-0.00016790884546935558,0.00035564322024583817,-0.0005164615577086806
1738772979645481700,6.224481689453125,0.001074722153134644,0.0007601771503686905,0.0010641245171427727
1738772979655472600,6.23447265625,-0.00008242088370025158,-0.001347673824056983,-0.001284495578147471
1738772979665464800,6.24446484375,0.0008997530676424503,-0.00014419155195355415,0.0004910338902845979
1738772979675455700,6.254455810546875,-0.000926648557651788,0.00023880787193775177,0.0004557676147669554
1738772979685446700,6.26444677734375,-0.001269131083972752,-0.000006735790520906448,-0.000437989248894155
1738772979695437800,6.274437744140625,0.0007963479729369283,-0.0005411370657384396,-0.000953044684138149
1738772979705428700,6.2844287109375,-0.0011554828379303217,-0.0003696293570101261,-0.0008052393095567822
1738772979715419600,6.294419677734375,0.0008975072996690869,-0.00021964916959404945,0.0001232621434610337
1738772979725410800,6.304410888671875,-0.001199465710669756,0.0005734399892389774,0.0003544245264492929
1738772979735402800,6.31440283203125,0.0008726645028218627,-0.00016425526700913906,-0.0003691001620609313
1738772979745393700,6.3243935546875,0.0002050099428743124,0.0009121946059167385,0.0006045515183359385
1738772979755384800,6.334384765625,-0.00029657362028956413,-0.0005519604310393333,0.0005583815509453416
1738772979765375700,6.344375732421875,0.0009247519774362445,-0.00037352857179939747,0.0001842074270825833
1738772979775366700,6.35436669921875,0.00030628067906945944,-0.00010229973122477531,-0.0008395673357881606
1738772979785357800,6.36435791015625,0.0006591494893655181,0.0002998374402523041,-0.0008965589804574847
1738772979795349000,6.374348876953125,0.00014223670586943626,-0.0003096237778663635,0.00020420033251866698
1738772979805340000,6.38433984375,-0.00025484059005975723,0.00028692418709397316,0.000329368922393769
1738772979815331800,6.394331787109375,0.0001103586982935667,-0.0008877625223249197,-0.0010251353960484266
1738772979825322800,6.40432275390625,-0.0005692800041288137,-0.0010041426867246628,-0.0011148839257657528
1738772979835314000,6.41431396484375,-0.00041743647307157516,-0.0006789632607251406,-0.0008395363111048937
1738772979845304800,6.424304931640625,0.0014576951507478952,0.0007588774897158146,-0.0011503271525725722
1738772979855296000,6.4342958984375,0.0011003096587955952,-0.000589087838307023,0.0010063247755169868
1738772979865287000,6.444286865234375,-0.0008246231009252369,-0.00043329293839633465,0.0010444080689921975
1738772979875277800,6.45427783203125,0.0005353461019694805,-0.0007640533149242401,-0.00029606284806504846
1738772979885269000,6.46426904296875,0.00086690962780267,0.001318005844950676,-0.0006230990402400494
1738772979895261000,6.474260986328125,-0.0003518139710649848,0.0008139535784721375,0.0001450353884138167
1738772979905251800,6.484251953125,-0.0011718012392520905,-0.0009554503485560417,0.0002153428504243493
1738772979915243000,6.494242919921875,0.0015943015459924936,-0.0008207533974200487,-0.00039798778016120195
1738772979925234000,6.50423388671875,-0.0002510028425604105,0.0014248238876461983,-0.0000661579251755029
1738772979935224800,6.514224853515625,0.0008957762038335204,0.000899887178093195,-0.0002909726754296571
1738772979945215700,6.5242158203125,-0.0008360775536857545,-0.00008867820724844933,0.0012938744621351361
1738772979955207000,6.53420703125,-0.0017089864704757929,-0.0004141181707382202,0.0008967483299784362
1738772979965198800,6.54419873046875,-0.00015529838856309652,-0.0010343682952225208,-0.0010356414131820202
1738772979975190000,6.55418994140625,-0.0009822356514632702,0.00016898801550269127,0.0005913792410865426
1738772979985181000,6.564180908203125,0.0005576040130108595,-0.00002116197720170021,-0.0003039754810743034
1738772979995171800,6.574171875,-0.001889393082819879,-0.0013031424023211002,0.0005755023448728025
1738772980005162800,6.584162841796875,-0.0005615409463644028,-0.00014733057469129562,0.00045459484681487083
1738772980015154000,6.59415380859375,0.000648426590487361,-0.0002852529287338257,-0.001364490482956171
1738772980025144800,6.604144775390625,-0.0003952663391828537,-0.0016346764750778675,0.00030078415875323117
1738772980035135700,6.6141357421875,0.0004849792458117008,0.00039957230910658836,0.0012511881068348885
1738772980045128000,6.6241279296875,-0.0004868082469329238,-0.0008875334169715643,0.00078833062434569
1738772980055118800,6.634118896484375,-0.002647079061716795,-0.0007553240284323692,0.0014347494579851627
1738772980065109800,6.64410986328125,-0.00008112355135381222,-0.0015880945138633251,0.0003143575740978122
1738772980075101000,6.654100830078125,-0.00005273113492876291,-0.00007480988278985023,-0.0003908858634531498
1738772980085091800,6.664091796875,0.001994174439460039,-0.00008546235039830208,-0.00031551840947940946
1738772980095082800,6.674082763671875,-0.0006235710461623967,0.00009024515748023987,0.0000713961198925972
1738772980105074000,6.684073974609375,-0.0013972193701192737,-0.001028548926115036,0.0009379887487739325
1738772980115065900,6.69406591796875,0.0011920216493308544,0.002171569038182497,0.0003880794974975288
1738772980125056800,6.704056884765625,-0.0021574359852820635,0.000046100467443466187,-0.001220469712279737
1738772980135048000,6.7140478515625,0.00025474512949585915,-0.0010636537335813046,0.0006267188000492752
1738772980145038800,6.724038818359375,0.0010712702060118318,0.000374453142285347,0.0003593374276533723
1738772980155030000,6.734030029296875,-0.0005031128530390561,0.0004900014027953148,0.00003430517972446978
1738772980165021200,6.744021240234375,-0.0003212189767509699,-0.00022345944307744503,0.0007373796543106437
1738772980175012000,6.75401220703125,-0.0005964348092675209,0.00036042463034391403,0.000711447442881763
1738772980185004000,6.764004150390625,0.00040438107680529356,-0.0009889991488307714,0.0008187728235498071
1738772980194995200,6.7739951171875,0.00009392620995640755,-0.0016270161140710115,0.0007433901773765683
1738772980204986000,6.783986083984375,0.0002742221113294363,-0.00005681626498699188,0.00030663172947242856
1738772980214977000,6.79397705078125,-0.00033538241405040026,-0.0008992173243314028,0.000547500210814178
1738772980224968000,6.803968017578125,-0.000346834072843194,0.0007173214107751846,0.0012244756799191236
1738772980234959000,6.813958984375,0.0002226035576313734,-0.0009776304941624403,-0.00013371685054153204
1738772980244950000,6.823949951171875,0.00026548036839812994,-0.0010431443806737661,-0.0005803289823234081
1738772980254941000,6.83394091796875,0.0014713808195665479,-0.0003444226458668709,-0.0007477568578906357
1738772980264933000,6.84393310546875,0.0008194389520213008,-0.00047065666876733303,-0.0004185900907032192
1738772980274924000,6.853924072265625,0.0005793762393295765,0.00034941360354423523,-0.0004088403075002134
1738772980284915000,6.8639150390625,-0.0005343577358871698,0.0010879081673920155,0.00010648138413671404
1738772980294906000,6.873906005859375,0.001882996060885489,0.00003217160701751709,-0.000524388044141233
1738772980304897000,6.88389697265625,0.0003836363321170211,-0.000659451587125659,0.00004899052146356553
1738772980314888000,6.893887939453125,-0.0009466622723266482,-0.00031497026793658733,-0.0003117686719633639
1738772980324879000,6.903879150390625,-0.0015988703817129135,0.0005532200448215008,0.0010568298166617751
1738772980334870000,6.9138701171875,0.00006924325134605169,0.0017337240278720856,-0.00039274326991289854
1738772980344862000,6.923862060546875,-0.0001848222455009818,0.00003063259646296501,-0.00022309989435598254
1738772980354853000,6.93385302734375,-0.00009355030488222837,0.001244650688022375,0.0005547442124225199
1738772980364844000,6.943843994140625,0.0012883639428764582,0.0011703483760356903,0.0004000145709142089
1738772980374835000,6.9538349609375,0.0012064455077052116,0.00012769456952810287,-0.000008379312930628657
1738772980384826000,6.963826171875,-0.0006239451467990875,0.0005380874499678612,0.0023559750989079475
1738772980394817000,6.973817138671875,0.0003243330866098404,0.0005970601923763752,0.0010517945047467947
1738772980404808000,6.983807861328125,0.0003027614438906312,0.0005786847323179245,0.0005694961291737854
1738772980414800100,6.993800048828125,-0.0006117382436059415,0.00046566082164645195,-0.00021403608843684196
1738772980424791000,7.003791015625,0.0012117282021790743,-0.00015032803639769554,0.0003124708600807935
1738772980434782000,7.013781982421875,-0.00020134903024882078,-0.0003598039038479328,0.00129676831420511
1738772980444772900,7.02377294921875,0.000723034143447876,0.0005427415017038584,0.0002932891948148608
1738772980454764000,7.033763916015625,0.0009602337377145886,-0.0004647576715797186,0.0010275146923959255
1738772980464755000,7.0437548828125,0.0003586256643757224,0.000958968186751008,0.0010389663511887193
1738772980474746000,7.05374609375,-0.001548735541291535,-0.00036221789196133614,0.0005802702507935464
1738772980484738000,7.063738037109375,-0.00007760536391288042,0.0014303557109087706,0.00047907012049108744
1738772980494729000,7.07372900390625,0.0019605522975325584,-0.001170940464362502,0.0012472184607759118
1738772980504720000,7.083719970703125,0.002357363235205412,0.0014104617293924093,0.0014219218865036964
1738772980514711000,7.0937109375,0.0009766583098098636,-0.0004341127350926399,-0.0005221847095526755
1738772980524702000,7.103701904296875,0.0005990221397951245,-0.0009571574628353119,-0.00007477364124497399
1738772980534693000,7.113693115234375,0.00027367519214749336,0.00038842856884002686,0.00023205502657219768
1738772980544684300,7.123684326171875,-0.0003082253970205784,-0.0006818957626819611,-0.00044438790064305067
1738772980554675200,7.13367529296875,-0.0005943964933976531,-0.001240256940945983,-0.00013322084851097316
1738772980564667000,7.1436669921875,0.000507086981087923,0.0008958647958934307,-0.0010538756614550948
1738772980574658000,7.153657958984375,0.0008992602815851569,0.000010796589776873589,0.0008807929698377848
1738772980584649000,7.16364892578125,-0.00024589907843619585,-0.0005921430420130491,-0.00019539034110493958
1738772980594640100,7.17364013671875,-0.00033728318521752954,-0.00008192099630832672,-0.000017426267731934786
1738772980604631300,7.18363134765625,-0.0019178693182766438,0.0006307412404567003,0.00009629069245420396
1738772980614622200,7.193622314453125,0.0019381586462259293,-0.0009602962527424097,0.0006721332902088761
1738772980624613000,7.203613037109375,0.0009831490460783243,0.0002495779190212488,0.0011256695725023746
1738772980634605000,7.21360498046875,0.00004242314025759697,-0.00016154535114765167,0.0006256295600906014
1738772980644596200,7.22359619140625,0.000366529799066484,-0.00046381400898098946,0.0007225685985758901
1738772980654587100,7.233587158203125,0.000610662973485887,0.0009226324036717415,0.000015113793779164553
1738772980664578000,7.243578125,-0.0015132080297917128,0.00034792255610227585,-0.00016278534894809127
1738772980674569200,7.2535693359375,0.0010236729867756367,-0.0005965784657746553,-0.0001770437229424715
1738772980684560100,7.26356005859375,0.00015441712457686663,-0.001096187625080347,-0.000003671942977234721
1738772980694551000,7.273551025390625,0.0003364001167938113,-0.0007016181480139494,0.0012065833434462547
1738772980704543200,7.283543212890625,0.0011345493840053678,0.0006432784721255302,0.000820691289845854
1738772980714534100,7.2935341796875,0.001450932351872325,-0.00014932244084775448,-0.0001056298497132957
1738772980724525000,7.303525146484375,-0.001155503443442285,-0.0004177689552307129,-0.000186057310202159
1738772980734516200,7.31351611328125,0.00015504786279052496,0.0012467571068555117,0.0009763447451405227
1738772980744507100,7.323507080078125,0.0009007329354062676,0.00020173261873424053,0.0009321362595073879
1738772980754498000,7.333498046875,-0.001479928381741047,0.0012783331330865622,-0.0006511248648166656
1738772980764489200,7.3434892578125,-0.000263396417722106,-0.00006603053770959377,-0.000154711669893004
1738772980774480100,7.353480224609375,-0.0023338920436799526,0.0005825890693813562,-0.001039575319737196
1738772980784472000,7.36347216796875,-0.0013511854922398925,-0.0008427347056567669,0.0016813763650134206
1738772980794463200,7.373463134765625,-0.00010255491361021996,-0.0012900037690997124,-0.0002516857930459082
1738772980804454100,7.3834541015625,-0.0009302654070779681,0.001439736457541585,-0.0017233486287295818
1738772980814445000,7.393445068359375,-0.0002274309517815709,0.0005019877571612597,-0.0007782881730236113
1738772980824436200,7.403436279296875,0.0030128369107842445,-0.0017561062704771757,-0.0008342145592905581
1738772980834427100,7.41342724609375,-0.001654174062423408,0.0010394740384072065,-0.0005149680655449629
1738772980844418000,7.42341796875,0.000030541676096618176,0.00018033827655017376,-0.000028142239898443222
1738772980854410200,7.43341015625,0.0016145278932526708,0.0001771063543856144,0.000019761064322665334
1738772980864401200,7.443401123046875,-0.0003950935206376016,-0.0007480757776647806,0.0003795541124418378
1738772980874392000,7.45339208984375,0.0015147628728300333,0.0008902314584702253,-0.00008334172889590263
1738772980884383000,7.463383056640625,-0.0011204349575564265,-0.0006741092074662447,-0.0009139816975221038
1738772980894374100,7.4733740234375,-0.0006692979368381202,-0.0007162280380725861,0.0007076884503476322
1738772980904365000,7.483364990234375,0.0005211350508034229,-0.00014284951612353325,-0.0011413441970944405
1738772980914356000,7.49335595703125,0.0006431367946788669,0.00034081609919667244,-0.00032959625241346657
1738772980924347100,7.50334716796875,0.0004415354924276471,0.00027370406314730644,0.0004557699430733919
1738772980934339000,7.513339111328125,-0.0008423319668509066,-0.00046483101323246956,-0.0006039029103703797
1738772980944330000,7.523330078125,0.000016004778444766998,0.0011032384354621172,0.0003921193419955671
1738772980954321200,7.533321044921875,-0.0013209094759076834,0.0003028223291039467,-0.0005062021664343774
1738772980964312000,7.54331201171875,0.0013382567558437586,-0.00009958143346011639,-0.0007927583064883947
1738772980974303000,7.553302978515625,-0.0024810596369206905,0.0003643408417701721,0.00015461142174899578
1738772980984294100,7.563294189453125,0.000965070677921176,-0.000652986578643322,-0.0008909455500543118
1738772980994285000,7.57328515625,0.0002724898513406515,-0.00039534643292427063,-0.0007175618666224182
1738772981004277000,7.583277099609375,-0.0008473694324493408,-0.00008082715794444084,-0.0011625760234892368
1738772981014268200,7.59326806640625,0.0013006352819502354,-0.0002740374766290188,0.0007235726807266474
1738772981024259000,7.603259033203125,-0.0003451982047408819,-0.0015520884189754725,-0.00012198099284432828
1738772981034250000,7.61325,0.00033188366796821356,-0.0001229969784617424,0.0008401842787861824
1738772981044241000,7.623240966796875,-0.0012273971224203706,0.0005036445800215006,0.0010239423718303442
1738772981054232000,7.633232177734375,0.0006849021883681417,-0.0002047116868197918,-0.0008525971788913012
1738772981064223000,7.643222900390625,-0.0012669286224991083,-0.000413769856095314,-0.0012392881326377392
1738772981074214000,7.6532138671875,0.00039644259959459305,0.0004384568892419338,-0.00009017510456033051
1738772981084206000,7.6632060546875,-0.0008898641681298614,-0.0005591630470007658,0.0001849294058047235
1738772981094197000,7.673197021484375,0.0016924585215747356,-0.0011065241415053606,-0.0003238980134483427
1738772981104188000,7.68318798828125,-0.00003113935235887766,0.0016724842134863138,0.0006918316357769072
1738772981114179000,7.693178955078125,-0.00006073445547372103,-0.0009558191522955894,0.00026030256412923336
1738772981124170000,7.703169921875,-0.00028017896693199873,0.0007006670348346233,0.00014472135808318853
1738772981134161000,7.713160888671875,0.0003729693125933409,-0.00006419257260859013,-0.00022086192620918155
1738772981144152000,7.723152099609375,-0.0007199920364655554,0.0009691142477095127,0.000052644696552306414
1738772981154144000,7.73314404296875,0.0015699282521381974,-0.001269852975383401,-0.0011076508089900017
1738772981164135400,7.743135498046875,-0.0016980367945507169,-0.0007912828586995602,0.0002183371689170599
1738772981174126300,7.753126220703125,0.001783029641956091,-0.0002837968058884144,0.0014080015243962407
1738772981184117500,7.763117431640625,0.0021516112610697746,-0.0012542528565973043,-0.0012759321834892035
1738772981194108400,7.7731083984375,0.001049118465743959,-0.000513121485710144,0.0011804999085143209
1738772981204099300,7.783099365234375,-0.0008148278575390577,0.0007566735148429871,0.000011105905286967754
1738772981214090200,7.79309033203125,-0.0012304316041991115,-0.00011105788871645927,-0.00000576837919652462
1738772981224081400,7.803081298828125,0.00006066891364753246,-0.0009339747484773397,-0.0002854002814274281
1738772981234073300,7.8130732421875,0.0010559087386354804,0.00021520606242120266,0.00017596088582649827
1738772981244064300,7.823064208984375,0.002625842113047838,0.0011675527784973383,0.00014000822557136416
1738772981254055400,7.833055419921875,0.0002983285812661052,-0.0012868826743215322,0.00026903586694970727
1738772981264046300,7.84304638671875,-0.0006231251754797995,0.00029157265089452267,0.00030418962705880404
1738772981274037200,7.853037353515625,-0.0004073690506629646,-0.0002978749107569456,-0.0006871037767268717
1738772981284028400,7.8630283203125,0.00002246513031423092,0.0004968121647834778,-0.00043863081373274326
1738772981294019600,7.87301953125,-0.001539615448564291,-0.0004055378958582878,-0.00011084700236096978
1738772981304011300,7.88301123046875,-0.0009510568925179541,0.0014988884795457125,-0.001676253043115139
1738772981314002400,7.89300244140625,-0.001574312918819487,0.00020180759020149708,-0.0008459000382572412
1738772981323993300,7.902993408203125,-0.00005018583033233881,0.000025240005925297737,-0.00046107324305921793
1738772981333984300,7.912984375,-0.0003245107363909483,0.00040141819044947624,-0.0014821819495409727
1738772981343975400,7.922975341796875,0.00024593842681497335,-0.000851332675665617,0.000670717388857156
1738772981353966600,7.932966552734375,-0.001343986950814724,-0.00048326142132282257,-0.0008068677270784974
1738772981363957500,7.94295751953125,-0.0005453049670904875,-0.00023505487479269505,-0.00047370625543408096
1738772981374572500,7.953572509765625,-0.0019080305937677622,0.0011563964653760195,0.0005889221793040633
1738772981384564500,7.963564453125,0.0017972253262996674,-0.0009011616930365562,-0.0018135153222829103
1738772981394555400,7.973555419921875,-0.0009651720756664872,-0.00175945064984262,-0.0006457091658376157
1738772981404546600,7.983546630859375,-0.0013835546560585499,0.0005029048770666122,0.0002816035121213645
1738772981414537500,7.993537353515625,0.00032917014323174953,-0.0004344226326793432,-0.0024684167001396418
1738772981424528400,8.0035283203125,-0.0015933657996356487,0.0006436249241232872,-0.0007855652365833521
1738772981434519600,8.01351953125,-0.0004514874890446663,0.0011863631661981344,0.00007088345591910183
1738772981444510500,8.023510498046875,0.0005234958371147513,0.0009709133300930262,0.00003892552922479808
1738772981454502400,8.03350244140625,-0.0008564334129914641,0.0003466801717877388,0.0015122101176530123
1738772981464493600,8.04349365234375,0.000041051884181797504,0.00023429468274116516,0.0005484120338223875
1738772981474484500,8.053484375,-0.000877568032592535,-0.00034792697988450527,-0.0013443278148770332
1738772981484475400,8.063475341796876,0.0013288609916344285,0.0012688781134784222,-0.0009334019850939512
1738772981494466600,8.073466552734375,-0.0023704965133219957,-0.0002693485002964735,0.00018866211757995188
1738772981504457500,8.08345751953125,-0.0007044230005703866,0.000036915065720677376,-0.001323747099377215
1738772981514448400,8.093448486328125,0.0011606471380218863,0.0008200597949326038,-0.0010024188086390495
1738772981524439300,8.103439208984375,-0.0011456503998488188,0.00046665826812386513,-0.00009001980652101338
1738772981534431500,8.113431396484375,0.0010650211479514837,0.00015151896513998508,0.0006129699177108705
1738772981544422400,8.12342236328125,0.0010258725378662348,-0.00005034869536757469,-0.0007686780299991369
1738772981554413600,8.13341357421875,-0.000718632829375565,0.00024931086227297783,-0.0008874705526977777
1738772981564404500,8.143404541015625,-0.0019689868204295635,-0.0015943956095725298,-0.00023952347692102194
1738772981574395400,8.1533955078125,-0.0003948042867705226,0.00012256531044840813,0.0009984623175114393
1738772981584386300,8.16338623046875,-0.0015929604414850473,0.0010485462844371796,0.0002706203958950937
1738772981594377500,8.17337744140625,0.0009012753143906593,0.0014303631614893675,-0.0014742077328264713
1738772981604368400,8.183368408203124,-0.00030513666570186615,-0.00016833236441016197,-0.0003825780295301229
1738772981614360300,8.1933603515625,-0.000017742742784321308,0.0008011702448129654,-0.0004309218202251941
1738772981624351500,8.2033515625,-0.0003088262164965272,-0.0015900819562375546,-0.00024263632076326758
1738772981634342400,8.21334228515625,0.0012567174853757024,-0.00025427713990211487,-0.0018587976228445768
1738772981644333300,8.223333251953125,-0.00013318622950464487,-0.0007139386143535376,0.0010291342623531818
1738772981654324500,8.233324462890625,0.0008347483817487955,0.00124794477596879,-0.0005340286297723651
1738772981664315400,8.2433154296875,-0.0011884551495313644,0.0001059812493622303,0.0004811683902516961
1738772981674306300,8.253306396484374,0.0007060590432956815,-0.0008360089268535376,-0.0005411257734522223
1738772981684297500,8.26329736328125,-0.000310203293338418,0.00007639010436832905,0.00017393293092027307
1738772981694289400,8.273289306640624,-0.00035578402457758784,0.00010764948092401028,0.0006638558697886765
1738772981704280300,8.2832802734375,-0.0002647038782015443,0.0004511971492320299,0.0010217847302556038
1738772981714895400,8.293895263671875,0.001214394811540842,0.0003803679719567299,-0.00021512240346055478
1738772981724887300,8.30388720703125,0.00038402131758630276,-0.0014585447497665882,-0.0007584072882309556
1738772981734878500,8.31387841796875,-0.0002040461404249072,-0.00018662051297724247,-0.002353744115680456
1738772981744869400,8.323869384765626,-0.002069590613245964,0.0010866366792470217,-0.0008437319193035364
1738772981754860300,8.3338603515625,-0.0009366407757624984,-0.00011058663949370384,0.00039010256296023726
1738772981764851500,8.3438515625,0.0011006774147972465,0.0004454811569303274,-0.00013853490236215293
1738772981774842600,8.353842529296875,-0.0005867381114512682,0.0008851389866322279,-0.0009127159137278795
1738772981784833500,8.36383349609375,-0.0013649137690663338,-0.00058359419927001,-0.00027568780933506787
1738772981794825500,8.373825439453125,0.000037912046536803246,-0.0019754120148718357,-0.000962723745033145
1738772981804816400,8.38381640625,0.0007654877845197916,-0.0022702240385115147,-0.0015795117942616343
1738772981814807300,8.393807373046876,0.0005826931446790695,0.000938063720241189,-0.0014949403703212738
1738772981824798500,8.403798583984376,0.00016138097271323204,-0.0005727475509047508,-0.00016975139442365617
1738772981834789600,8.41378955078125,-0.0017084083519876003,0.00023167859762907028,-0.0002512024366296828
1738772981844780500,8.423780517578125,0.001479129190556705,0.0008050571195781231,-0.00044934163452126086
1738772981854771500,8.433771484375,-0.002339337021112442,0.00046242796815931797,0.0005240385653451085
1738772981864762600,8.4437626953125,-0.0003720599925145507,-0.0030484171584248543,-0.00035507086431607604
1738772981874754300,8.45375439453125,-0.0020317777525633574,0.00041434005834162235,-0.000006325659342110157
1738772981884745500,8.463745361328124,-0.000831491022836417,-0.0005606431514024734,-0.0011919649550691247
1738772981894736600,8.473736572265626,-0.0009513016557320952,0.00028887134976685047,-0.00007906125392764807
1738772981904727600,8.4837275390625,0.00002900790423154831,0.00013893540017306805,-0.00178614747710526
1738772981914718500,8.493718505859375,-0.0006233496242202818,0.0011047781445086002,-0.000300892919767648
1738772981924709600,8.503709716796875,0.0004096905468031764,0.0012259515933692455,-0.00034297085949219763
1738772981934700500,8.513700439453125,0.00027115666307508945,0.00012833857908844948,0.0012202183715999126
1738772981944692500,8.5236923828125,0.0011867514112964272,0.0011472641490399837,0.0007477735634893179
1738772981954683600,8.53368359375,0.0004839111352339387,0.00086625711992383,-0.00028996585751883686
1738772981964674600,8.543674560546876,-0.00045059213880449533,0.00038795359432697296,0.0006834194646216929
1738772981974665500,8.55366552734375,-0.000986174214631319,0.00034191273152828217,-0.00035248123458586633
1738772981984656400,8.563656494140625,0.000047931214794516563,-0.00022773747332394123,0.0015977516304701567
1738772981994647600,8.5736474609375,-0.00013695715460926294,-0.00040429551154375076,0.0006152314017526805
1738772982004638500,8.583638427734375,-0.0010253876680508256,0.0005030434112995863,-0.0007720092544332147
1738772982014629400,8.59362939453125,-0.001195180113427341,-0.0016848212108016014,0.00006113844574429095
1738772982024621600,8.60362158203125,-0.0005400424706749618,-0.00015403633005917072,0.0009650152642279863
1738772982034612500,8.613612548828126,0.0002967650070786476,0.00020300480537116528,-0.000018611084669828415
1738772982044603400,8.623603271484376,0.0007095548789948225,-0.0010097988415509462,-0.0007507140981033444
1738772982054594600,8.633594482421875,-0.0002560943830758333,0.0010351226665079594,-0.0005334788584150374
1738772982064585500,8.64358544921875,-0.0002449090825393796,0.0012652198784053326,0.0008425764972344041
1738772982074576400,8.653576416015625,0.00017883011605590582,0.000474011292681098,-0.00010784607729874551
1738772982084567600,8.663567626953125,0.0007950856816023588,-0.0006945838686078787,-0.0004511275328695774
1738772982094559500,8.6735595703125,0.0008800256764516234,-0.00011934107169508934,0.00007971579907462001
1738772982104550400,8.68355029296875,0.0005157053237780929,-0.00016594631597399712,0.0005564216407947242
1738772982114541600,8.69354150390625,0.0010043438524007797,-0.0012262621894478798,0.0004931208677589893
1738772982124532500,8.703532470703125,-0.00012403749860823154,-0.00042544957250356674,0.0003631585859693587
1738772982134523400,8.7135234375,0.0011190903605893254,-0.0003166445530951023,-0.001305001205764711
1738772982144514600,8.7235146484375,0.0006176171591505408,0.0007166620343923569,-0.0001968598662642762
1738772982154505200,8.733505126953125,-0.0009189004776999354,0.0005181380547583103,-0.00036498004919849336
1738772982164497400,8.743497314453125,0.0004797917790710926,-0.0010225004516541958,-0.00115087884478271
1738772982174488300,8.75348828125,0.000993101391941309,0.0002915104851126671,-0.0003322722332086414
1738772982184479500,8.7634794921875,-0.0007091911975294352,-0.000012622447684407234,0.0009684156393632293
1738772982194470400,8.773470458984375,-0.00028116139583289623,-0.0009842503350228071,0.0003140362387057394
1738772982204461300,8.78346142578125,-0.0010337707353755832,-0.000025512417778372765,-0.0011991718783974648
1738772982214452200,8.7934521484375,0.00006695545744150877,-0.00046413810923695564,-0.00007333257235586643
1738772982224443400,8.803443359375,0.001858463860116899,0.0013129892759025097,-0.0002829233417287469
1738772982234435300,8.813435302734375,-0.000982909114100039,-0.0005063272546976805,0.0009681458468548954
1738772982244426200,8.82342626953125,-0.00013842072803527117,0.000009793322533369064,0.0017236846033483744
1738772982254417400,8.83341748046875,0.0017624858301132917,-0.00033566239289939404,-0.000044652988435700536
1738772982264408300,8.843408203125,0.0009771196637302637,-0.0010714938398450613,-0.0003929944650735706
1738772982274399200,8.853399169921875,0.0003886328777298331,0.00014787213876843452,0.00023109253379516304
1738772982284390400,8.863390380859375,-0.0008617212297394872,-0.00129289785400033,-0.0010999554069712758
1738772982294381300,8.87338134765625,0.0005865935236215591,0.00009780912660062313,0.00041558913653716445
1738772982304373200,8.883373291015625,0.00011121912393718958,0.0002461473923176527,0.00010053720325231552
1738772982314364400,8.893364501953124,-0.0007648490718565881,0.0009868266060948372,-0.0014614914543926716
1738772982324355300,8.903355224609374,0.0009020233992487192,-0.0008811147417873144,-0.00011659521260298789
1738772982334346200,8.91334619140625,-0.0008960806299000978,0.0015140080358833075,0.00021332205506041646
1738772982344337400,8.92333740234375,-0.0004137821961194277,0.0019819254521280527,-0.0011736522428691387
1738772982354328300,8.933328369140625,0.000603740569204092,-0.0009387803729623556,-0.0017284066416323185
1738772982364319200,8.9433193359375,-0.0004572627367451787,0.0020309104584157467,0.0002447293372824788
1738772982374310100,8.95331005859375,-0.0005018443334847689,-0.0005151208024471998,0.0009983812924474478
1738772982384302300,8.96330224609375,0.0002124154707416892,-0.000050132861360907555,0.0007256736280396581
1738772982394293200,8.973293212890624,0.00109858438372612,-0.0013579847291111946,-0.0010749620851129293
1738772982404284400,8.983284423828126,0.000012280885130167007,0.00034563918597996235,-0.0004880014166701585
1738772982414275300,8.993275390625,-0.0011327065294608474,0.0005915260408073664,-0.0014360337518155575
1738772982424266200,9.003266357421875,-0.0004280341090634465,0.0006565072108060122,-0.0012530745007097721
1738772982434257200,9.013257080078125,0.0011129470076411963,0.0007475721649825573,0.00008952961070463061
1738772982444248300,9.023248291015625,0.0002335712779313326,-0.00002847309224307537,0.0011984698940068483
1738772982454240300,9.033240234375,-0.001226884895004332,-0.00003890530206263065,-0.00024342836695723236
1738772982464231200,9.043231201171874,0.00022933154832571745,0.00047801434993743896,0.0003560491604730487
1738772982474222300,9.053222412109376,0.0008540302515029907,0.0007580914534628391,-0.0007948534330353141
1738772982484213200,9.063213134765626,0.0003458991413936019,-0.0012880153954029083,0.0001409813412465155
1738772982494204200,9.0732041015625,0.00021836883388459682,-0.0003526636864989996,-0.0011381048243492842
1738772982504195300,9.0831953125,0.0009853591909632087,0.0011110096238553524,-0.0015192030696198344
1738772982514187300,9.093187255859375,-0.000030785566195845604,-0.0004373076371848583,-0.000487853103550151
1738772982524178200,9.10317822265625,0.001898674643598497,-0.0005454320926219225,-0.000763223972171545
1738772982534169300,9.11316943359375,0.00023786805104464293,-0.00047250138595700264,0.0002205341588705778
1738772982544160300,9.12316015625,0.001639756141230464,0.00014774897135794163,0.000545173475984484
1738772982554151400,9.1331513671875,-0.0005614153924398124,0.0009460197761654854,-0.0006512614199891686
1738772982564142600,9.143142578125,-0.0008117525721900165,0.00021391687914729118,-0.0007396783330477774
1738772982574133500,9.153133544921875,0.000916685676202178,-0.0002993133384734392,-0.0004715179675258696
1738772982584125200,9.163125244140625,0.0002524931915104389,0.0006341247353702784,-0.0006819076952524483
1738772982594116400,9.173116455078125,-0.0008613902609795332,0.0007159686647355556,0.000396017509046942
1738772982604107300,9.183107177734374,-0.00040918553713709116,-0.0014457192737609148,-0.0002410106098977849
1738772982614098400,9.193098388671874,0.00004178239032626152,-0.0006750389002263546,-0.0015523245092481375
1738772982624089600,9.203089599609376,0.0013334155082702637,-0.001072116196155548,-0.00216085696592927
1738772982634080500,9.21308056640625,-0.0005935152876190841,-0.000001469627022743225,0.001032413449138403
1738772982644071400,9.223071533203125,-0.00009097682777792215,0.0011932244524359703,-0.0007537687197327614
1738772982654063400,9.2330634765625,-0.000702854071278125,-0.0007957236375659704,-0.0015406368765980005
1738772982664054300,9.24305419921875,-0.00020963663700968027,0.00025675748474895954,-0.00025006895884871483
1738772982674045400,9.25304541015625,0.00020200619474053383,0.0004472716245800257,0.00004628027090802789
1738772982684036400,9.263036376953124,0.00040041166357696056,-0.00022517656907439232,-0.0012639949563890696
1738772982694027500,9.273027587890626,-0.0005961991264484823,0.00047152256593108177,-0.0003237280179746449
1738772982704018400,9.283018310546876,0.0011830588337033987,-0.0011564679443836212,0.00036390015156939626
1738772982714009300,9.29300927734375,-0.0012598694302141666,0.0006255970802158117,0.00013202082482166588
1738772982724001300,9.303001220703125,0.0004362978506833315,-0.0007227614987641573,-0.00020034167391713709
1738772982733992400,9.312992431640625,0.0006836217362433672,0.00009035132825374603,-0.00024029641645029187
1738772982743983400,9.3229833984375,-0.0008570170612074435,0.001009408151730895,-0.0003950260579586029
1738772982753974500,9.332974609375,0.0006210061255842447,-0.0004783973563462496,-0.00048312859144061804
1738772982763965400,9.34296533203125,-0.0004815426655113697,-0.0011620309669524431,0.0002979765413329005
1738772982773956400,9.352956298828126,-0.0005181254236958921,0.0010201341938227415,-0.0007485944079235196
1738772982783947500,9.362947509765625,0.0005985380848869681,0.000030237482860684395,0.0001792509574443102
1738772982793939500,9.372939453125,-0.0006386206368915737,-0.0001988876610994339,0.000982851255685091
1738772982803930400,9.382930419921875,0.0008615379920229316,-0.0001269823405891657,-0.0011945492587983608
1738772982813921500,9.392921630859375,-0.0002397130010649562,-0.0005302147474139929,-0.0007584611885249615
1738772982823912400,9.402912353515624,-0.0004927132977172732,0.00006659957580268383,0.0009606092935428023
1738772982833903400,9.4129033203125,0.00037225824780762196,-0.0008468232117593288,-0.0008449580054730177
1738772982843894300,9.422894287109376,0.00023723591584712267,0.0002456053625792265,0.00045413192128762603
1738772982853885400,9.432885498046875,-0.0010588370496407151,-0.0006412207148969173,0.00015423426521010697
1738772982863877400,9.44287744140625,-0.0005368575220927596,0.0010679960250854492,-0.00017892719188239425
1738772982873868500,9.45286865234375,0.0003283985424786806,-0.000741190742701292,0.001485230284743011
1738772982883859500,9.462859375,-0.0016612490871921182,0.00012806500308215618,0.000961652840487659
1738772982893850400,9.472850341796875,-0.0004029709380120039,0.00043003098107874393,0.0006144465296529233
1738772982903841300,9.48284130859375,-0.00020722858607769012,-0.00010393303819000721,-0.0005626706406474113
1738772982913832400,9.49283251953125,0.0005182928871363401,0.00011265464127063751,-0.0007118420908227563
1738772982923823400,9.5028232421875,0.0002671567490324378,-0.0005358250346034765,-0.0004742880701087415
1738772982933815600,9.512815673828126,-0.0003916785353794694,-0.00000707525759935379,0.00042525335447862744
1738772982943806500,9.522806396484375,-0.00037543324287980795,0.00032768421806395054,-0.0005321530625224113
1738772982953797400,9.53279736328125,-0.0011226753704249859,0.0004129144363105297,0.0012219349155202508
1738772982963788300,9.542788330078125,-0.0005458345985971391,-0.00010107597336173058,0.00007757463026791811
1738772982973779500,9.552779541015624,0.0009910324588418007,0.0011580968275666237,-0.00032372496207244694
1738772982983770400,9.562770263671876,0.0006805078592151403,-0.001452333526685834,0.00014365979586727917
1738772982993762300,9.57276220703125,0.0005523450672626495,0.0014706002548336983,-0.0003766326990444213
1738772983003753500,9.58275341796875,0.0008386349072679877,0.0005816370248794556,0.000053467811085283756
1738772983013744400,9.592744384765625,0.0011294475989416242,-0.001055628526955843,0.002112404676154256
1738772983023735300,9.6027353515625,-0.00015446229372173548,0.001198737183585763,0.0007906778482720256
1738772983033726500,9.6127265625,0.0018895375542342663,-0.00014457129873335361,0.00041070987936109304
1738772983043717400,9.62271728515625,-0.00002021517138928175,0.001386479940265417,0.0006519922753795981
1738772983053708300,9.632708251953124,-0.0009957593865692616,0.0011537319514900446,0.0017270233947783709
1738772983063700500,9.642700439453124,-0.0011760554043576121,-0.0006140742916613817,-0.0003462476597633213
1738772983073691400,9.65269140625,0.0011997162364423275,0.0012002673465758562,0.0016021651681512594
1738772983083682300,9.662682373046875,0.00018664984963834286,0.0009259616490453482,0.001437848201021552
1738772983093673500,9.672673583984375,-0.0017026335699483752,-0.001708397176116705,-0.001396520878188312
1738772983103664400,9.682664306640625,-0.0000032705720514059067,0.00029003899544477463,0.0007222900167107582
1738772983113655300,9.6926552734375,-0.0004659479600377381,-0.0008274444844573736,-0.0013561712112277746
1738772983123646200,9.702646240234374,-0.0008457147050648928,-0.00043063354678452015,-0.0005987681215628982
1738772983133638400,9.712638427734374,-0.00140701187774539,0.00046490482054650784,0.0005634852568618953
1738772983143629300,9.72262939453125,0.0009514834964647889,0.00017089187167584896,0.0003922439645975828
1738772983153620200,9.7326201171875,0.000009939889423549175,0.0010101792868226767,0.0006181900389492512
1738772983163611100,9.742611083984375,0.0007255312521010637,-0.002115839160978794,-0.0005528018809854984
1738772983173602000,9.75260205078125,0.0005117590771988034,-0.0004307655617594719,-0.00008894604980014265
1738772983183593200,9.76259326171875,-0.00018252700101584196,-0.0008443545084446669,-0.0012450242647901177
1738772983193584000,9.772584228515624,-0.00008724234066903591,-0.00039970269426703453,0.0011391120497137308
1738772983203576000,9.782576171875,-0.0006038955762051046,0.00021735182963311672,-0.000511515187099576
1738772983213567200,9.792567138671876,0.0007063919911161065,-0.0006861728616058826,-0.0004247376346029341
1738772983223558100,9.80255810546875,-0.0009242614614777267,-0.00007258052937686443,0.0012996590230613947
1738772983233549000,9.812549072265625,0.00004009599797427654,0.00004932447336614132,-0.00007625401485711336
1738772983243540200,9.822540283203125,0.0007743296446278691,-0.0005637353751808405,-0.001345516531728208
1738772983253531100,9.83253125,0.0006049704970791936,-0.0003792126663029194,0.0006549598765559494
1738772983263522000,9.84252197265625,-0.0014989266637712717,0.00040668598376214504,0.0005228670779615641
1738772983273514200,9.85251416015625,-0.0009284429252147675,-0.0006045438349246979,0.0007338653667829931
1738772983283505200,9.862505126953126,-0.000030691386200487614,-0.000949689419940114,0.00020789098925888538
1738772983293496000,9.87249609375,-0.0008957634563557804,-0.0002749154809862375,0.0006332229822874069
1738772983303487200,9.8824873046875,-0.0004819082096219063,-0.0008967635221779346,-0.00016758957644924521
1738772983313478100,9.89247802734375,-0.0012118816375732422,0.00003608991391956806,0.00019916522433049977
1738772983323469000,9.902468994140625,-0.00013223616406321526,-0.0013234536163508892,-0.0007614369969815016
1738772983333460000,9.9124599609375,-0.0006711280439049006,0.0011830388102680445,-0.0005148891941644251
1738772983343452200,9.9224521484375,0.0002953330986201763,-0.000696087721735239,0.0019080548081547022
1738772983353443000,9.932443115234374,-0.00005607458297163248,0.0007566700223833323,0.00009111614781431854
1738772983363434000,9.94243408203125,0.00008880137465894222,0.0002448104787617922,-0.0004974424373358488
1738772983373425200,9.952425048828125,-0.00015652237925678492,0.00039510615170001984,0.000012807053280994296
1738772983383416000,9.962416015625,0.0001071305014193058,0.0003775293007493019,0.00048178969882428646
1738772983393407200,9.9724072265625,-0.000056201242841780186,-0.0007178138475865126,0.0005753613077104092
1738772983403398400,9.9823984375,0.00014673161786049604,0.00046968949027359486,-0.0006912380922585726
1738772983413390000,9.99239013671875,-0.0020396867766976357,0.0011484913993626833,0.0001907923724502325
1738772983423381000,10.002381103515624,0.00047140789683908224,-0.0005055980291217566,-0.0007026981911621988
1738772983433372200,10.0123720703125,-0.0006318777450360358,-0.0007587959989905357,2.4950713850557804e-7
1738772983443363000,10.022363037109375,-0.00036875740624964237,0.00004787556827068329,0.0007611145847477019
1738772983453354200,10.032354248046875,-0.00012472935486584902,-0.0008923178538680077,-0.0015243070665746927
1738772983463345400,10.042345458984375,0.0005290766712278128,0.00008825818076729774,0.00015188648831099272
1738772983473336300,10.05233642578125,-0.000887695059645921,0.001145330723375082,0.00016101589426398277
1738772983483328000,10.062327880859375,0.0023001087829470634,0.0013365456834435463,-0.0014259618474170566
1738772983493319200,10.072319091796874,0.0001781177707016468,-0.00029634847305715084,0.0012770146131515503
1738772983503310000,10.08231005859375,0.0010034313891083002,-0.00047185085713863373,-0.00023832402075640857
1738772983513301200,10.09230126953125,0.00027147959917783737,0.0007955760229378939,-0.0014390639262273908
1738772983523292400,10.10229248046875,-0.0014209592482075095,0.0007154147606343031,0.0004158277588430792
1738772983533283300,10.112283447265625,-0.0015196859603747725,0.0008848451543599367,-0.0005097066168673337
1738772983543274200,10.122274169921875,0.0008633106481283903,0.0014097543898969889,-0.0004074412281624973
1738772983553266200,10.13226611328125,0.000012754811905324459,0.00020765140652656555,-0.0011958207469433546
1738772983563257300,10.14225732421875,0.00022314453963190317,-0.0002482817508280277,0.0005373645108193159
1738772983573248300,10.152248291015624,-0.0003245314583182335,-0.00022343499585986137,0.0010056339669972658
1738772983583239200,10.1622392578125,0.0013050568522885442,0.0007406291551887989,0.0018951299134641886
1738772983593230300,10.172230224609375,-0.0006519329035654664,0.00042401673272252083,0.0011237332364544272
1738772983603221200,10.18222119140625,0.0014548938488587737,-0.0017099741380661726,-0.001016383059322834
1738772983613213200,10.192213134765625,-0.001729556592181325,0.00009945547208189964,0.0004021120839752257
1738772983623204400,10.202204345703125,-0.0013106412952765822,-0.0015439812559634447,-0.00009190432319883257
1738772983633195300,10.2121953125,-0.0007151404861360788,-0.0008850663434714079,0.0003482282627373934
1738772983643186200,10.222186279296874,0.00005664362106472254,-0.0008088999893516302,0.0009173458092845976
1738772983653177300,10.23217724609375,-0.0007774302503094077,0.0003509626258164644,-0.0015613919822499156
1738772983663168300,10.242168212890626,-0.0024067522026598454,0.00008278223685920238,-0.0005336780450306833
1738772983673159200,10.2521591796875,0.0008769419509917498,-0.00002363300882279873,-0.0006926844362169504
1738772983683151400,10.2621513671875,0.00020742323249578476,-0.00036238692700862885,0.0006151939742267132
1738772983693142300,10.272142333984375,-0.00030864111613482237,0.00004670233465731144,0.0014197132550179958
1738772983703133200,10.28213330078125,0.00003384146839380264,-0.001582087017595768,0.000518765882588923
1738772983713124400,10.292124267578124,0.0005282815545797348,0.00024445285089313984,0.000793668266851455
1738772983723115300,10.302115234375,0.0014497353695333004,-0.00024237320758402348,-0.000440706848166883
1738772983733106200,10.312106201171876,-0.0000012418022379279137,-0.000023464905098080635,-0.0009766638977453113
1738772983743098400,10.322098388671876,0.0006190083222463727,-0.0015068456996232271,0.00025158602511510253
1738772983753089300,10.33208935546875,-0.0003770675975829363,0.0006006932817399502,0.0005147557822056115
1738772983763080200,10.342080078125,0.0011473257327452302,0.0009383824653923512,0.0006732138572260737
1738772983773071400,10.3520712890625,0.0004023265792056918,0.0002188640646636486,-0.00017706134531181306
1738772983783062300,10.362062255859374,-0.00020727096125483513,0.0005536237731575966,0.0015507974894717336
1738772983793053200,10.37205322265625,-0.0010481070494279265,-0.00008001923561096191,-0.0015790644101798534
1738772983803044000,10.382044189453126,-0.0010963103268295527,-0.0014081376139074564,-0.0001694532111287117
1738772983813036300,10.392036376953126,-0.0013529619900509715,0.0005789226852357388,0.0006649165879935026
1738772983823027200,10.402027099609375,-0.000022180378437042236,-0.0002935286611318588,0.0010209811152890325
1738772983833018400,10.412018310546875,-0.0004236059030517936,-0.0002848764415830374,-0.0015532650286331773
1738772983843009300,10.42200927734375,0.00001022301148623228,0.0004046158865094185,0.0004984342958778143
1738772983853000200,10.432000244140625,-0.0011490655597299337,0.0013087450060993433,0.0003410290810279548
1738772983862991000,10.4419912109375,0.0012107614893466234,-0.0014689320232719183,0.001457426231354475
1738772983872982300,10.451982177734376,-0.00015738047659397125,-0.001051869709044695,0.000885272747837007
1738772983882974200,10.46197412109375,0.000747561571188271,0.00033803400583565235,-0.00003964310235460289
1738772983892965000,10.471965087890625,-0.0022864914499223232,-0.0005259858444333076,-0.0005163272726349533
1738772983902956300,10.481956298828125,0.0007407238008454442,0.00032888888381421566,0.0006445446633733809
1738772983912947200,10.491947265625,0.00039398809894919395,-0.0005223194602876902,-0.00019945001986343414
1738772983922938000,10.501938232421875,-0.00015275878831744194,0.0002012613695114851,0.0009121533948928118
1738772983932929300,10.51192919921875,-0.0007554187322966754,-0.0005459310486912727,-0.00039906002348288894
1738772983942921200,10.521921142578124,-0.00011120003182440996,-0.00003433786332607269,0.000707483384758234
1738772983952912100,10.531912109375,0.0004545971751213074,0.001032601110637188,0.001076006912626326
1738772983962903300,10.5419033203125,0.00008441775571554899,-0.0011232278775423765,-0.0004073737654834986
1738772983972894200,10.551894287109375,-0.00036436249502003193,0.0012023535091429949,0.00035521737299859524
1738772983982885000,10.561885009765625,-0.0015902156010270119,-0.000689556123688817,0.0007759968284517527
1738772983992876300,10.571876220703125,-0.0005866889841854572,-0.00028389832004904747,-0.0003718266962096095
1738772984002867200,10.5818671875,0.001101222587749362,0.0006700458470731974,0.00005561066063819453
1738772984012859100,10.591859130859374,-0.0005053221248090267,0.0017455094493925571,-0.00037907669320702553
1738772984022850300,10.601850341796874,-0.002602561376988888,-0.00011444208212196827,0.0001836492447182536
1738772984032841200,10.61184130859375,-0.000005326117388904095,-0.00027788756415247917,0.00011973190703429282
1738772984042832100,10.62183203125,-0.0018913766834884882,0.0008377106860280037,0.00146303023211658
1738772984052823300,10.6318232421875,-0.00025323196314275265,0.0009608152322471142,-0.0016558103961870074
1738772984062814200,10.641814208984375,-0.0003863900201395154,-0.00002402183599770069,-0.00032822461798787117
1738772984072806100,10.65180615234375,-0.00008705444633960724,0.0002958569675683975,0.0003909580991603434
1738772984082797300,10.66179736328125,-0.0012029189383611083,0.0019824369810521603,0.0008207923383451998
1738772984092788200,10.671788330078124,0.00019874644931405783,0.001463568303734064,-0.0003719654050655663
1738772984102779100,10.681779052734376,-0.0012004782911390066,0.0010204184800386429,-0.000537613988853991
1738772984112770000,10.69177001953125,0.0011844543041661382,0.00001789187081158161,0.0017240019515156746
1738772984122761200,10.70176123046875,-0.00013460940681397915,-0.00020847679115831852,-0.00019400668679736555
1738772984132752100,10.711752197265625,-0.0013023768551647663,0.0012137601152062416,0.0006441775476559997
1738772984142744300,10.721744384765625,-0.0003867821069434285,0.00016207760199904442,0.00044017937034368515
1738772984152735200,10.7317353515625,0.00004908791743218899,0.00040873559191823006,-0.000215248714084737
1738772984162726000,10.741725830078124,-0.0004486569669097662,-0.00007409532554447651,0.0005637258873321116
1738772984172716800,10.751716796875,-0.0006727727595716715,-0.0002987275365740061,-0.000349597743479535
1738772984182708000,10.7617080078125,-0.0012860987335443497,-0.0010585275012999773,0.00016146284178830683
1738772984192699000,10.771698974609375,-0.0010859941830858588,0.00012172036804258823,0.0012473647948354483
1738772984202689800,10.781689697265625,-0.0012314028572291136,0.0009765950962901115,-0.0010187190491706133
1738772984212682000,10.791681884765625,0.0007267578039318323,-0.00009143096394836903,0.0008698986493982375
1738772984222673000,10.8016728515625,0.00024179613683372736,0.00031949463300406933,-0.0009857919067144394
1738772984232663800,10.811663818359374,-0.0005662190960720181,0.0006879530847072601,-0.0002289058465976268
1738772984242655000,10.821655029296876,-0.0009065710473805666,0.0008860924281179905,0.0003434074460528791
1738772984252646000,10.83164599609375,-0.0011726238299161196,0.0009726202115416527,0.0009156549349427223
1738772984262636800,10.84163671875,0.0009515134152024984,0.0018586539663374424,-0.0003493465483188629
1738772984272629000,10.85162890625,0.0014234520494937897,0.00022276630625128746,-0.00009177582978736609
1738772984282620000,10.861619873046875,-0.0006210567080415785,-0.00036925426684319973,-0.00010136321361642331
1738772984292610800,10.87161083984375,-0.0005241450853645802,0.0007514255121350288,0.0013683615252375603
1738772984302602000,10.88160205078125,-0.0014538546092808247,-0.0006219663191586733,-0.0016583208926022053
1738772984312593000,10.891593017578124,0.00015298021025955677,-0.00009706709533929825,0.000050731716328300536
1738772984322583800,10.901583740234376,-0.00004436005838215351,0.0004440871998667717,-0.0005474142963066697
1738772984332574700,10.91157470703125,-0.0002964261220768094,-0.0011698638554662466,-0.00013182105612941086
1738772984342567000,10.92156689453125,0.0000899984734132886,0.000058918725699186325,-0.00043435615953058004
1738772984352557800,10.931557861328125,0.00025019270833581686,-0.0004962242674082518,0.00037505332147702575
1738772984362548700,10.941548828125,-0.002189262770116329,-0.00042485143058001995,-0.00017568843031767756
1738772984372540000,10.951539794921874,-0.00012973137199878693,0.0010042674839496613,0.0008846417767927051
1738772984382530800,10.96153076171875,0.0006761412369087338,0.00034859729930758476,-0.00010791842214530334
1738772984392522000,10.97152197265625,-0.0009226289694197476,0.0013297733385115862,0.0016144810942932963
1738772984402514000,10.981513916015626,0.000703763565979898,0.000006448477506637573,0.0012885102769359946
1738772984412504800,10.9915048828125,-0.0016319176647812128,0.0011776299215853214,0.00032436518813483417
1738772984422495700,11.001495849609375,0.0003561321645975113,0.0008370117284357548,0.0004444737278390676
1738772984432487000,11.01148681640625,-0.00027752795722335577,0.0018952288664877415,-0.0009384407312609255
1738772984442477800,11.021477783203125,0.001828233478590846,0.0003276923671364784,-0.00007717446715105325
1738772984452469000,11.031468994140624,-0.0008586739422753453,0.0002979491837322712,0.0006121725891716778
1738772984462460200,11.041460205078126,-0.00044801447074860334,0.00047451676800847054,-0.00035109277814626694
1738772984472451800,11.051451904296876,0.0011916534276679158,0.000052287010475993156,-0.0006800653645768762
1738772984482442800,11.06144287109375,-0.00025124731473624706,-0.000020949868485331535,-0.000007084570825099945
1738772984492434000,11.071433837890625,-0.0018873652443289757,-0.0014555221423506737,-0.0014814089518040419
1738772984502424800,11.0814248046875,-0.0007675060187466443,-0.000804645475000143,-0.0010635589715093374
1738772984512416000,11.091416015625,-0.0005040429532527924,-0.0004962636157870293,0.0007143027614802122
1738772984522407200,11.1014072265625,-0.00048406922724097967,0.000058472855016589165,-0.0009930498199537396
1738772984532398000,11.111398193359374,-0.001016809488646686,0.0007486422546207905,0.00037560751661658287
1738772984542389800,11.1213896484375,-0.0007848481182008982,-0.00009611248970031738,0.00041262549348175526
1738772984552381000,11.131380859375,0.0010286319302394986,-0.0002663384657353163,-0.0009661500807851553
1738772984562372000,11.1413720703125,0.00027389219030737877,-0.0010365245398133993,0.00014785019448027015
1738772984572363000,11.151363037109375,-0.001938456785865128,0.0005925954319536686,-0.0010123240062966943
1738772984582354000,11.16135400390625,0.0005739693297073245,-0.00030435738153755665,0.00041859244811348617
1738772984592345000,11.171344970703124,-0.0004326300695538521,-0.0005507825408130884,-0.00013700603449251503
1738772984602336800,11.181336669921874,-0.0009756485815159976,-0.0002754116430878639,-0.0015708520077168941
1738772984612328000,11.191327880859374,-0.0006649235147051513,0.0002813190221786499,-0.0017026636051014066
1738772984622319000,11.201319091796876,0.001189701841212809,-0.0009402730502188206,-0.0003207492991350591
1738772984632310000,11.21131005859375,-0.0008074727957136929,-0.0009469026699662209,0.0002970846544485539
1738772984642301000,11.221301025390625,0.0001408788375556469,-0.00008563650771975517,-0.00007176317740231752
1738772984652292000,11.2312919921875,-0.001848993357270956,0.0010146256536245346,0.0006784566212445498
1738772984662283000,11.241282958984375,-0.0018074479885399342,0.0010385941714048386,-0.0008834874024614692
1738772984672275000,11.25127490234375,0.001222071936354041,0.0015208579134196043,-0.0015099135925993323
1738772984682266000,11.26126611328125,-0.0011188465869054198,0.0006023335736244917,-0.000729873776435852
1738772984692257000,11.271257080078126,0.0008520865812897682,0.00212340010330081,0.001883405726402998
1738772984702248000,11.281248046875,0.0014100188855081797,-0.0007006158120930195,-0.0000769472389947623
1738772984712239000,11.291239013671875,0.000643337843939662,0.00044325413182377815,0.0008253178093582392
1738772984722230000,11.30122998046875,-0.0018477831035852432,-0.001217226730659604,0.001012271735817194
1738772984732221000,11.311220947265625,-0.00043472927063703537,-0.0006464382167905569,0.0015882477164268494
1738772984742213000,11.321213134765625,-0.00010183406993746758,-0.00011673546396195889,-0.0008429520530626178
1738772984752204000,11.3312041015625,-0.0010792439570650458,-0.00016458379104733467,0.00035815598675981164
1738772984762195000,11.34119482421875,0.0002339608035981655,0.0014365087263286114,-0.0005049745086580515
1738772984772186000,11.35118603515625,-0.000004505971446633339,-0.0011596723925322294,0.0021094384137541056
1738772984782177000,11.361177001953125,-0.0013736371183767915,-0.00045446748845279217,0.0005144712049514055
1738772984792168000,11.37116796875,-0.0003212981391698122,-0.0013534754980355501,-0.0005306624807417393
1738772984802160000,11.38116015625,-0.0006193058798089623,0.0009275220800191164,0.0006397968390956521
1738772984812151000,11.391151123046875,0.0008404472609981894,0.00027549825608730316,-0.0004096173506695777
1738772984822142000,11.401141845703124,0.00018051580991595984,-0.0011610109359025955,0.0004878679465036839
1738772984832133000,11.411133056640624,0.00027735065668821335,-0.0005964117590337992,-0.00037861044984310865
