time,seconds_elapsed,z,y,x
1738772973445974800,0.024974853515625,0.0007664577569812536,0.003549993736669421,0.0008588694618083537
1738772973455965700,0.034965576171875,0.001606152392923832,0.004839496221393347,0.00034647725988179445
1738772973465958000,0.0449580078125,0.0017805894603952765,0.004179564770311117,0.0007800398743711412
1738772973475948800,0.05494873046875,0.0006711165769957006,0.0039867521263659,0.0015100123127922416
1738772973485940000,0.06493994140625,0.0019539613276720047,0.00410419749096036,-0.0004058657505083829
1738772973495931000,0.074930908203125,0.0015121428295969963,0.004602208733558655,-0.0001174454009742476
1738772973505921800,0.084921875,0.0006303702248260379,0.004463191609829664,0.0008378304773941636
1738772973515912700,0.09491259765625,0.002386192325502634,0.004658401478081942,0.0004889564006589353
1738772973525905000,0.10490478515625,0.0010607370641082525,0.005331115797162056,0.0017262609908357263
1738772973535895800,0.114895751953125,0.0003834952076431364,0.0027321369852870703,-0.0009028115891851485
1738772973545886700,0.12488671875,0.000004793690095539205,0.003425091505050659,-0.00005885586142539978
1738772973555878000,0.1348779296875,0.0005558017292059958,0.004589691758155823,0.0005885586142539978
1738772973565868800,0.144868896484375,0.0005360943032428622,0.0048855687491595745,0.001204547705128789
1738772973575859700,0.154859619140625,0.00034461304312571883,0.0031784826423972845,0.0018586200894787908
1738772973585851000,0.164850830078125,0.0020764668006449938,0.004357464145869017,0.00045380264054983854
1738772973595842800,0.1748427734375,-0.0004644552827812731,0.004110589157789946,0.0009265137487091124
1738772973605833700,0.184833740234375,0.0013883059145882726,0.004378769546747208,-0.0000756337758502923
1738772973615825000,0.194824951171875,0.0001608549355296418,0.004492752719670534,0.0005012069013901055
1738772973625815800,0.20481591796875,0.001401089015416801,0.004388356581330299,0.0009209210984408855
1738772973635806700,0.214806640625,0.0015390408225357533,0.003325755475088954,0.0010719223646447062
1738772973645798000,0.2247978515625,0.0018884475575760007,0.0035683694295585155,-0.0015970977256074548
1738772973655789800,0.234789794921875,0.0021843246649950743,0.003510312642902136,-0.0009440905996598303
1738772973665780700,0.24478076171875,0.0018343853298574686,0.00446958327665925,0.00012729909212794155
1738772973675772000,0.25477197265625,0.001933721243403852,0.0037707698065787554,0.0007278419216163456
1738772973685762800,0.2647626953125,0.0022181468084454536,0.004284493625164032,0.0011643340112641454
1738772973695753700,0.274753662109375,0.000844754686113447,0.00336117553524673,-0.0017949705943465233
1738772973705744600,0.28474462890625,0.00133850472047925,0.005560413934290409,0.0009741843095980585
1738772973715736800,0.29473681640625,0.0017768610268831253,0.00487358495593071,-0.0004956142511218786
1738772973725727700,0.304727783203125,0.0022825952619314194,0.004219246096909046,0.00006151902198325843
1738772973735719000,0.314718994140625,0.0028474517166614532,0.003736947663128376,-0.00012250541476532817
1738772973745709800,0.324709716796875,0.0007845672662369907,0.004865595139563084,0.0010759170399978757
1738772973755700700,0.33470068359375,0.001201884588226676,0.004466920159757137,0.0009078715811483562
1738772973765691600,0.344691650390625,0.0013379721203818917,0.003198456484824419,0.0010298443958163261
1738772973775682800,0.354682861328125,-0.0002263686910737306,0.003955326974391937,0.00006364954606397077
1738772973785674800,0.3646748046875,0.0016703346045687795,0.004309527110308409,-0.0006564692012034357
1738772973795666000,0.374666015625,0.002017078222706914,0.003626692807301879,-0.00017443705291952938
1738772973805656800,0.38465673828125,0.0037470676470547915,0.0032597091048955917,0.0007374293054454029
1738772973815647700,0.394647705078125,0.00037257623625919223,0.0029198897536844015,0.00005326322207110934
1738772973825638700,0.404638671875,0.00030413299100473523,0.005136438645422459,-0.00022929816623218358
1738772973835629800,0.4146298828125,0.0000798948312876746,0.004458131734281778,0.0006231797160580754
1738772973845621800,0.424621826171875,0.0024881914723664522,0.003692472819238901,-0.00011238539445912465
1738772973855612700,0.43461279296875,0.0022365227341651917,0.003834685543552041,-0.00029774141148664057
1738772973865603800,0.444603759765625,0.0001853560097515583,0.00401657959446311,0.0006239786162041128
1738772973875594800,0.4545947265625,0.0012876383261755109,0.003226952161639929,0.0012652678415179253
1738772973885585700,0.464585693359375,0.0008309062686748803,0.0035952674224972725,0.0011430287268012762
1738772973895576800,0.474576904296875,0.0012234562309458852,0.004668787587434053,0.0005129248020239174
1738772973905568800,0.48456884765625,0.000630636524874717,0.004505802411586046,0.00006711165769957006
1738772973915559700,0.4945595703125,0.0016053534345701337,0.0026469158474355936,-0.00013448962999973446
1738772973925550800,0.50455078125,0.0020208065398037434,0.003936951048672199,0.00005166532355360687
1738772973935541800,0.514541748046875,0.002778209513053298,0.002965163439512253,-0.00033582461765035987
1738772973945532700,0.52453271484375,0.0005589975044131279,0.003543868428096175,0.0008500810363329947
1738772973955523800,0.53452392578125,0.001067927572876215,0.0032258869614452124,-0.0004892227007076144
1738772973965515000,0.544514892578125,0.0008697884040884674,0.003522563260048628,0.0015994944842532277
1738772973975506700,0.554506591796875,0.001383512164466083,0.004011519718915224,0.0005997438565827906
1738772973985497900,0.564497802734375,0.0016919062472879887,0.0027164241764694452,0.00044794369023293257
1738772973995488800,0.57448876953125,-0.0002822950773406774,0.004024568945169449,-0.00036724991514347494
1738772974005480000,0.58447998046875,0.0006154565489850938,0.003481284249573946,0.002085787709802389
1738772974015470800,0.594470947265625,0.0009803095599636436,0.0022684806026518345,0.0008253136184066534
1738772974025462000,0.6044619140625,0.0009749832679517567,0.003790477057918906,0.0005558017292059958
1738772974035453700,0.61445361328125,0.0026932547334581614,0.0035175031516700983,0.0013190637109801173
1738772974045444900,0.62444482421875,0.0018916432745754719,0.004137753508985043,0.0014141384745016694
1738772974055435800,0.634435791015625,0.002112419344484806,0.003724430687725544,0.0007070692372508347
1738772974065427000,0.644427001953125,0.002095375210046768,0.003709516953676939,0.0002681803307496011
1738772974075417900,0.65441796875,0.0017323862994089723,0.004173972178250551,-0.0007416903390549123
1738772974085409000,0.664408935546875,0.0008977515972219408,0.004379035905003548,0.0013195963110774755
1738772974095400700,0.674400634765625,0.0023193468805402517,0.003820304526016116,-0.0010567422723397613
1738772974105391900,0.684391845703125,0.00040320257539860904,0.0034288198221474886,-0.00031664984999224544
1738772974115382800,0.6943828125,-0.000015712650565546937,0.0054972972720861435,-0.0006884271278977394
1738772974125374000,0.7043740234375,0.0017845842521637678,0.004169711377471685,0.0016487629618495703
1738772974135364900,0.71436474609375,0.00003355582884978503,0.003641073824837804,-0.0007512777228839695
1738772974145356500,0.7243564453125,0.001642371411435306,0.003924966789782047,0.0004700479330495
1738772974155348700,0.7343486328125,0.0021065603941679,0.004779841285198927,0.00040559942135587335
1738772974165339600,0.744339599609375,0.0001699096756055951,0.004526575095951557,-0.00021837920940015465
1738772974175330600,0.75433056640625,-0.0004772384709212929,0.004466121084988117,0.0011968245962634683
1738772974185321700,0.76432177734375,0.0018527611391618848,0.004991296678781509,0.0012199940392747521
1738772974195312600,0.774312744140625,-0.0006631271098740399,0.0038392129354178905,0.0012159993639215827
1738772974205303600,0.784303466796875,0.0008237157016992569,0.0044232443906366825,0.0007448861724697053
1738772974215295700,0.794295654296875,0.0005486111622303724,0.004204865079373121,0.0000021305288555595325
1738772974225286700,0.80428662109375,0.00046924897469580173,0.0032080437522381544,0.0009709885343909264
1738772974235277600,0.814277587890625,0.0016138756182044744,0.003322559641674161,0.0015632755821570754
1738772974245268700,0.824268798828125,0.0008354336023330688,0.0037587855476886034,-0.00020186760229989886
1738772974255259600,0.834259765625,0.0014002900570631027,0.002986468840390444,0.0011060107499361038
1738772974265250600,0.84425048828125,0.0010407633380964398,0.004748416133224964,0.0005584649043157697
1738772974275241700,0.85424169921875,0.001156877144239843,0.004743888974189758,-0.001127848750911653
1738772974285233700,0.864233642578125,0.0014106763992458582,0.0035947347059845924,0.00044767739018425345
1738772974295224600,0.874224609375,0.000556334329303354,0.001883387565612793,0.0005853627808392048
1738772974305215700,0.8842158203125,0.002386192325502634,0.003594202222302556,0.00039015308720991015
1738772974315206700,0.89420654296875,0.0018197379540652037,0.00481366366147995,0.000461259507574141
1738772974325197800,0.90419775390625,0.001130245509557426,0.0037001960445195436,0.0006149238906800747
1738772974335188700,0.914188720703125,0.0009896307019516826,0.003591539105400443,0.0009736517095007002
1738772974345180700,0.9241806640625,0.0007539408979937434,0.0028093685396015644,0.00047590688336640596
1738772974355171600,0.934171630859375,0.0016016251174733043,0.002701510675251484,0.00119629199616611
1738772974365162800,0.944162841796875,0.001112935016863048,0.003287405939772725,0.0014895059866830707
1738772974375153700,0.954153564453125,0.00036671728594228625,0.004279433749616146,0.0006495449924841523
1738772974385144800,0.964144775390625,0.0005704491049982607,0.004821653012186289,0.0015997608425095677
1738772974395135700,0.9741357421875,0.0013752563390880823,0.004957474302500486,-0.001026382320560515
1738772974405127000,0.984126953125,0.0012833772925660014,0.00466532539576292,0.000499875342939049
1738772974415118600,0.99411865234375,0.0010852381819859147,0.005105546209961176,-0.0013036173768341541
1738772974425109500,1.004109619140625,0.00010599380766507238,0.0036370791494846344,0.00013422331539914012
1738772974435100700,1.0141005859375,0.0003890878288075328,0.004797684494405985,0.0005070658517070115
1738772974445091800,1.024091796875,0.001253017340786755,0.002416286151856184,-0.001418932224623859
1738772974455082800,1.034082763671875,0.00041252365917898715,0.005095958709716797,-0.00020825919636990875
1738772974465074000,1.044073974609375,0.0026202842127531767,0.003628823207691312,0.000035420041967881843
1738772974475065600,1.054065673828125,0.0011251855175942183,0.004847219679504633,0.0001704423048067838
1738772974485056500,1.064056396484375,0.003310841741040349,0.004114051349461079,0.0024370586033910513
1738772974495047700,1.074047607421875,0.0016460998449474573,0.002808569697663188,-0.0008889631717465818
1738772974505038800,1.084038818359375,0.0024764735717326403,0.0032410670537501574,-0.00012969593808520585
1738772974515029800,1.09402978515625,-0.000788561999797821,0.0041702440939843655,-0.0011182613670825958
1738772974525021000,1.10402099609375,0.002141980454325676,0.003546265186741948,-0.0006149238906800747
1738772974535012600,1.1140126953125,0.0004748416249640286,0.003212571144104004,0.0005387574783526361
1738772974545003800,1.124003662109375,0.000333161442540586,0.004151335451751947,0.0018540926976129413
1738772974554995000,1.133994873046875,0.0015931029338389635,0.001347825862467289,-0.0007097324123606086
1738772974564985900,1.14398583984375,0.0011004181578755379,0.004960403777658939,-0.0010636665392667055
1738772974574976800,1.153976806640625,0.00023169501218944788,0.0032147017773240805,0.0014194648247212172
1738772974584968000,1.163968017578125,0.0010428938549011946,0.00392762990668416,-0.00033635724685154855
1738772974594959600,1.173959716796875,0.0002247707889182493,0.002281263703480363,0.0001805623178370297
1738772974604950800,1.18395068359375,0.0006295712664723396,0.0046386937610805035,0.00006764429417671636
1738772974614942000,1.19394189453125,0.000604004948399961,0.005004612263292074,0.0011667308863252401
1738772974624932900,1.203932861328125,0.0008173241512849927,0.00373028963804245,0.0002777676854748279
1738772974634923800,1.213923828125,0.0013627394801005721,0.0036458675749599934,-0.00006072007090551779
1738772974644914700,1.223914794921875,0.0008290420519188046,0.003972104750573635,0.001592037733644247
1738772974654905900,1.23390576171875,0.000975782226305455,0.002983805723488331,0.00038216362008824944
1738772974664897800,1.243897705078125,0.0012767193838953972,0.0035473306197673082,0.0001728391507640481
1738772974674889000,1.253888916015625,0.002426938619464636,0.003835750976577401,-0.00004394215648062527
1738772974684880000,1.2638798828125,0.002311623888090253,0.003132676472887397,-0.00130894361063838
1738772974694870800,1.273870849609375,-0.0008609999786131084,0.004080495331436396,0.0015707324491813779
1738772974704861700,1.28386181640625,0.0020751350093632936,0.002767024328932166,0.00034674355993047357
1738772974714852900,1.293852783203125,-0.0006980145117267966,0.0036546560004353523,0.0002519350382499397
1738772974724844800,1.3038447265625,0.0034911378752440214,0.004893025849014521,-0.00038722361205145717
1738772974734835700,1.313835693359375,0.00003328951424919069,0.0034298852551728487,-0.0009483516332693398
1738772974744827000,1.323826904296875,0.0015662050573155284,0.0034759577829390764,0.00045859633246436715
1738772974754817800,1.33381787109375,-0.0008287757518701255,0.0041340249590575695,0.0015640745405107737
1738772974764808700,1.34380859375,0.0011251855175942183,0.003772634081542492,0.0002633866388350725
1738772974774800000,1.3537998046875,0.000862864195369184,0.002109489869326353,0.00006631271389778703
1738772974784791800,1.363791748046875,0.000520647969096899,0.0041004689410328865,-0.0009062737226486206
1738772974794782700,1.37378271484375,0.0006056028068996966,0.005148689262568951,0.0003432814555708319
1738772974804774000,1.38377392578125,-0.00036911413189955056,0.004942560568451881,0.0014897723449394107
1738772974814764800,1.393764892578125,0.0003304982965346426,0.0032559807877987623,0.0007768440991640091
1738772974824755700,1.403755615234375,-0.0003067961661145091,0.004625910893082619,-0.0018442390719428658
1738772974834747000,1.413746826171875,-0.00028628981090150774,0.00421338714659214,0.0008205199264921248
1738772974844738800,1.42373876953125,0.0010420948965474963,0.0032538501545786858,-0.0012948289513587952
1738772974854729700,1.433729736328125,0.0013022858183830976,0.004685565363615751,0.0005752427969127893
1738772974864721000,1.443720947265625,0.0004972121678292751,0.004225105047225952,-0.0008266451768577099
1738772974874711800,1.4537119140625,0.001386707997880876,0.004327103961259127,0.0017028251895681024
1738772974884702700,1.46370263671875,0.00021891183860134333,0.0032234902027994394,0.0003254382754676044
1738772974894694000,1.47369384765625,-0.0008474178612232208,0.0035457327030599117,0.0005667206714861095
1738772974904685800,1.483685791015625,0.0018940401496365666,0.00436172541230917,-0.0006447513005696237
1738772974914676700,1.4936767578125,0.0018413095967844129,0.0037374801468104124,0.00023276027059182525
1738772974924668000,1.50366796875,0.004218979738652706,0.0035353463608771563,-0.0008295746520161629
1738772974934658800,1.513658935546875,0.0004966795677319169,0.0036575854755938053,0.0015582155901938677
1738772974944649700,1.523649658203125,0.0013646037550643086,0.003510312642902136,0.0007582019316032529
1738772974954640600,1.533640625,0.0005507417372427881,0.004992628004401922,0.0017212009988725185
1738772974964632800,1.5436328125,0.00020586235041264445,0.00395665830001235,-0.00014194648247212172
1738772974974623700,1.553623779296875,0.0016173376934602857,0.003822967642918229,0.0013821806060150266
1738772974984615000,1.563614990234375,0.002656236756592989,0.0032527849543839693,0.00024740767548792064
1738772974994605800,1.573605712890625,0.0006788397440686822,0.004026699345558882,-0.00012863067968282849
1738772975004596700,1.5835966796875,0.0013795174891129136,0.0037910097744315863,-0.0004293015517760068
1738772975014587600,1.593587646484375,0.0007227819296531379,0.0044051348231732845,0.0013025520602241158
1738772975024579800,1.603579833984375,0.0025041704066097736,0.0046480149030685425,0.0004348942020442337
1738772975034570800,1.61357080078125,0.0016932378057390451,0.0027470507193356752,0.0007001450285315514
1738772975044561700,1.623561767578125,0.0026226809713989496,0.003070092061534524,0.0006354302167892456
1738772975054552800,1.633552734375,0.0007403587806038558,0.004795554094016552,-0.00011824435205198824
1738772975064543700,1.643543701171875,0.0013811152894049883,0.00267807487398386,-0.0003222425002604723
1738772975074534700,1.65353466796875,-0.0005193164106458426,0.0023102923296391964,0.0001054611784638837
1738772975084525800,1.66352587890625,0.0027110979426652193,0.0019406455103307962,-0.0008567389450035989
1738772975094517800,1.673517822265625,0.0017480988753959537,0.0031609057914465666,0.0011113371001556516
1738772975104508700,1.6835087890625,0.0011286477092653513,0.003054911969229579,-0.0005933523061685264
1738772975114499800,1.693499755859375,0.001202150946483016,0.005047223065048456,-0.0014716627774760127
1738772975124490800,1.70349072265625,0.0019257317762821913,0.005143363028764725,0.0006282397080212831
1738772975134481700,1.713481689453125,0.0023499734234064817,0.004534830804914236,0.0008080030675046146
1738772975144472800,1.723472900390625,0.0016197345685213804,0.003968376200646162,-0.0001651159836910665
1738772975154463700,1.733463623046875,0.0025928535033017397,0.002516687149181962,0.0003632551815826446
1738772975164454700,1.74345458984375,-0.00012383698776829988,0.004600078333169222,-0.0005507417372427881
1738772975174445600,1.753445556640625,0.000559530162718147,0.0032597091048955917,0.0009435579413548112
1738772975184436700,1.763436767578125,0.001591505017131567,0.0032112395856529474,-0.00034700988908298314
1738772975194427600,1.773427734375,0.002061286708340049,0.002797118155285716,0.00000958738019107841
1738772975204418600,1.78341845703125,0.0008064051507972181,0.0052320463582873344,0.0016671388875693083
1738772975214410800,1.79341064453125,0.0007542071980424225,0.003783819265663624,-0.0008841694798320532
1738772975224401700,1.803401611328125,0.0005097290268167853,0.004613393917679787,0.0008751147543080151
1738772975234392600,1.813392578125,0.0018247979460284114,0.002987001556903124,-0.00010199906682828441
1738772975244383700,1.8233837890625,0.0014689996605738997,0.004059722647070885,0.002153165638446808
1738772975254374700,1.833374755859375,0.0014849785948172212,0.00395665830001235,0.000565389113035053
1738772975264365600,1.843365478515625,0.0011438276851549745,0.003623496973887086,-0.0004367584188003093
1738772975274356500,1.8533564453125,0.001967277145013213,0.0033627734519541264,-0.00010040117194876075
1738772975284348700,1.8633486328125,0.0014737932942807674,0.004538558889180422,0.0016375777777284384
1738772975294339600,1.873339599609375,0.000028229507734067738,0.0032951291650533676,-0.0001531317684566602
1738772975304330500,1.88333056640625,0.0008729841792955995,0.0031435952987521887,0.0013792511308565736
1738772975314321700,1.89332177734375,0.0007723167072981596,0.003433080855756998,0.0010993528412654996
1738772975324312600,1.9033125,0.0016828514635562897,0.003798999357968569,0.000833036785479635
1738772975334303700,1.9133037109375,-0.0006988134700804949,0.002546248259022832,-0.0004884237423539162
1738772975344295700,1.923295654296875,0.001580319833010435,0.003715375903993845,-0.0012282498646527529
1738772975354286600,1.93328662109375,0.001439971150830388,0.005264004226773977,-0.00032091091270558536
1738772975364277500,1.943277587890625,0.0022303974255919456,0.0032463932875543833,-0.0005379585199989378
1738772975374268700,1.9532685546875,0.0011028150329366326,0.004583566449582577,0.00013608753215521574
1738772975384259600,1.963259521484375,0.0031473238486796618,0.004531901329755783,0.0013432984706014395
1738772975394250800,1.973250732421875,0.0007808388327248394,0.0032855418976396322,0.0015520902816206217
1738772975404242000,1.983241943359375,0.0030189594253897667,0.004738030023872852,0.0007400924805551767
1738772975414233600,1.993233642578125,0.0024887239560484886,0.004505802411586046,0.0007837683078832924
1738772975424224500,2.003224609375,0.0013262542197480798,0.0041153826750814915,0.000021837920940015465
1738772975434215700,2.013215576171875,0.0017118799732998013,0.0032983249984681606,-0.0009081379394046962
1738772975444206600,2.02320654296875,0.002540389308705926,0.003290868131443858,0.0011827098205685616
1738772975454197800,2.03319775390625,0.0016026903176680207,0.004314853344112635,-0.001044491771608591
1738772975464188700,2.043188720703125,0.0029518476221710443,0.003970772959291935,-0.0015241270884871483
1738772975474180600,2.0531806640625,0.0024351945612579584,0.003427488263696432,0.0011946940794587135
1738772975484171500,2.063171630859375,0.002375007141381502,0.0018274611793458462,0.0015901734586805105
1738772975494162700,2.07316259765625,0.002612827345728874,0.0033161682076752186,-0.0007483482477255166
1738772975504153900,2.08315380859375,0.002317482838407159,0.005548696033656597,0.0006474144756793976
1738772975514144800,2.093144775390625,0.0017694041598588228,0.0027079021092504263,0.00022556974727194756
1738772975524135700,2.1031357421875,0.0013126720441505313,0.002139317337423563,-0.0007960188668221235
1738772975534126800,2.113126953125,0.002079662401229143,0.003954527899622917,0.0008476841612718999
1738772975544118500,2.123118408203125,0.0022178804501891136,0.002302302746102214,-0.001067927572876215
1738772975554109700,2.133109619140625,0.002808036981150508,0.0018911106744781137,0.0000045273736759554595
1738772975564100900,2.143100830078125,0.000720118754543364,0.004017910920083523,0.00012650014832615852
1738772975574091800,2.153091796875,0.0013185309944674373,0.0041036647744476795,0.0008551410282962024
1738772975584082700,2.163082763671875,0.0004037352045997977,0.0035542547702789307,0.0009041432058438659
1738772975594073900,2.173073974609375,0.0035862126387655735,0.004483697935938835,0.0014495585346594453
1738772975604065500,2.1830654296875,0.0020626182667911053,0.004322576802223921,-0.0007582019316032529
1738772975614056700,2.193056640625,0.0022266688756644726,0.0038248319178819656,-0.0008665926288813353
1738772975624047900,2.2030478515625,0.0026173547375947237,0.003626426449045539,-0.00012756542128045112
1738772975634038800,2.213038818359375,0.0006242449744604528,0.0028005801141262054,0.00005406216951087117
1738772975644029700,2.22302978515625,0.00022264027211349458,0.004171575419604778,-0.0004370247188489884
1738772975654020900,2.233020751953125,0.0006897587445564568,0.0032860743813216686,-0.0007845672662369907
1738772975664011800,2.24301171875,0.00025007082149386406,0.004763862583786249,0.0009227853151969612
1738772975674003700,2.253003662109375,0.0006173207075335085,0.004856806714087725,0.00017789915727917105
1738772975683995000,2.262994873046875,0.002389121800661087,0.0027827369049191475,0.0005246427026577294
1738772975693985800,2.27298583984375,-0.0013350426452234387,0.0030599720776081085,0.0006290386663749814
1738772975703976700,2.282976806640625,0.002557699801400304,0.004768389742821455,0.00017363809456583112
1738772975713967900,2.2929677734375,0.0020445086993277073,0.003290601773187518,0.0012066783383488655
1738772975723958800,2.302958740234375,0.0018945727497339249,0.0036373452749103308,-0.0008420915110036731
1738772975733950700,2.31295068359375,0.000502804818097502,0.0035063179675489664,-0.0003968109958805144
1738772975743942000,2.32294189453125,0.001463406952098012,0.004048004746437073,0.0007928230334073305
1738772975753932800,2.332932861328125,0.00019893812714144588,0.0039007319137454033,0.0005874933558516204
1738772975763923700,2.342923828125,0.000030360035452758893,0.00395799009129405,0.00020532972121145576
1738772975773914600,2.35291455078125,0.0009235842735506594,0.0034442662727087736,-0.0013997574569657445
1738772975783905800,2.36290576171875,0.0008000136003829539,0.004240817856043577,0.00008255799184553325
1738772975793896700,2.372896728515625,0.003593669505789876,0.002913498319685459,0.0016596820205450058
1738772975803889000,2.382888916015625,-0.0016711335629224777,0.0034914042335003614,0.00008122641156660393
1738772975813879800,2.3928798828125,0.001868473831564188,0.0028210864402353764,-0.0008535431115888059
1738772975823870700,2.40287060546875,0.002484995638951659,0.00353428116068244,-0.000045540054998127744
1738772975833861600,2.412861572265625,0.0020394488237798214,0.002802977105602622,-0.000809068325906992
1738772975843852800,2.422852783203125,0.0012157330056652427,0.0029822078067809343,0.0001954760227818042
1738772975853843700,2.43284375,0.001740109408274293,0.004181961994618177,0.0007161240209825337
1738772975863834600,2.442834716796875,0.0010543455136939883,0.0031039142049849033,-0.00023995080846361816
1738772975873826800,2.452826904296875,0.0017531589837744832,0.0030716899782419205,0.0003110571997240186
1738772975883817700,2.462817626953125,0.000743554555810988,0.0038426751270890236,-0.0006625944515690207
1738772975893808600,2.47280859375,0.0003552656853571534,0.003315103007480502,-0.00005619269722956233
1738772975903799800,2.4827998046875,0.0017473000334575772,0.003240001853555441,-0.0011669971281662583
1738772975913790700,2.492790771484375,0.0020040287636220455,0.00378994457423687,0.00022450447431765497
1738772975923781600,2.50278173828125,0.0013765880139544606,0.0041004689410328865,-0.001166198286227882
1738772975933773800,2.51277392578125,0.000493750034365803,0.003239735495299101,0.0004852279380429536
1738772975943764700,2.5227646484375,0.001255414099432528,0.0027134947013109922,0.0014969628537073731
1738772975953755600,2.532755615234375,0.0009150621481239796,0.002788063371554017,0.0003193130251020193
1738772975963746800,2.542746826171875,0.002007757080718875,0.003959321416914463,-0.00012490226072259247
1738772975973737700,2.55273779296875,0.0015755260828882456,0.0033957967534661293,-0.000015180017726379447
1738772975983728600,2.562728759765625,0.0005379585199989378,0.0037859496660530567,0.00027803401462733746
1738772975993719600,2.572719482421875,0.0022237394005060196,0.004546015989035368,-0.0010942928493022919
1738772976003711700,2.582711669921875,0.0016138756182044744,0.0030125677585601807,-0.00025246766745112836
1738772976013702700,2.59270263671875,0.002302835462614894,0.0032570459879934788,-0.00028069718973711133
1738772976023693800,2.60269384765625,-0.0004394215648062527,0.0037920749746263027,-0.0001102548703784123
1738772976033684700,2.612684814453125,0.0004892227007076144,0.0023089605383574963,-0.0007547398563474417
1738772976043675600,2.622675537109375,0.0019089538836851716,0.0024927188642323017,0.0002596582053229213
1738772976053666600,2.63266650390625,0.0009688580175861716,0.0043840957805514336,0.000532632227987051
1738772976063657700,2.64265771484375,-0.00001917476038215682,0.003695402294397354,0.000395745737478137
1738772976073649700,2.652649658203125,0.0003336940717417747,0.005388906225562096,0.0008197209681384265
1738772976083640600,2.662640625,0.003242132253944874,0.004449343308806419,0.0003779025573749095
1738772976093631700,2.6726318359375,0.0024056334514170885,0.004664793144911528,0.0013187973527237773
1738772976103622700,2.68262255859375,0.00022077605535741895,0.003043194068595767,-0.00012863067968282849
1738772976113613600,2.692613525390625,0.0003789678157772869,0.004577441141009331,-0.0000031957933970261365
1738772976123604700,2.702604736328125,0.0027326694689691067,0.004116980824619532,-0.00043809000635519624
1738772976133596700,2.7125966796875,0.0022708773612976074,0.004396879114210606,-0.0018072210950776935
1738772976143587600,2.722587646484375,0.0008692557457834482,0.003930026665329933,0.0008591357618570328
1738772976153579500,2.73257958984375,0.0015960324089974165,0.003038400551304221,-0.0005392901366576552
1738772976163570700,2.74257080078125,0.0018442390719428658,0.004278901033103466,0.00008921589324017987
1738772976173561600,2.7525615234375,0.0016072177095338702,0.003297259798273444,0.0004082625964656472
1738772976183552500,2.762552490234375,0.002198439557105303,0.0027209515683352947,-0.0006892260862514377
1738772976193543700,2.772543701171875,0.0013164004776626825,0.004568119999021292,-5.326322138898831e-7
1738772976203535600,2.78253564453125,0.0017888452857732773,0.004816060420125723,0.00020959076937288046
1738772976213526500,2.792526611328125,0.001714010490104556,0.003683950752019882,0.001752360025420785
1738772976223517700,2.802517578125,0.0013760552974417806,0.004464789759367704,0.0007954862085171044
1738772976233508600,2.812508544921875,0.0017808558186516166,0.004578772932291031,-0.00011904330312972888
1738772976243499500,2.82249951171875,0.002532399957999587,0.0026913906913250685,0.00017949705943465233
1738772976253490700,2.83249072265625,0.0005845638806931674,0.004772651009261608,0.0015757924411445856
1738772976263481600,2.842481689453125,0.0023702133912593126,0.004216849338263273,-0.0005347627447918057
1738772976273473500,2.8524736328125,0.0015472965314984322,0.0037982002831995487,0.0005880259559489787
1738772976283464700,2.862464599609375,0.004141215234994888,0.003350256709381938,0.0010215885704383254
1738772976293455600,2.87245556640625,0.0024202808272093534,0.004749747924506664,0.00040506679215468466
1738772976303446500,2.882446533203125,0.00304718897677958,0.0038211036007851362,0.0002146507758880034
1738772976313437400,2.8924375,0.0016351809026673436,0.00392816262319684,0.0005605954211205244
1738772976323428600,2.9024287109375,0.0009494169498793781,0.003406981937587261,0.0002287655370309949
1738772976333419500,2.91241943359375,0.0021848573815077543,0.0038541266694664955,0.0007843009079806507
1738772976343411700,2.92241162109375,0.0009837717516347766,0.0041212416253983974,0.0016290555940940976
1738772976353402600,2.932402587890625,-0.00004021373388241045,0.002517219865694642,-0.00030173614504747093
1738772976363393500,2.9423935546875,0.0015954998089000583,0.005096491426229477,-0.0006641923682764173
1738772976373384400,2.952384521484375,0.0013257216196507215,0.004845621529966593,0.000648479734081775
1738772976383375600,2.962375732421875,-0.00012543488992378116,0.004460794851183891,0.00038216362008824944
1738772976393366500,2.972366455078125,0.00043356261448934674,0.0033936661202460527,0.00037710359902121127
1738772976403357400,2.982357421875,0.0009155947482213378,0.003457315731793642,-0.001050617080181837
1738772976413349600,2.992349609375,0.0014961638953536749,0.003412840887904167,0.0002846919232979417
1738772976423340500,3.002340576171875,0.0006095975404605269,0.0023435817565768957,0.0006370281334966421
1738772976433331500,3.01233154296875,0.0021015002857893705,0.002642122097313404,0.00009427589975530282
1738772976443322600,3.022322509765625,0.0019771307706832886,0.003133208956569433,0.0003028014034498483
1738772976453313500,3.0323134765625,0.002280997345224023,0.004775846842676401,-0.0009299758239649236
1738772976463304400,3.042304443359375,0.001252750982530415,0.005052282940596342,0.0000673779723001644
1738772976473295600,3.052295654296875,0.0030208237003535032,0.005167065188288689,0.0003211772127542645
1738772976483287600,3.06228759765625,0.0011712582781910896,0.005370797123759985,-0.00012969593808520585
1738772976493278500,3.072278564453125,0.0012516856659203768,0.004721518140286207,-0.001074052881449461
1738772976503269600,3.08226953125,0.00063383235828951,0.003721234854310751,-0.00030360036180354655
1738772976513260500,3.092260498046875,0.0028397287242114544,0.004304733593016863,0.0006412891671061516
1738772976523251500,3.10225146484375,0.0010013486025854945,0.0021406488958746195,-0.00025246766745112836
1738772976533242400,3.112242431640625,0.0022146848496049643,0.0036272252909839153,0.0009238505735993385
1738772976543233500,3.122233642578125,0.001561944023706019,0.00333241350017488,0.0009576727170497179
1738772976553225500,3.1322255859375,-0.0001347559446003288,0.004036286845803261,0.0007970841252245009
1738772976563216600,3.142216552734375,0.0021252024453133345,0.006354834884405136,0.0006194512825459242
1738772976573207600,3.15220751953125,-0.000559263804461807,0.004476773552596569,0.00031798143754713237
1738772976583198500,3.162198486328125,0.0009933591354638338,0.001928128651343286,-0.00017976337403524667
1738772976593189400,3.172189453125,0.001564873498864472,0.0043619913049042225,0.00024980452144518495
1738772976603180500,3.1821806640625,0.0009720537927933037,0.003695402294397354,-0.0009603358921594918
1738772976613171500,3.19217138671875,0.0018610169645398855,0.003177950158715248,0.00039254993316717446
1738772976623163400,3.202163330078125,0.002255431143566966,0.003931624814867973,-0.000002663161012605997
1738772976633154600,3.212154541015625,0.0017323862994089723,0.004603007808327675,-0.0007182545377872884
1738772976643145500,3.2221455078125,0.0019656792283058167,0.003820837242528796,0.001981658162549138
1738772976653136400,3.232136474609375,-0.00031638352083973587,0.004945756401866674,-0.0004828310920856893
1738772976663127600,3.24212744140625,0.001461010193452239,0.004686364438384771,0.0004953479510731995
1738772976673118500,3.252118408203125,0.0021997711155563593,0.003914846573024988,0.000290018244413659
1738772976683109600,3.262109619140625,0.0009198558400385082,0.0034874093253165483,-0.0006591323763132095
1738772976693101600,3.2721015625,0.0008008125587366521,0.0032898029312491417,0.0009661948424763978
1738772976703092500,3.282092529296875,0.0020623519085347652,0.0031816784758120775,-0.0007781756576150656
1738772976713083400,3.29208349609375,0.00195156445261091,0.003725229762494564,-0.000027430558475316502
1738772976723074600,3.302074462890625,-0.0005408879951573908,0.002490321872755885,-0.0009049421059899032
1738772976733065700,3.312065673828125,0.002353169023990631,0.00324852392077446,-0.0007387608638964593
1738772976743056600,3.322056640625,0.0031284152064472437,0.0033595776185393333,-0.00014327807002700865
1738772976753047600,3.332047607421875,0.001958488719537854,0.004113518632948399,-0.0006404902087524533
1738772976763039500,3.34203955078125,-0.0003451456723269075,0.0035366779193282127,0.00036485306918621063
1738772976773030400,3.352030517578125,0.0010090717114508152,0.0043902210891246796,-0.00039787625428289175
1738772976783021600,3.362021484375,0.0020969731267541647,0.0037169738207012415,0.0006950850365683436
1738772976793012700,3.3720126953125,0.0015491608064621687,0.0036432044580578804,-0.0006838997360318899
1738772976803003600,3.382003662109375,0.0009960222523659468,0.004211789462715387,0.0017755294684320688
1738772976812994600,3.39199462890625,0.0018722022650763392,0.003775297198444605,-0.0002487392339389771
1738772976822985700,3.40198583984375,0.0012785836588591337,0.003239202778786421,-0.00016484966909047216
1738772976832977400,3.411977294921875,-0.00007243797881528735,0.002491120947524905,-0.0004926847759634256
1738772976842968600,3.421968505859375,0.0013251889031380415,0.0036903421860188246,0.000261788722127676
1738772976852959700,3.431959716796875,0.0013555489713326097,0.004252269398421049,-0.00007350324449362233
1738772976862950700,3.44195068359375,0.0015488944482058287,0.003459446132183075,0.0003406183095648885
1738772976872941600,3.451941650390625,0.0012993563432246447,0.0028602350503206253,-0.00043888893560506403
1738772976882932700,3.4619326171875,0.0032000544015318155,0.0034205641131848097,0.0005475459038279951
1738772976892923600,3.471923583984375,0.0008111988427117467,0.0037803570739924908,0.0016682040877640247
1738772976902915600,3.48191552734375,0.001065264455974102,0.003073554253205657,0.00045619948650710285
1738772976912906800,3.49190673828125,0.0018125474452972412,0.0035084483679383993,0.0011853729374706745
1738772976922897700,3.501897705078125,0.00016218650853261352,0.00526533555239439,-0.00044314999831840396
1738772976932888600,3.511888671875,0.002526008291170001,0.0035598473623394966,0.000026897927455138415
1738772976942879700,3.521879638671875,0.002371278591454029,0.004260525107383728,0.0007193197961896658
1738772976952870700,3.53187060546875,0.00043595946044661105,0.002368881832808256,-0.001249821507371962
1738772976962861600,3.541861572265625,0.0032120386604219675,0.004145210143178701,0.0011821772204712033
1738772976972853800,3.551853759765625,0.0010466222884133458,0.0035420041531324387,0.0010373012628406286
1738772976982844700,3.5618447265625,0.0019800602458417416,0.003456516657024622,0.00017603494052309543
1738772976992835600,3.571835693359375,0.00032676986302249134,0.003245061729103327,-0.0005251753609627485
1738772977002826500,3.581826416015625,-0.000050866376113845035,0.003884486621245742,-0.00038216362008824944
1738772977012817700,3.591817626953125,0.0019507654942572117,0.00472391489893198,0.0004852279380429536
1738772977022808600,3.60180859375,0.0014479606179520488,0.003425357863306999,0.0012178635224699974
1738772977032799500,3.611799560546875,-0.00017017599020618945,0.003025883575901389,-0.00015925703337416053
1738772977042791700,3.621791748046875,0.0011859056539833546,0.004033623728901148,0.0002689792599994689
1738772977052782600,3.631782470703125,0.0014948323369026184,0.004978779703378677,0.0001507349224993959
1738772977062773500,3.6417734375,0.0020881847012788057,0.00404507527127862,0.00032650353386998177
1738772977072764700,3.6517646484375,0.0012064119800925255,0.005135640036314726,0.0012934972764924169
1738772977082755600,3.661755615234375,0.0014972290955483913,0.005276521202176809,0.0003731088654603809
1738772977092746500,3.67174658203125,0.0030655646696686745,0.0028125643730163574,-0.0001334243715973571
1738772977102737700,3.681737548828125,0.0014136058744043112,0.003966512158513069,-0.00020373181905597448
1738772977112729600,3.6917294921875,0.002341451123356819,0.0031973912846297026,0.0024399880785495043
1738772977122720500,3.701720458984375,0.002257827902212739,0.0027198863681405783,-0.0005052016349509358
1738772977132711700,3.711711669921875,0.0009243832319043577,0.005305549595504999,-0.00022556974727194756
1738772977142702600,3.72170263671875,0.0014897723449394107,0.003561445279046893,-0.00010759170982055366
1738772977152693500,3.731693603515625,0.00049082055920735,0.004077033139765263,0.0001752359967213124
1738772977162684400,3.741684326171875,0.001058872789144516,0.003049852093681693,0.0005158542771823704
1738772977172675300,3.75167529296875,0.0020626182667911053,0.003406715579330921,0.0003123887872789055
1738772977182667500,3.76166748046875,0.0023089605383574963,0.0036125779151916504,0.00007270430069183931
1738772977192658400,3.771658447265625,0.0008788431296125054,0.0051899682730436325,-0.0005635248962789774
1738772977202649300,3.7816494140625,0.00023409185814671218,0.0032732912804931402,-0.0005179848521947861
1738772977212640500,3.791640625,0.003739344421774149,0.004832305945456028,0.00014993596414569765
1738772977222631400,3.80163134765625,0.0020157466642558575,0.0036136433482170105,-0.000636761833447963
1738772977232622300,3.811622314453125,0.001187503570690751,0.002838397165760398,0.0004894890007562935
1738772977242613500,3.821613525390625,0.00207699928432703,0.004235225263983011,0.00048655952559784055
1738772977252604400,3.8316044921875,0.000437291048001498,0.0028274781070649624,0.0004857605672441423
1738772977262596400,3.841596435546875,0.0014929680619388819,0.004795820452272892,0.0005928196478635073
1738772977272587500,3.85158740234375,0.00005352953667170368,0.003871171036735177,0.0016330503858625889
1738772977282578400,3.861578369140625,0.0018666095566004515,0.002517486223950982,-0.0009030779474414885
1738772977292569300,3.8715693359375,0.0009267800487577915,0.004459995776414871,0.00021731393644586205
1738772977302560300,3.881560302734375,0.0015840481501072645,0.003698864486068487,0.00023276027059182525
1738772977312551400,3.891551513671875,0.002141714096069336,0.0038277613930404186,0.00013901700731366873
1738772977322542300,3.901542236328125,0.00040293627534992993,0.004501274786889553,0.0013265205780044198
1738772977332534500,3.911534423828125,0.0017952368361875415,0.003994475118815899,-0.00045327001134864986
1738772977342525400,3.921525390625,0.0017486315919086337,0.002965696156024933,0.0005046690348535776
1738772977352516400,3.931516357421875,-0.0010990865994244814,0.0022479742765426636,0.00010359696898376569
1738772977366878500,3.94587841796875,0.0010665960144251585,0.0044144559651613235,0.0017827199772000313
1738772977376869400,3.955869384765625,0.0031007183715701103,0.0029145635198801756,-0.00040799626731313765
1738772977386860300,3.9658603515625,0.0007760451408103108,0.005090366117656231,0.001085504423826933
1738772977396851500,3.9758515625,0.0011502192355692387,0.0035545211285352707,0.00017070861940737814
1738772977406843400,3.985843505859375,0.0006072007236070931,0.004283428192138672,0.0012695288751274347
1738772977416834300,3.995834228515625,0.001805623178370297,0.00330285239033401,0.00020639497961383313
1738772977426825500,4.005825439453125,0.0032434638123959303,0.002532133599743247,-0.0003888215287588537
1738772977436816400,4.01581640625,0.0005073322099633515,0.003454119898378849,0.0005153216770850122
1738772977446807300,4.025807373046875,0.0010660634143278003,0.003871171036735177,-0.00011851066665258259
1738772977456798500,4.035798583984375,0.00035686357296071947,0.0031465247739106417,0.0003201119543518871
1738772977466789400,4.045789306640625,0.0025395904667675495,0.003421362955123186,-0.0005555353709496558
1738772977476781300,4.05578125,0.0008383630774915218,0.0054301852360367775,0.0019174759509041905
1738772977486772500,4.0657724609375,0.0007478156476281583,0.0036586506757885218,0.0006151901907287538
1738772977496763400,4.075763427734375,0.0013145363191142678,0.004847219679504633,0.0008993495139293373
1738772977506754300,4.08575439453125,0.00005858954318682663,0.004027498420327902,0.0002388855500612408
1738772977516745200,4.0957451171875,0.000011185276889591478,0.004751611966639757,0.0009736517095007002
1738772977526736400,4.105736328125,0.0024807346053421497,0.00469435378909111,-0.00048602689639665186
1738772977536727600,4.1157275390625,0.000743820914067328,0.003841609926894307,-0.0008082693675532937
1738772977546719500,4.125719482421875,0.0009376989910379052,0.004233893472701311,-0.0002748382103163749
1738772977556710400,4.13571044921875,0.001957689644768834,0.00430073868483305,0.0005613943794742227
1738772977566701300,4.145701416015625,0.002073803450912237,0.003043460426852107,-0.00032890037982724607
1738772977576692200,4.155692138671875,0.00011211907985853031,0.0046759783290326595,0.00037736992817372084
1738772977586683400,4.165683349609375,0.0013816480059176683,0.003239469137042761,-0.0004093278548680246
1738772977596674600,4.175674560546875,0.0003709783486556262,0.0036876790691167116,0.0017241304740309715
1738772977606665500,4.18566552734375,0.002918025478720665,0.0027196200098842382,-0.0005334311863407493
1738772977616656600,4.19565673828125,0.0003028014034498483,0.003933222498744726,0.0007590008899569511
1738772977626648300,4.2056484375,0.0005105279851704836,0.0029995182994753122,-0.000004261057711119065
1738772977636639200,4.21563916015625,0.0012218583142384887,0.0031254857312887907,0.0018972359830513597
1738772977646630400,4.22563037109375,0.0006934871198609471,0.004897287115454674,-0.001130245509557426
1738772977656621600,4.23562158203125,0.0014586133183911443,0.004170776344835758,-0.00040852889651432633
1738772977666612500,4.245612548828125,0.0009978864109143615,0.003690076060593128,-0.0009108011145144701
1738772977676603600,4.255603759765625,0.0007994809420779347,0.0036541232839226723,0.0005550027708522975
1738772977686594600,4.265594482421875,0.0022154836915433407,0.0049529471434652805,0.0007563377148471773
1738772977696586500,4.27558642578125,0.001460743835195899,0.0037593182642012835,-0.0015281217638403177
1738772977706577700,4.28557763671875,0.0003992078418377787,0.0028570392169058323,-0.0008024104172363877
1738772977717193500,4.296193359375,0.0006601976347155869,0.004496747627854347,-0.0005070658517070115
1738772977727184600,4.3061845703125,0.0021971079986542463,0.004013383761048317,0.0005699164466932416
1738772977737175600,4.316175537109375,0.0017976337112486362,0.0028660940006375313,0.0003944141499232501
1738772977747166500,4.32616650390625,0.002103098202496767,0.0037523938808590174,-0.00037151097785681486
1738772977757157400,4.336157470703125,0.0019566244445741177,0.0043987431563436985,-0.0010098706698045135
1738772977767148500,4.3461484375,0.0027976506389677525,0.0035167040769010782,0.00037523938226513565
1738772977777140500,4.356140380859375,0.0012298477813601494,0.0016905746888369322,0.000014647385796706658
1738772977787131600,4.366131591796875,0.002469016704708338,0.0046693203039467335,0.0003153182624373585
1738772977797122600,4.37612255859375,0.0002055960358120501,0.0031015174463391304,0.00033396040089428425
1738772977807113500,4.386113525390625,0.0011837751371785998,0.004760666750371456,0.0012897689593955874
1738772977817104400,4.3961044921875,0.0019092201255261898,0.0033920682035386562,-0.00061279337387532
1738772977827095600,4.406095458984375,0.000847950461320579,0.0030306773260235786,0.0008673915872350335
1738772977837086500,4.41608642578125,0.000993625377304852,0.004610464442521334,0.0025619608350098133
1738772977847078700,4.42607861328125,0.002217081608250737,0.0049276468344032764,0.00012756542128045112
1738772977857069600,4.436069580078125,0.0026200178544968367,0.003978230059146881,0.0007930893916636705
1738772977867060500,4.446060546875,0.0014775217277929187,0.00560968229547143,0.0001430117554264143
1738772977877051400,4.456051513671875,0.0023041670210659504,0.0024506407789885998,0.00025273399660363793
1738772977887042600,4.46604248046875,0.001484712352976203,0.003862382611259818,-0.000639691308606416
1738772977897033500,4.476033447265625,0.002478870330378413,0.0036248285323381424,0.0013598100049421191
1738772977907024400,4.4860244140625,0.0012767193838953972,0.0028104339726269245,0.0005960154230706394
1738772977917015600,4.496015625,0.00044607947347685695,0.0035337484441697598,0.000355532014509663
1738772977927007500,4.506007568359375,-0.00012357067316770554,0.004114051349461079,0.0012362393317744136
1738772977936998400,4.515998291015625,0.0024655545130372047,0.004774515051394701,0.0001579254458192736
1738772977946989600,4.525989501953125,0.0010452907299622893,0.004861600697040558,-0.000287088769255206
1738772977956980500,4.53598046875,0.0020602215081453323,0.003621100215241313,0.0005542038124985993
1738772977966971400,4.545971435546875,0.0007219829712994397,0.004596616141498089,0.0014956312952563167
1738772977976962300,4.55596240234375,0.0031526500824838877,0.0024610271211713552,0.0017222663154825568
1738772977986953500,4.565953369140625,0.0011733887949958444,0.003930825740098953,0.0020783308427780867
1738772977996945400,4.5759453125,0.0008961536805145442,0.004831240512430668,0.0008892294717952609
1738772978006936600,4.5859365234375,0.000758734589908272,0.003096190979704261,-0.0015675366157665849
1738772978016927500,4.595927490234375,0.0005976133397780359,0.003922570031136274,-0.0006668555433861911
1738772978026918400,4.60591845703125,0.00018642126815393567,0.004412058740854263,0.0005211806274019182
1738772978036909300,4.615909423828125,0.0019768644124269485,0.0025947177782654762,0.00010892329009948298
1738772978046900500,4.625900390625,0.0007739146240055561,0.0032631712965667248,-0.0011499529937282205
1738772978056892400,4.635892333984375,0.00162399560213089,0.00443975580856204,-0.0006846986943855882
1738772978066883300,4.64588330078125,0.001347293145954609,0.003175287041813135,-0.00010918960470007733
1738772978076874500,4.65587451171875,0.002014148747548461,0.002936667762696743,0.0007813714328221977
1738772978086865400,4.665865478515625,0.002037584548816085,0.0034107104875147343,0.0011805793037638068
1738772978096856300,4.675856201171875,0.002936667762696743,0.0038506644777953625,0.00063356600003317
1738772978106847500,4.685847412109375,0.0020032296888530254,0.004494350403547287,-0.001710548298433423
1738772978116838400,4.69583837890625,0.0001395496365148574,0.0054299188777804375,-0.000045273736759554595
1738772978126829300,4.705829345703125,-0.00006524744821945205,0.002650910522788763,0.0018540926976129413
1738772978136821500,4.715821533203125,0.0004727110790554434,0.0044440170750021935,0.0014927018200978637
1738772978146812400,4.7258125,0.002950782421976328,0.002654372714459896,-0.001181644620373845
1738772978156802600,4.735802490234375,0.0018098842119798064,0.003352919826284051,0.0013294500531628728
1738772978166793500,4.74579345703125,0.0016769925132393837,0.0034850125666707754,0.0014929680619388819
1738772978176784600,4.75578466796875,0.0001382180635118857,0.0022357236593961716,0.0009645969257690012
1738772978186775800,4.76577587890625,0.0014908375451341271,0.002624278888106346,0.0005613943794742227
1738772978196766700,4.7757666015625,0.00010040117194876075,0.004631237126886845,0.00020053602929692715
1738772978206758700,4.785758544921875,0.00028522455249913037,0.00481393001973629,-0.00035952674807049334
1738772978216749600,4.79574951171875,0.0006964165950194001,0.004010720644146204,-0.0001155811914941296
1738772978226740500,4.805740478515625,0.002596848411485553,0.004035221878439188,-0.0004293015517760068
1738772978236731600,4.815731689453125,0.0014239922165870667,0.0031944618094712496,-0.0006410228670574725
1738772978246722800,4.825722900390625,0.0009406284661963582,0.004342017695307732,-0.0007089334540069103
1738772978256713700,4.835713623046875,0.0027446537278592587,0.0035049861762672663,-0.0006061354652047157
1738772978266705000,4.845704833984375,0.0022474415600299835,0.004741758108139038,0.00126713200006634
1738772978276696600,4.855696533203125,0.0011227887589484453,0.0030208237003535032,0.002237587934359908
1738772978286687500,4.8656875,0.0006223807577043772,0.004491687286645174,0.0005091963685117662
1738772978296678700,4.8756787109375,0.0026008430868387222,0.0036557212006300688,-0.00028522455249913037
1738772978306669800,4.885669921875,0.00006338323146337643,0.0034091125708073378,0.00088976213010028
1738772978316660700,4.89566064453125,0.0029236183036118746,0.0035923379473388195,-0.0004950816510245204
1738772978326652000,4.90565185546875,0.002600576728582382,0.0028964539524167776,0.001532116555608809
1738772978336642800,4.915642822265625,-0.00006924218905624002,0.0035236284602433443,0.0007619303651154041
1738772978346634800,4.925634765625,0.0001984054979402572,0.003222158644348383,0.00025220136740244925
1738772978356626000,4.9356259765625,0.002061553066596389,0.00549303600564599,-0.0002463423879817128
1738772978366616800,4.945616943359375,0.001790975802578032,0.003436543047428131,0.00009480853623244911
1738772978376607700,4.955607666015625,0.0012447615154087543,0.0036418726667761803,0.0000876179983606562
1738772978386598700,4.9655986328125,0.0007057376787997782,0.004122573416680098,0.0008327704854309559
1738772978396589800,4.97558984375,0.001119060325436294,0.004246410448104143,-0.0003486077766865492
1738772978406580700,4.985580810546875,0.0021145499777048826,0.0035113778430968523,0.0002671150432433933
1738772978416573000,4.995572998046875,0.0014799186028540134,0.0036607813090085983,0.001446362817659974
1738772978426563800,5.005563720703125,-0.001014664419926703,0.004865328781306744,0.002310824813321233
1738772978436554800,5.0155546875,0.00019893812714144588,0.0038336203433573246,0.00046578687033616006
1738772978446545700,5.025545654296875,0.0009179916232824326,0.0032804817892611027,-0.0004394215648062527
1738772978456536800,5.035536865234375,0.0011627360945567489,0.0034344124142080545,0.0005627259379252791
1738772978466527700,5.04552783203125,0.001969673903658986,0.002668487373739481,0.0005182511522434652
1738772978476518700,5.0555185546875,0.0010466222884133458,0.0033771544694900513,-0.0011954930378124118
1738772978486510800,5.0655107421875,0.0018791264155879617,0.004138818476349115,0.0011888351291418076
1738772978496501800,5.075501708984375,0.002659698948264122,0.0050099384970963,-0.0001573928166180849
1738772978506492700,5.08549267578125,0.0016279903938993812,0.003932689782232046,0.001398159540258348
1738772978516483800,5.09548388671875,0.0017321199411526322,0.004736964590847492,0.0002378202771069482
1738772978526474800,5.105474853515625,0.0006498112925328314,0.0030125677585601807,0.0008008125587366521
1738772978536465700,5.115465576171875,0.001609614584594965,0.003579821204766631,0.002275937469676137
1738772978546456800,5.125456787109375,0.0027209515683352947,0.005311674904078245,0.001659948262386024
1738772978556448800,5.13544873046875,0.0004617921367753297,0.004982774145901203,-0.000300404557492584
1738772978566439700,5.145439697265625,0.0020058928057551384,0.003982224967330694,0.00040559942135587335
1738772978576430800,5.155430908203125,0.001674861996434629,0.003245860803872347,0.0005957491230219603
1738772978586421800,5.165421875,0.000978711643256247,0.0037145770620554686,0.0007515440811403096
1738772978596412700,5.17541259765625,0.0010090717114508152,0.0035444011446088552,-0.00021252025908324867
1738772978606403600,5.185403564453125,0.0013195963110774755,0.004673315212130547,0.0002687129599507898
1738772978616394800,5.195394775390625,0.0007808388327248394,0.0035926043055951595,0.00112438655924052
1738772978626386700,5.20538671875,-0.0000577905957470648,0.0036573191173374653,0.0005555353709496558
1738772978636377900,5.2153779296875,0.0017797905020415783,0.0037707698065787554,0.000672448193654418
1738772978646368800,5.22536865234375,0.0015970977256074548,0.004205131437629461,0.0002487392339389771
1738772978656359700,5.235359619140625,0.00213585514575243,0.00492098880931735,0.0012010856298729777
1738772978666350600,5.2453505859375,-0.00001944107498275116,0.003914047963917255,-0.0002055960358120501
1738772978676341800,5.255341796875,0.0013856426812708378,0.004403004422783852,-0.0010487528052181005
1738772978686332700,5.265332763671875,0.0008884305134415627,0.002861566608771682,0.00035127095179632306
1738772978696323600,5.275323486328125,0.001767273643054068,0.002311357529833913,0.0008620652370154858
1738772978706315800,5.285315673828125,0.0012871057260781527,0.0034940673504024744,0.000642620783764869
1738772978716306700,5.295306640625,-0.00028043086058460176,0.004131628200411797,0.001056209672242403
1738772978726297600,5.305297607421875,0.0006226470577530563,0.003221359569579363,0.0003904194163624197
1738772978736288800,5.315288818359375,0.0004772384709212929,0.003736681304872036,-0.00009853696246864274
1738772978746279700,5.32527978515625,0.00008841694943839684,0.00284958234988153,0.0005901564727537334
1738772978756270600,5.3352705078125,0.002740659052506089,0.004545749630779028,0.0005837649223394692
1738772978766261500,5.345261474609375,0.0025241440162062645,0.004207528196275234,0.0009126652730628848
1738772978776253700,5.355253662109375,0.0006119944155216217,0.004947886802256107,0.000526506919413805
1738772978786244600,5.36524462890625,0.0006615291931666434,0.0033625070936977863,-0.0020477045327425003
1738772978796235800,5.37523583984375,0.0005065332516096532,0.004340952727943659,0.0008490157779306173
1738772978806226700,5.385226806640625,0.0029561088886111975,0.004584365524351597,0.00108284130692482
1738772978816217600,5.395217529296875,0.0006974819116294384,0.005020857788622379,0.0021960425656288862
1738772978826208500,5.40520849609375,0.0012484899489209056,0.0037025928031653166,-0.0009507485083304346
1738772978836199700,5.41519970703125,0.0018370485631749034,0.004266117699444294,-0.000005326322025211994
1738772978846191600,5.425191650390625,0.0010817759903147817,0.004477306269109249,-0.0011198592837899923
1738772978856182500,5.4351826171875,0.0012958941515535116,0.003560912562534213,0.0007605988066643476
1738772978866173700,5.445173583984375,0.0021371867042034864,0.004503405187278986,0.000493750034365803
1738772978876164600,5.45516455078125,0.0010551444720476866,0.0052024852484464645,-0.0019140138756483793
1738772978886155500,5.465155517578125,0.0020186761394143105,0.003996605984866619,-0.0001853560097515583
1738772978896146700,5.475146728515625,0.0006854976527392864,0.0041617220267653465,-0.000461259507574141
1738772978906137600,5.4851376953125,0.00098217383492738,0.003242132253944874,0.0006708502769470215
1738772978916128500,5.49512841796875,0.0017102820565924048,0.004192614462226629,0.0004791026876773685
1738772978926120700,5.50512060546875,0.001942776027135551,0.003397927153855562,0.0001347559446003288
1738772978936111600,5.515111572265625,0.0037233654875308275,0.0035124430432915688,-0.0007334345718845725
1738772978946102500,5.5251025390625,0.001383512164466083,0.0030839405953884125,0.0006250438746064901
1738772978956093700,5.53509375,0.0003174488083459437,0.0036272252909839153,0.0003968109958805144
1738772978966084600,5.545084716796875,0.0007102650706656277,0.004719387739896774,-0.0003736414946615696
1738772978976075800,5.55507568359375,0.002675145398825407,0.005151352379471064,-0.000707868195604533
1738772978986066700,5.565066650390625,-0.000594950164668262,0.003952131140977144,0.0010373012628406286
1738772978996058600,5.57505859375,0.00035712990211322904,0.0044080642983317375,-0.0008889631717465818
1738772979006049500,5.585049560546875,0.0008474178612232208,0.00458729499951005,0.0002721750643104315
1738772979016040700,5.595040771484375,0.002374740783125162,0.0035888757556676865,0.0013584784464910626
1738772979026031600,5.605031494140625,0.0006772418855689466,0.0038637141697108746,0.0004676510870922357
1738772979036022800,5.615022705078125,-0.00004207794336252846,0.004086620640009642,-0.00023276027059182525
1738772979046013700,5.625013671875,0.0017028251895681024,0.00330231967382133,0.0003834952076431364
1738772979056004900,5.6350048828125,0.0014895059866830707,0.0035350800026208162,0.0009510148083791137
1738772979065996500,5.64499658203125,0.0011739213950932026,0.002983805723488331,0.00019387812062632293
1738772979075987500,5.654987548828125,0.0015992282424122095,0.003626426449045539,0.0020937772933393717
1738772979085978600,5.664978515625,0.00040533312130719423,0.004091148264706135,0.0001131843455368653
1738772979095969800,5.6749697265625,0.0026639599818736315,0.003133208956569433,-0.0001430117554264143
1738772979105960700,5.684960693359375,0.0006072007236070931,0.0032024511601775885,-0.00046871634549461305
1738772979115951900,5.694951904296875,0.0005576659459620714,0.004334561061114073,0.00036938043194822967
1738772979125942800,5.70494287109375,0.0009763148264028132,0.0029401297215372324,-0.00043595946044661105
1738772979135933700,5.71493359375,0.0009456885163672268,0.003635747591033578,0.0015765913994982839
1738772979145926000,5.72492578125,0.001701759872958064,0.0036706349346786737,-0.0004266384057700634
1738772979155917000,5.7349169921875,0.0009366337326355278,0.003230147995054722,-0.0009595369338057935
1738772979165908000,5.744907958984375,0.0010269149206578732,0.003213103860616684,0.000147272803587839
1738772979175899000,5.75489892578125,0.0020817930344492197,0.0044291033409535885,0.0005896238726563752
1738772979185889800,5.764889892578125,0.0012479572324082255,0.003695935010910034,0.001237571006640792
1738772979195881000,5.774880859375,0.0018423747969791293,0.0043894220143556595,0.0007808388327248394
1738772979205871900,5.784871826171875,0.00036432043998502195,0.003981425892561674,0.0012322446564212441
1738772979215863800,5.79486376953125,0.002302835462614894,0.0029148298781365156,-0.00030866035376675427
1738772979225855000,5.80485498046875,0.00033635724685154855,0.004055994097143412,0.0013393036788329482
1738772979235846000,5.814845947265625,0.00224930583499372,0.004062119405716658,0.0006410228670574725
1738772979245836800,5.8248369140625,0.0011853729374706745,0.0036336169578135014,-0.00014168016787152737
1738772979255828000,5.834827880859375,0.0014088122406974435,0.003995806910097599,0.0004974784678779542
1738772979265819000,5.84481884765625,0.003483681008219719,0.0037699707318097353,-0.0006186523241922259
1738772979275809800,5.854809814453125,0.000707868195604533,0.003760383464396,0.0010724549647420645
1738772979285801000,5.864801025390625,0.0036597158759832382,0.002246909076347947,0.0013877731980755925
1738772979295793000,5.87479296875,0.0008831042214296758,0.003691940102726221,-0.0006207828409969807
1738772979305783800,5.88478369140625,0.0008524778531864285,0.0036962011363357306,0.001537975505925715
1738772979315775000,5.89477490234375,0.0018181400373578072,0.0033217607997357845,0.0008644621120765805
1738772979325766000,5.904765869140625,0.002180862706154585,0.00493217445909977,-0.0008921589469537139
1738772979335756800,5.9147568359375,0.001731587341055274,0.004376372788101435,-0.000294545607175678
1738772979345747700,5.924747802734375,0.001654355670325458,0.004367584362626076,0.0019273296929895878
1738772979355739000,5.93473876953125,0.0009566074586473405,0.004368915688246489,-0.00035233621019870043
1738772979365730800,5.944730712890625,0.002594451420009136,0.0029116340447217226,-0.00015339808305725455
1738772979375722000,5.954721923828125,0.003254382871091366,0.0041555967181921005,-0.000004793690095539205
1738772979385713000,5.964712890625,0.0016261261189356446,0.005063201766461134,-0.000027430558475316502
1738772979395703800,5.974703857421875,-0.00007217166421469301,0.003312173532322049,0.00009507485083304346
1738772979405694700,5.98469482421875,0.0019204054260626435,0.0034961977507919073,0.0009249158320017159
1738772979415686000,5.994685791015625,0.0021523667965084314,0.003585147438570857,0.0009201221400871873
1738772979425676800,6.0046767578125,0.0010993528412654996,0.004053863696753979,-0.00042024682625196874
1738772979435667700,6.014667724609375,0.0010077401529997587,0.004477572627365589,0.001264468883164227
1738772979445660000,6.024659912109375,0.0005331648280844092,0.0033217607997357845,0.0006817692192271352
1738772979455650800,6.03465087890625,0.0012663330417126417,0.00484269205480814,-0.00039601203752681613
1738772979465641700,6.044641845703125,0.0012551478575915098,0.0038344194181263447,0.0005872269975952804
1738772979475633000,6.0546328125,0.0011435613268986344,0.0037028591614216566,0.000005858954409632133
1738772979485623800,6.064623779296875,0.0016309198690578341,0.005004345905035734,0.000055926382628967986
1738772979495614700,6.07461474609375,0.0006601976347155869,0.003709783311933279,0.0006210491410456598
1738772979505606000,6.08460595703125,0.000003994741746282671,0.004485029727220535,0.000833036785479635
1738772979515597800,6.094597900390625,0.0004215783847030252,0.003082342678681016,0.00018269284919369966
1738772979525588700,6.104588623046875,0.0006934871198609471,0.004590757191181183,0.0007073355955071747
1738772979535580000,6.114579833984375,0.0013009541435167193,0.004194478504359722,0.00036218989407643676
1738772979545570800,6.12457080078125,0.00037470675306394696,0.0036304211243987083,-0.00045912896166555583
1738772979555561700,6.134561767578125,-0.0008862999966368079,0.0037529265973716974,0.0013132047606632113
1738772979565552600,6.144552734375,0.0011763182701542974,0.004297809209674597,0.0013174657942727208
1738772979575543800,6.154543701171875,0.0011289139511063695,0.004280498716980219,-0.0006024070316925645
1738772979585535700,6.16453564453125,0.0010359697043895721,0.0047090016305446625,0.0005123922019265592
1738772979595527000,6.17452685546875,0.0011795139871537685,0.0034133736044168472,0.0011622034944593906
1738772979605517800,6.184517822265625,0.0023848607670515776,0.0036647759843617678,-0.0009419600828550756
1738772979615508700,6.1945087890625,0.00221947836689651,0.004396879114210606,0.0008495483780279756
1738772979625499600,6.204499755859375,0.001392300589941442,0.0036195022985339165,0.0003230414295103401
1738772979635490800,6.21449072265625,0.0012144014472141862,0.004293282050639391,-0.0001560612436151132
1738772979645481700,6.224481689453125,0.002457032445818186,0.004697815980762243,0.0014245248166844249
1738772979655472600,6.23447265625,0.001300155185163021,0.002588326344266534,-0.000931041082367301
1738772979665464800,6.24446484375,0.002282329136505723,0.0037918086163699627,0.0008444883860647678
1738772979675455700,6.254455810546875,0.0004577973741106689,0.004172640852630138,0.0008048072922974825
1738772979685446700,6.26444677734375,0.00011531487689353526,0.00392709719017148,-0.00008894957863958552
1738772979695437800,6.274437744140625,0.0021763353142887354,0.0033862092532217503,-0.0006114617572166026
1738772979705428700,6.2844287109375,0.00022450447431765497,0.0035577169619500637,-0.00046365635353140533
1738772979715419600,6.294419677734375,0.00227833422832191,0.003704190719872713,0.00045806370326317847
1738772979725410800,6.304410888671875,0.00018136126163881272,0.00449727987870574,0.0006892260862514377
1738772979735402800,6.31440283203125,0.0022511701099574566,0.0037579864729195833,-0.00004234426160110161
1738772979745393700,6.3243935546875,0.0015835155500099063,0.004834436345845461,0.000931307440623641
1738772979755384800,6.334384765625,0.0010817759903147817,0.0033715618774294853,0.0008780442294664681
1738772979765375700,6.344375732421875,0.0023031015880405903,0.003549993736669421,0.0005038700764998794
1738772979775366700,6.35436669921875,0.0016905746888369322,0.0038250982761383057,-0.0005249090609140694
1738772979785357800,6.36435791015625,0.002043443499132991,0.004227235447615385,-0.0005819007055833936
1738772979795349000,6.374348876953125,0.0015225291717797518,0.0036187032237648964,0.0005118595436215401
1738772979805340000,6.38433984375,0.0011254518758505583,0.004215251188725233,0.0006370281334966421
1738772979815331800,6.394331787109375,0.0014940333785489202,0.003043726785108447,-0.0007225155713967979
1738772979825322800,6.40432275390625,0.0008143946761265397,0.002927346620708704,-0.0008122641011141241
1738772979835314000,6.41431396484375,0.0009619337506592274,0.0032554480712860823,-0.0005462143453769386
1738772979845304800,6.424304931640625,0.0028370653744786978,0.004693288821727037,-0.000857005245052278
1738772979855296000,6.4342958984375,0.002481267089024186,0.003350256709381938,0.0012921657180413604
1738772979865287000,6.444286865234375,0.000556334329303354,0.0035060516092926264,0.001330249011516571
1738772979875277800,6.45427783203125,0.001916144392453134,0.003180879633873701,-0.000018375811123405583
1738772979885269000,6.46426904296875,0.0022477079182863235,0.005262938793748617,-0.0003454120014794171
1738772979895261000,6.474260986328125,0.0010277138790115714,0.004762264434248209,0.0004138552176300436
1738772979905251800,6.484251953125,0.00020772656716872007,0.00299286050722003,0.00048416267964057624
1738772979915243000,6.494242919921875,0.002972087822854519,0.003129480639472604,-0.00013768543431069702
1738772979925234000,6.50423388671875,0.0011267834343016148,0.005375057924538851,0.00019414443522691727
1738772979935224800,6.514224853515625,0.0022719427943229675,0.004851746838539839,-0.00004394215648062527
1738772979945215700,6.5242158203125,0.0005400890368036926,0.0038631814531981945,0.001540904981084168
1738772979955207000,6.53420703125,-0.0003374225052539259,0.0035417377948760986,0.001130511867813766
1738772979965198800,6.54419873046875,0.001216265605762601,0.002921487670391798,-0.0008018778171390295
1738772979975190000,6.55418994140625,0.00038509309524670243,0.004129231441766024,0.0008146609761752188
1738772979985181000,6.564180908203125,0.001924932817928493,0.003939081449061632,-0.00008069378236541525
1738772979995171800,6.574171875,-0.0005201153689995408,0.002660498023033142,0.0007920240750536323
1738772980005162800,6.584162841796875,0.0008077367674559355,0.0038163098506629467,0.0006711165769957006
1738772980015154000,6.59415380859375,0.0020130835473537445,0.003680222202092409,-0.0011576761025935411
1738772980025144800,6.604144775390625,0.0009693906176835299,0.0023307986557483673,0.0005075985100120306
1738772980035135700,6.6141357421875,0.0018492990639060736,0.0043657198548316956,0.0014498248929157853
1738772980045128000,6.6241279296875,0.000877511571161449,0.003078614128753543,0.0009869674686342478
1738772980055118800,6.634118896484375,-0.001284975209273398,0.003210174385458231,0.0016266588354483247
1738772980065109800,6.64410986328125,0.0012809804175049067,0.002377403900027275,0.0005062668933533132
1738772980075101000,6.654100830078125,0.0013073458103463054,0.0038890140131115913,-0.00020532972121145576
1738772980085091800,6.664091796875,0.0033542513847351074,0.0038783615455031395,-0.00012996226723771542
1738772980095082800,6.674082763671875,0.0007352987886406481,0.004051999654620886,0.00025007082149386406
1738772980105074000,6.684073974609375,-0.00003834952076431364,0.00293320557102561,0.0011166634503751993
1738772980115065900,6.69406591796875,0.0025475798174738884,0.006133792456239462,0.0005613943794742227
1738772980125056800,6.704056884765625,-0.0008018778171390295,0.004008323885500431,-0.001047154888510704
1738772980135048000,6.7140478515625,0.0016072177095338702,0.002898051869124174,0.0007989483419805765
1738772980145038800,6.724038818359375,0.002423742786049843,0.004336158744990826,0.0005315669695846736
1738772980155030000,6.734030029296875,0.0008439557277597487,0.004452006425708532,0.00020666129421442747
1738772980165021200,6.744021240234375,0.0010258496040478349,0.0037385455798357725,0.0009097357979044318
1738772980175012000,6.75401220703125,0.0007502124644815922,0.004325239919126034,0.0008857673965394497
1738772980185004000,6.764004150390625,0.0017510283505544066,0.0029758161399513483,0.0009930927772074938
1738772980194995200,6.7739951171875,0.0014413028256967664,0.0023411849979311228,0.0009201221400871873
1738772980204986000,6.783986083984375,0.0016215987270697951,0.0039113848470151424,0.000483363721286878
1738772980214977000,6.79397705078125,0.0010072075529024005,0.003067428944632411,0.0007198524544946849
1738772980224968000,6.803968017578125,0.0009957558941096067,0.004683967679738998,0.0013968279818072915
1738772980234959000,6.813958984375,0.001561944023706019,0.0029854036401957273,0.00003408846168895252
1738772980244950000,6.823949951171875,0.0016048208344727755,0.0029198897536844015,-0.00041252365917898715
1738772980254941000,6.83394091796875,0.0028093685396015644,0.0036136433482170105,-0.0005845638806931674
1738772980264933000,6.84393310546875,0.0021574266720563173,0.0034874093253165483,-0.00025539714260958135
1738772980274924000,6.853924072265625,0.0019182749092578888,0.004303135443478823,-0.000251402409048751
1738772980284915000,6.8639150390625,0.0008045409340411425,0.005041630007326603,0.0002639192680362612
1738772980294906000,6.873906005859375,0.00321922916918993,0.003981958609074354,-0.0003733751946128905
1738772980304897000,6.88389697265625,0.001719869440421462,0.003290335414931178,0.00020000340009573847
1738772980314888000,6.893887939453125,0.00039068571641109884,0.003629355924203992,-0.00016538229829166085
1738772980324879000,6.903879150390625,-0.0002615224220789969,0.00449754623696208,0.0012032161466777325
1738772980334870000,6.9138701171875,0.0014048174489289522,0.005671467632055283,-0.00025273399660363793
1738772980344862000,6.923862060546875,0.0011507519520819187,0.003968376200646162,-0.00008309062832267955
1738772980354853000,6.93385302734375,0.001240766723640263,0.005178516730666161,0.000690291344653815
1738772980364844000,6.943843994140625,0.0026226809713989496,0.005104214418679476,0.000535561703145504
1738772980374835000,6.9538349609375,0.0025334651581943035,0.004054929129779339,0.00012250541476532817
1738772980384826000,6.963826171875,0.0007030745036900043,0.004465322010219097,0.0024868599139153957
1738772980394817000,6.973817138671875,0.0016442356863990426,0.004518318921327591,0.0011797803454101086
1738772980404808000,6.983807861328125,0.0016226640436798334,0.00449994346126914,0.0006974819116294384
1738772980414800100,6.993800048828125,0.0007014766451902688,0.00437956815585494,-0.00008921589324017987
1738772980424791000,7.003791015625,0.0025249430909752846,0.003763579297810793,0.000437291048001498
1738772980434782000,7.013781982421875,0.001103880233131349,0.003546265186741948,0.0014226606581360102
1738772980444772900,7.02377294921875,0.002028263406828046,0.004448810592293739,0.0004191815387457609
1738772980454764000,7.033763916015625,0.002263953210785985,0.003436809405684471,0.0011590076610445976
1738772980464755000,7.0437548828125,0.0016623451374471188,0.004860535264015198,0.0011704593198373914
1738772980474746000,7.05374609375,-0.0002466087171342224,0.0035356127191334963,0.0007171892793849111
1738772980484738000,7.063738037109375,0.0012245214311406016,0.005328186322003603,0.0006159891490824521
1738772980494729000,7.07372900390625,0.0032631712965667248,0.0027244137600064278,0.001392300589941442
1738772980504720000,7.083719970703125,0.0036599822342395782,0.005305815953761339,0.0015670040156692266
1738772980514711000,7.0937109375,0.00227833422832191,0.0034613104071468115,-0.0003685815026983619
1738772980524702000,7.103701904296875,0.0019006980583071709,0.0029382656794041395,0.00007882956560933962
1738772980534693000,7.113693115234375,0.0015781891997903585,0.004283694550395012,0.00039760995423421264
1738772980544684300,7.123684326171875,0.0009962886106222868,0.003213370218873024,-0.0002788329729810357
1738772980554675200,7.13367529296875,0.0007126618875190616,0.0026517093647271395,0.00004340952364145778
1738772980564667000,7.1436669921875,0.0018141453620046377,0.004787831101566553,-0.0008772452711127698
1738772980574658000,7.153657958984375,0.002204298507422209,0.0038986015133559704,0.0010684601729735732
1738772980584649000,7.16364892578125,0.001059139147400856,0.0032956618815660477,-0.000007723167072981596
1738772980594640100,7.17364013671875,0.000966993800830096,0.003805124433711171,0.00017896443023346364
1738772980604631300,7.18363134765625,-0.0006135923322290182,0.004517786670476198,0.0002926813904196024
1738772980614622200,7.193622314453125,0.003242931328713894,0.002927346620708704,0.0008812400046736002
1738772980624613000,7.203613037109375,0.002287921728566289,0.0041372207924723625,0.0013347762869670987
1738772980634605000,7.21360498046875,0.0013395700370892882,0.003727626521140337,0.0008463526028208435
1738772980644596200,7.22359619140625,0.0016636766958981752,0.003425357863306999,0.0009432916413061321
1738772980654587100,7.233587158203125,0.0019036275334656239,0.004815261345356703,0.0002487392339389771
1738772980664578000,7.243578125,-0.00022024342615623027,0.004240551497787237,0.00007084008393576369
1738772980674569200,7.2535693359375,0.0023161512799561024,0.003297259798273444,0.00007323692989302799
1738772980684560100,7.26356005859375,0.0014468954177573323,0.0027976506389677525,0.0002466087171342224
1738772980694551000,7.273551025390625,0.0016287893522530794,0.0031933963764458895,0.0014833806781098247
1738772980704543200,7.283543212890625,0.002426938619464636,0.004538292996585369,0.0010974886827170849
1738772980714534100,7.2935341796875,0.0027441212441772223,0.0037462685722857714,0.00019654128118418157
1738772980724525000,7.303525146484375,0.00013768543431069702,0.003477822057902813,0.00011611382069531828
1738772980734516200,7.31351611328125,0.0014532869681715965,0.005143096670508385,0.0013038836186751723
1738772980744507100,7.323507080078125,0.002198972040787339,0.004098072182387114,0.0012596751330420375
1738772980754498000,7.333498046875,-0.00017710021347738802,0.0051747881807386875,-0.00030067088664509356
1738772980764489200,7.3434892578125,0.0010394317796453834,0.0038304245099425316,0.00019574233738239855
1738772980774480100,7.353480224609375,-0.0010314423125237226,0.004477572627365589,-0.0006713828770443797
1738772980784472000,7.36347216796875,-0.00004873584839515388,0.003052248852327466,0.002049568807706237
1738772980794463200,7.373463134765625,0.0012072109384462237,0.0026056368369609118,0.00013608753215521574
1738772980804454100,7.3834541015625,0.00037950044497847557,0.005335377063602209,-0.001335575245320797
1738772980814445000,7.393445068359375,0.0010804444318637252,0.004397411365061998,-0.0003701793903019279
1738772980824436200,7.403436279296875,0.004320712294429541,0.002139317337423563,-0.0004261057765688747
1738772980834427100,7.41342724609375,-0.00034434671397320926,0.004936435259878635,-0.0000857537888805382
1738772980844418000,7.42341796875,0.0013403689954429865,0.004077299498021603,0.0004010720585938543
1738772980854410200,7.43341015625,0.0029206888284534216,0.00407410366460681,0.00046578687033616006
1738772980864401200,7.443401123046875,0.0009110674145631492,0.0031489215325564146,0.0008255799184553325
1738772980874392000,7.45339208984375,0.0028181569650769234,0.004786765668541193,0.00038003307417966425
1738772980884383000,7.463383056640625,0.000182959163794294,0.003222425002604723,-0.00045060686534270644
1738772980894374100,7.4733740234375,0.000636495475191623,0.003180879633873701,0.0011885687708854675
1738772980904365000,7.483364990234375,0.0018269284628331661,0.003754258155822754,-0.000660463934764266
1738772980914356000,7.49335595703125,0.0019470370607450604,0.004237888380885124,0.0001656486128922552
1738772980924347100,7.50334716796875,0.0017454357584938407,0.004170776344835758,0.0009510148083791137
1738772980934339000,7.513339111328125,0.00046605319948866963,0.0034349451307207346,-0.00009454221435589716
1738772980944330000,7.523330078125,0.0013243899447843432,0.005003014579415321,0.000901480030734092
1738772980954321200,7.533321044921875,-0.000010386328540334944,0.004205397795885801,0.000014647385796706658
1738772980964312000,7.54331201171875,0.0026487798895686865,0.0038029940333217382,-0.0002719087351579219
1738772980974303000,7.553302978515625,-0.0011656655697152019,0.004268514458090067,0.0006868292111903429
1738772980984294100,7.563294189453125,0.0022804648615419865,0.003251187037676573,-0.0003587277897167951
1738772980994285000,7.57328515625,0.001589108258485794,0.003507116809487343,-0.00017603494052309543
1738772981004277000,7.583277099609375,0.00046924897469580173,0.0038216360844671726,-0.0006210491410456598
1738772981014268200,7.59326806640625,0.0026229473296552896,0.003628823207691312,0.001279382617212832
1738772981024259000,7.603259033203125,0.0009771138429641724,0.002350772265344858,0.0004338289436418563
1738772981034250000,7.61325,0.001651426195167005,0.0037766287568956614,0.0014048174489289522
1738772981044241000,7.623240966796875,0.00009214537567459047,0.004403270315378904,0.001588575541973114
1738772981054232000,7.633232177734375,0.0020069582387804985,0.0036906085442751646,-0.0002822950773406774
1738772981064223000,7.643222900390625,0.00005512743518920615,0.0034815503749996424,-0.0006689860601909459
1738772981074214000,7.6532138671875,0.0017188041238114238,0.004327370319515467,0.0004849616379942745
1738772981084206000,7.6632060546875,0.0004324973560869694,0.003329750383272767,0.0007600661483593285
1738772981094197000,7.673197021484375,0.003011502558365464,0.0027750139124691486,0.0002532666258048266
1738772981104188000,7.68318798828125,0.001287904684431851,0.005554022267460823,0.0012689962750300765
1738772981114179000,7.693178955078125,0.001261805766262114,0.002918291836977005,0.0008394283941015601
1738772981124170000,7.703169921875,0.0010423612548038363,0.004574778024107218,0.0007238471880555153
1738772981134161000,7.713160888671875,0.00169563468080014,0.003802194958552718,0.0003579288604669273
1738772981144152000,7.723152099609375,0.0006026733317412436,0.004835501778870821,0.0006314354832284153
1738772981154144000,7.73314404296875,0.002892725635319948,0.0025928535033017397,-0.0005299690528772771
1738772981164135400,7.743135498046875,-0.00037523938226513565,0.0030714236199855804,0.0007960188668221235
1738772981174126300,7.753126220703125,0.0031097731553018093,0.0035752938129007816,0.0019827233627438545
1738772981184117500,7.763117431640625,0.003478354774415493,0.0026048377621918917,-0.0007012102869339287
1738772981194108400,7.7731083984375,0.002376604825258255,0.0033398703671991825,0.001745968358591199
1738772981204099300,7.783099365234375,0.0005126585019752383,0.004609665367752314,0.0005765743553638458
1738772981214090200,7.79309033203125,0.00010120012302650139,0.003736947663128376,0.0005531385540962219
1738772981224081400,7.803081298828125,0.001392300589941442,0.0029140308033674955,0.0002735066518653184
1738772981234073300,7.8130732421875,0.002386192325502634,0.004056526813656092,0.0007262440049089491
1738772981244064300,7.823064208984375,0.00395612558349967,0.005008873529732227,0.000690291344653815
1738772981254055400,7.833055419921875,0.0016279903938993812,0.0025457157753407955,0.0008111988427117467
1738772981264046300,7.84304638671875,0.0007065366371534765,0.00412417110055685,0.0008463526028208435
1738772981274037200,7.853037353515625,0.0009206547983922064,0.0035230957437306643,-0.0001531317684566602
1738772981284028400,7.8630283203125,0.001350488979369402,0.004317782819271088,0.0000953411654336378
1738772981294019600,7.87301953125,-0.00021012341312598437,0.0034029872622340918,0.00041971419705078006
1738772981304011300,7.88301123046875,0.0003784351865760982,0.005307413637638092,-0.0011456918437033892
1738772981314002400,7.89300244140625,-0.00025033715064637363,0.003995540551841259,-0.00032091091270558536
1738772981323993300,7.902993408203125,0.0012737899087369442,0.0038189729675650597,0.00006391586794052273
1738772981333984300,7.912984375,0.0009973538108170033,0.00418302696198225,-0.0009643306257203221
1738772981343975400,7.922975341796875,0.001567802974022925,0.002930276095867157,0.0011885687708854675
1738772981353966600,7.932966552734375,-0.000028495824153651483,0.0032868734560906887,-0.00030173614504747093
1738772981363957500,7.94295751953125,0.0007701861904934049,0.0035350800026208162,0.000031425301131093875
1738772981374572500,7.953572509765625,-0.0005901564727537334,0.0049185920506715775,0.0010809770319610834
1738772981384564500,7.963564453125,0.0031150993891060352,0.0028610338922590017,-0.0013214604696258903
1738772981394555400,7.973555419921875,0.0003502056933939457,0.00199310970492661,-0.00016937704640440643
1738772981404546600,7.983546630859375,-0.00006817692337790504,0.004255465231835842,0.0007579356315545738
1738772981414537500,7.993537353515625,0.0016447682864964008,0.003308178624138236,-0.002005360322073102
1738772981424528400,8.0035283203125,-0.0002777676854748279,0.0043862261809408665,-0.0003225088003091514
1738772981434519600,8.01351953125,0.0008641957538202405,0.004920722916722298,0.0005243764026090503
1738772981444510500,8.023510498046875,0.0018391790799796581,0.004705273080617189,0.0004924184759147465
1738772981454502400,8.03350244140625,0.0004628573951777071,0.00407437002286315,0.001958222361281514
1738772981464493600,8.04349365234375,0.0013603427214547992,0.003961984533816576,0.0009944243356585503
1738772981474484500,8.053484375,0.00044341632747091353,0.003375822911038995,-0.0009052084642462432
1738772981484475400,8.063475341796876,0.0026498453225940466,0.004992628004401922,-0.0004942826926708221
1738772981494466600,8.073466552734375,-0.001047154888510704,0.0034530546981841326,0.000621848099399358
1738772981504457500,8.08345751953125,0.000618918624240905,0.0037593182642012835,-0.0008905610884539783
1738772981514448400,8.093448486328125,0.0024794030468910933,0.004539624322205782,-0.0005760417552664876
1738772981524439300,8.103439208984375,0.00017310546536464244,0.004186222795397043,0.00033635724685154855
1738772981534431500,8.113431396484375,0.0023853934835642576,0.0038695731200277805,0.0010298443958163261
1738772981544422400,8.12342236328125,0.0023462448734790087,0.0036677054595202208,-0.00035180358099751174
1738772981554413600,8.13341357421875,0.000600809114985168,0.003963582683354616,-0.000480434246128425
1738772981564404500,8.143404541015625,-0.0006495449924841523,0.0021198762115091085,0.0001675128296483308
1738772981574395400,8.1533955078125,0.0009209210984408855,0.0038336203433573246,0.0013994910987094045
1738772981584386300,8.16338623046875,-0.0002772350562736392,0.004759601317346096,0.0006716492353007197
1738772981594377500,8.17337744140625,0.00222001108340919,0.005142830312252045,-0.0010745854815468192
1738772981604368400,8.183368408203124,0.0010135991033166647,0.0035441347863525152,0.00001704423084447626
1738772981614360300,8.1933603515625,0.0012988236267119646,0.004514856729656458,-0.00003462109452812001
1738772981624351500,8.2033515625,0.0010077401529997587,0.002123604528605938,0.0001536643976578489
1738772981634342400,8.21334228515625,0.0025710156187415123,0.003462641965597868,-0.0014658038271591067
1738772981644333300,8.223333251953125,0.001181111903861165,0.0030029804911464453,0.001422128058038652
1738772981654324500,8.233324462890625,0.0021465078461915255,0.004969192203134298,-0.000143544384627603
1738772981664315400,8.2433154296875,0.0001233043585671112,0.0038272286765277386,0.000871652620844543
1738772981674306300,8.253306396484374,0.0020157466642558575,0.002888997085392475,-0.00015286543930415064
1738772981684297500,8.26329736328125,0.000999484327621758,0.0038013961166143417,0.00056219327962026
1738772981694289400,8.273289306640624,0.0009499495499767363,0.0038370825350284576,0.0010495517635717988
1738772981704280300,8.2832802734375,0.0010410296963527799,0.004180630203336477,0.001407480682246387
1738772981714895400,8.293895263671875,0.002516420790925622,0.004113784991204739,0.0001685781026026234
1738772981724887300,8.30388720703125,0.0016860472969710827,0.0022748722694814205,-0.00037470675306394696
1738772981734878500,8.31387841796875,0.0010982876410707831,0.0035481294617056847,-0.001972070662304759
1738772981744869400,8.323869384765626,-0.0007672567153349519,0.004821386653929949,-0.0004620584368240088
1738772981754860300,8.3338603515625,0.0003635214816313237,0.003624029690399766,0.000770452490542084
1738772981764851500,8.3438515625,0.002400839701294899,0.004180097486823797,0.00024181502521969378
1738772981774842600,8.353842529296875,0.0007155913626775146,0.004618986509740353,-0.000532365869730711
1738772981784833500,8.36383349609375,-0.00006258428766159341,0.0031502533238381147,0.00010466222738614306
1738772981794825500,8.373825439453125,0.0013427657540887594,0.0017600831342861056,-0.0005826996639370918
1738772981804816400,8.38381640625,0.0020703414920717478,0.0014652712270617485,-0.0011994877131655812
1738772981814807300,8.393807373046876,0.0018943065078929067,0.0046754456125199795,-0.0011145329335704446
1738772981824798500,8.403798583984376,0.0014729943359270692,0.0031646343413740396,0.00021065604232717305
1738772981834789600,8.41378955078125,-0.0003880225704051554,0.003971039317548275,0.00012969593808520585
1738772981844780500,8.423780517578125,0.002799514913931489,0.004544417839497328,-0.00006844323797849938
1738772981854771500,8.433771484375,-0.0010096043115481734,0.004205930046737194,0.0009049421059899032
1738772981864762600,8.4437626953125,0.0009576727170497179,0.0006950850365683436,0.000025832661776803434
1738772981874754300,8.45375439453125,-0.0006940197781659663,0.004162520635873079,0.00037470675306394696
1738772981884745500,8.463745361328124,0.0005062668933533132,0.0031875374261289835,-0.0008109325426630676
1738772981894736600,8.473736572265626,0.0003936151915695518,0.00404614070430398,0.0003028014034498483
1738772981904727600,8.4837275390625,0.0013739247806370258,0.0038962047547101974,-0.001404284848831594
1738772981914718500,8.493718505859375,0.0007286408799700439,0.00487331859767437,0.00008388957212446257
1738772981924709600,8.503709716796875,0.0017616810509935021,0.004994492046535015,0.000041811628761934116
1738772981934700500,8.513700439453125,0.0016237293602898717,0.003906857222318649,0.0016074840677902102
1738772981944692500,8.5236923828125,0.0025393241085112095,0.0049257827922701836,0.0011350392596796155
1738772981954683600,8.53368359375,0.0018370485631749034,0.0046544065698981285,0.00010173275222769007
1738772981964674600,8.543674560546876,0.0009025452891364694,0.0041761030443012714,0.0010751180816441774
1738772981974665500,8.55366552734375,0.00037151097785681486,0.0041404166258871555,0.00004314320904086344
1738772981984656400,8.563656494140625,0.0014056164072826505,0.003570766421034932,0.00199337606318295
1738772981994647600,8.5736474609375,0.0012207929976284504,0.0034024545457214117,0.0010130665032193065
1738772982004638500,8.583638427734375,0.0003323625132907182,0.004309793468564749,-0.0003741741238627583
1738772982014629400,8.59362939453125,0.00016671388584654778,0.0021286646369844675,0.000464188982732594
1738772982024621600,8.60362158203125,0.0008218514849431813,0.003659449517726898,0.0013680658303201199
1738772982034612500,8.613612548828126,0.0016564861871302128,0.004019242711365223,0.00038748994120396674
1738772982044603400,8.623603271484376,0.0020692760590463877,0.0028064390644431114,-0.00034461304312571883
1738772982054594600,8.633594482421875,0.0011033476330339909,0.004854409955441952,-0.00012543488992378116
1738772982064585500,8.64358544921875,0.0011145329335704446,0.005084507167339325,0.0012506204657256603
1738772982074576400,8.653576416015625,0.0015395734226331115,0.004295945167541504,0.0003025351034011692
1738772982084567600,8.663567626953125,0.0021558289881795645,0.0031273500062525272,-0.000040746363083599135
1738772982094559500,8.6735595703125,0.0022413162514567375,0.00370099488645792,0.00049108691746369
1738772982104550400,8.68355029296875,0.001876995898783207,0.0036543896421790123,0.0009677927591837943
1738772982114541600,8.69354150390625,0.002371544949710369,0.0025933862198144197,0.0009065400226972997
1738772982124532500,8.703532470703125,0.0012431635987013578,0.003394198836758733,0.0007765777409076691
1738772982134523400,8.7135234375,0.0024865935556590557,0.003501790575683117,-0.0008892294717952609
1738772982144514600,8.7235146484375,0.001985120354220271,0.004535097163170576,0.00021891183860134333
1738772982154505200,8.733505126953125,0.00044847631943412125,0.004335892386734486,0.00005352953667170368
1738772982164497400,8.743497314453125,0.0018471685471013188,0.0027952538803219795,-0.0007323693134821951
1738772982174488300,8.75348828125,0.002356897573918104,0.00410419749096036,0.00008602010348113254
1738772982184479500,8.7634794921875,0.00065460498444736,0.0038000645581632853,0.001386707997880876
1738772982194470400,8.773470458984375,0.0010844392236322165,0.0028245486319065094,0.0007315703551284969
1738772982204461300,8.78346142578125,0.00033182985498569906,0.0037832865491509438,-0.0007816377910785377
1738772982214452200,8.7934521484375,0.0014354437589645386,0.0033420007675886154,0.00034354778472334146
1738772982224443400,8.803443359375,0.003226952161639929,0.005119128152728081,0.00013395700079854578
1738772982234435300,8.813435302734375,0.00039414784987457097,0.003296727081760764,0.0013888385146856308
1738772982244426200,8.82342626953125,0.0012386362068355083,0.0038128476589918137,0.002144377212971449
1738772982254417400,8.83341748046875,0.0031494542490690947,0.0034645062405616045,0.0003802994033321738
1738772982264408300,8.843408203125,0.0023640880826860666,0.0027286747936159372,0.000031957933970261365
1738772982274399200,8.853399169921875,0.0017827199772000313,0.003944940399378538,0.0006609965930692852
1738772982284390400,8.863390380859375,0.000532365869730711,0.0025041704066097736,-0.0006700513185933232
1738772982294381300,8.87338134765625,0.0019925772212445736,0.0038924762047827244,0.0008543420699425042
1738772982304373200,8.883373291015625,0.001517202821560204,0.004040814470499754,0.0005392901366576552
1738772982314364400,8.893364501953124,0.0006482133758254349,0.004779309034347534,-0.0010154632618650794
1738772982324355300,8.903355224609374,0.0023150858469307423,0.0029113676864653826,0.0003294330381322652
1738772982334346200,8.91334619140625,0.0005179848521947861,0.005305283237248659,0.0006636597099713981
1738772982344337400,8.92333740234375,0.0010002832859754562,0.005773200653493404,-0.0007233145297504961
1738772982354328300,8.933328369140625,0.002019474981352687,0.0028519791085273027,-0.0012751214671880007
1738772982364319200,8.9433193359375,0.0009584716754034162,0.005821669939905405,0.0006980145117267966
1738772982374310100,8.95331005859375,0.0009121326729655266,0.003275954397395253,0.0014516890514642
1738772982384302300,8.96330224609375,0.0016263924771919847,0.0037409423384815454,0.0011789813870564103
1738772982394293200,8.973293212890624,0.002508697798475623,0.0024322650860995054,-0.0006237123161554337
1738772982404284400,8.983284423828126,0.0014223942998796701,0.004135889001190662,-0.000036751622246811166
1738772982414275300,8.993275390625,0.0002793656021822244,0.0043830303475260735,-0.0009872338268905878
1738772982424266200,9.003266357421875,0.0009840379934757948,0.004448011517524719,-0.0008042746339924634
1738772982434257200,9.013257080078125,0.002519616624340415,0.004538292996585369,0.0005315669695846736
1738772982444248300,9.023248291015625,0.0016402408946305513,0.0037622477393597364,0.0016405072528868914
1738772982454240300,9.033240234375,0.00018322547839488834,0.0037534593138843775,0.0001954760227818042
1738772982464231200,9.043231201171874,0.001639441936276853,0.004270378965884447,0.0007949535502120852
1738772982474222300,9.053222412109376,0.0022594258189201355,0.004549744538962841,-0.00036218989407643676
1738772982484213200,9.063213134765626,0.0017512947088107467,0.0025036376900970936,0.0005736448802053928
1738772982494204200,9.0732041015625,0.0016234630020335317,0.0034376082476228476,-0.0007115966291166842
1738772982504195300,9.0831953125,0.0023904533591121435,0.0049012815579771996,-0.0010926949325948954
1738772982514187300,9.093187255859375,0.001377919572405517,0.003349990351125598,-0.00007110639853635803
1738772982524178200,9.10317822265625,0.0033073797821998596,0.0032418658956885338,-0.00034647725988179445
1738772982534169300,9.11316943359375,0.001654089312069118,0.003313771216198802,0.0006266417913138866
1738772982544160300,9.12316015625,0.003055977402254939,0.003934021573513746,0.0009512811084277928
1738772982554151400,9.1331513671875,0.0008588694618083537,0.004730839282274246,-0.00025513084256090224
1738772982564142600,9.143142578125,0.0006085322820581496,0.003998736385256052,-0.00034354778472334146
1738772982574133500,9.153133544921875,0.0023379891645163298,0.003483681008219719,-0.00008602010348113254
1738772982584125200,9.163125244140625,0.0016737966798245907,0.0044171190820634365,-0.00029640982393175364
1738772982594116400,9.173116455078125,0.0005627259379252791,0.00449861166998744,0.000773381965700537
1738772982604107300,9.183107177734374,0.0010149306617677212,0.0023369237314909697,0.00013635384675581008
1738772982614098400,9.193098388671874,0.001463939668610692,0.0031063109636306763,-0.0011851066956296563
1738772982624089600,9.203089599609376,0.002755572786554694,0.0027092336677014828,-0.0017936390358954668
1738772982634080500,9.21308056640625,0.0008367652189917862,0.003780623432248831,0.001395496423356235
1738772982644071400,9.223071533203125,0.0013393036788329482,0.004975317511707544,-0.00039068571641109884
1738772982654063400,9.2330634765625,0.0007286408799700439,0.0029859361238777637,-0.0011827098205685616
1738772982664054300,9.24305419921875,0.0012218583142384887,0.004038417246192694,0.000107858024421148
1738772982674045400,9.25304541015625,0.0016354472609236836,0.004228567238897085,0.00039867521263659
1738772982684036400,9.263036376953124,0.0018338527297601104,0.003556119045242667,-0.0009116000146605074
1738772982694027500,9.273027587890626,0.0008412926108576357,0.004254932515323162,0.000025832661776803434
1738772982704018400,9.283018310546876,0.0026205505710095167,0.002626942005008459,0.0007134608458727598
1738772982714009300,9.29300927734375,0.00017710021347738802,0.0044109937734901905,0.00047643951256759465
1738772982724001300,9.303001220703125,0.0018732674652710557,0.0030626351945102215,0.00014407701382879168
1738772982733992400,9.312992431640625,0.002122006844729185,0.003876763628795743,0.00009960222087102011
1738772982743983400,9.3229833984375,0.0005813680472783744,0.004795820452272892,-0.00005512743518920615
1738772982753974500,9.332974609375,0.0020660804584622383,0.0033105756156146526,-0.00014514227223116904
1738772982763965400,9.34296533203125,0.0009635316673666239,0.002626942005008459,0.0006359628750942647
1738772982773956400,9.352956298828126,0.0009257147903554142,0.004809136036783457,-0.00041278995922766626
1738772982783947500,9.362947509765625,0.0020423782989382744,0.0038192393258213997,0.0005150553770363331
1738772982793939500,9.372939453125,0.0008064051507972181,0.003591006388887763,0.0013174657942727208
1738772982803930400,9.382930419921875,0.0023065637797117233,0.0036629117093980312,-0.000859934720210731
1738772982813921500,9.392921630859375,0.001207743538543582,0.0032615733798593283,-0.00042504051816649735
1738772982823912400,9.402912353515624,0.0009547432418912649,0.003858387703076005,0.001294029993005097
1738772982833903400,9.4129033203125,0.0018170748371630907,0.0029465213883668184,-0.000517718493938446
1738772982843894300,9.422894287109376,0.0016820525052025914,0.004038949962705374,0.0007813714328221977
1738772982853885400,9.432885498046875,0.00037816885742358863,0.003153715282678604,0.0004743089957628399
1738772982863877400,9.44287744140625,0.0009001484140753746,0.004862932022660971,0.0001411475386703387
1738772982873868500,9.45286865234375,0.0017576862592250109,0.003055444685742259,0.0017981663113459945
1738772982883859500,9.462859375,-0.00023196132679004222,0.003924700431525707,0.0012745888670906425
1738772982893850400,9.472850341796875,0.001019990653730929,0.004229099955409765,0.0009203884401358664
1738772982903841300,9.48284130859375,0.0012157330056652427,0.003695135936141014,-0.0002567287301644683
1738772982913832400,9.49283251953125,0.0019326560432091355,0.003912982530891895,-0.00041252365917898715
1738772982923823400,9.5028232421875,0.0016815199051052332,0.0032645028550177813,-0.00017496968212071806
1738772982933815600,9.512815673828126,0.0010197244118899107,0.0037944719661027193,0.0007203850545920432
1738772982943806500,9.522806396484375,0.0010359697043895721,0.004129231441766024,-0.00023702133330516517
1738772982953797400,9.53279736328125,0.0002798982313834131,0.00421471893787384,0.0015124091878533363
1738772982963788300,9.542788330078125,0.0008567389450035989,0.00370072852820158,0.0003680488734971732
1738772982973779500,9.552779541015624,0.0023872575256973505,0.004960137419402599,-0.00003435477628954686
1738772982983770400,9.562770263671876,0.00207673292607069,0.0023497070651501417,0.00043302998528815806
1738772982993762300,9.57276220703125,0.0019467707024887204,0.005273591727018356,-0.00008735168376006186
1738772983003753500,9.58275341796875,0.0022330605424940586,0.004384628497064114,0.0003427488263696432
1738772983013744400,9.592744384765625,0.002519350266084075,0.0027470507193356752,0.002401106059551239
1738772983023735300,9.6027353515625,0.0012354403734207153,0.005001416429877281,0.0010793792316690087
1738772983033726500,9.6127265625,0.0032770195975899696,0.003658917034044862,0.0006993460701778531
1738772983043717400,9.62271728515625,0.0013672668719664216,0.0051899682730436325,0.0009406284661963582
1738772983053708300,9.632708251953124,0.0003914846747647971,0.004957740660756826,0.0020130835473537445
1738772983063700500,9.642700439453124,0.00021118867152836174,0.0031899344176054,-0.0000601874417043291
1738772983073691400,9.65269140625,0.0025829998776316643,0.005004345905035734,0.0018849853659048676
1738772983083682300,9.662682373046875,0.0015699334908276796,0.004730040207505226,0.0017206683987751603
1738772983093673500,9.672673583984375,-0.00031904669594950974,0.002097771968692541,-0.0011147991754114628
1738772983103664400,9.682664306640625,0.00138031633105129,0.004096208140254021,0.0010040117194876075
1738772983113655300,9.6926552734375,0.0009116000146605074,0.0029790119733661413,-0.0010748518398031592
1738772983123646200,9.702646240234374,0.0005318332696333528,0.003375822911038995,-0.0003174488083459437
1738772983133638400,9.712638427734374,-0.000035686356568476185,0.00427171029150486,0.0008474178612232208
1738772983143629300,9.72262939453125,0.0023228090722113848,0.003977697342634201,0.0006761765689589083
1738772983153620200,9.7326201171875,0.0013789847726002336,0.004818190820515156,0.0009041432058438659
1738772983163611100,9.742611083984375,0.002094576135277748,0.0016921724891290069,-0.0002668487431947142
1738772983173602000,9.75260205078125,0.0018751317402347922,0.0033776871860027313,0.0001984054979402572
1738772983183593200,9.76259326171875,0.0011808456620201468,0.0029640982393175364,-0.0009576727170497179
1738772983193584000,9.772584228515624,0.0012804478174075484,0.0034115093294531107,0.0014290522085502744
1738772983203576000,9.782576171875,0.0007637945818714797,0.004028563853353262,-0.00022157499915920198
1738772983213567200,9.792567138671876,0.002073803450912237,0.003126551164314151,-0.00013448962999973446
1738772983223558100,9.80255810546875,0.00044314999831840396,0.003740143496543169,0.0015899071004241705
1738772983233549000,9.812549072265625,0.0014082795241847634,0.003865045728161931,0.0002133192028850317
1738772983243540200,9.822540283203125,0.002142513170838356,0.0032519858796149492,-0.001055943313986063
1738772983253531100,9.83253125,0.001972070662304759,0.0034386736806482077,0.0009438242996111512
1738772983263522000,9.84252197265625,-0.00013182646944187582,0.004224572330713272,0.0008117315010167658
1738772983273514200,9.85251416015625,0.0004420847399160266,0.0032170985359698534,0.001023452845402062
1738772983283505200,9.862505126953126,0.0013398362789303064,0.0028719529509544373,0.0004974784678779542
1738772983293496000,9.87249609375,0.00047111319145187736,0.003549194661900401,0.0009195895399898291
1738772983303487200,9.8824873046875,0.0008849684381857514,0.002927346620708704,0.00011877698125317693
1738772983313478100,9.89247802734375,0.00015153386630117893,0.003863980295136571,0.0004820321628358215
1738772983323469000,9.902468994140625,0.0012311793398112059,0.0025044367648661137,-0.00047857005847617984
1738772983333460000,9.9124599609375,0.0006892260862514377,0.005016596522182226,-0.0002348908019484952
1738772983343452200,9.9224521484375,0.0016556872287765145,0.0031374699901789427,0.0021880532149225473
1738772983353443000,9.932443115234374,0.0013025520602241158,0.004593686666339636,0.00036698358599096537
1738772983363434000,9.94243408203125,0.0014474280178546906,0.004081827122718096,-0.00022157499915920198
1738772983373425200,9.952425048828125,0.0012042814632877707,0.004238953348249197,0.000284159294096753
1738772983383416000,9.962416015625,0.0014679343439638615,0.004221376497298479,0.0007531419396400452
1738772983393407200,9.9724072265625,0.0013086773687973619,0.0031302794814109802,0.0008439557277597487
1738772983403398400,9.9823984375,0.001511610229499638,0.004317782819271088,-0.00042264367220923305
1738772983413390000,9.99239013671875,-0.0006764429272152483,0.004996622912585735,0.00045833003241568804
1738772983423381000,10.002381103515624,0.0018346516881138086,0.0033425334841012955,-0.00043516053119674325
1738772983433372200,10.0123720703125,0.0007360977469943464,0.0030890004709362984,0.0002687129599507898
1738772983443363000,10.022363037109375,0.0009992180857807398,0.0038956720381975174,0.0010295780375599861
1738772983453354200,10.032354248046875,0.0012474246323108673,0.002950782421976328,-0.0012570120161399245
1738772983463345400,10.042345458984375,0.001901230658404529,0.003931358456611633,0.0004191815387457609
1738772983473336300,10.05233642578125,0.0004902879591099918,0.00498170917853713,0.00042317630141042173
1738772983483328000,10.062327880859375,0.0036780918017029762,0.005172924138605595,-0.0011638014111667871
1738772983493319200,10.072319091796874,0.0015635418239980936,0.0035337484441697598,0.001532116555608809
1738772983503310000,10.08231005859375,0.002388855442404747,0.003358246060088277,0.000016777914424892515
1738772983513301200,10.09230126953125,0.00166580721270293,0.004620051942765713,-0.0011920308461412787
1738772983523292400,10.10229248046875,-0.00002663161103555467,0.004539890680462122,0.0006628608098253608
1738772983533283300,10.112283447265625,-0.00011238539445912465,0.004703941289335489,-0.0002713761059567332
1738772983543274200,10.122274169921875,0.002270611235871911,0.005228850524872541,-0.0001691107318038121
1738772983553266200,10.13226611328125,0.0014317154418677092,0.004022172186523676,-0.0009688580175861716
1738772983563257300,10.14225732421875,0.0016421051695942879,0.0035662390291690826,0.0007643272401764989
1738772983573248300,10.152248291015624,0.0011073424248024821,0.0035872780717909336,0.0012178635224699974
1738772983583239200,10.1622392578125,0.00273693073540926,0.004551342222839594,0.00210735946893692
1738772983593230300,10.172230224609375,0.0007957525085657835,0.004230697639286518,0.0013203952694311738
1738772983603221200,10.18222119140625,0.0029025792609900236,0.0020967067684978247,-0.0008197209681384265
1738772983613213200,10.192213134765625,-0.0002724413643591106,0.003899666713550687,0.0005819007055833936
1738772983623204400,10.202204345703125,0.00014647385978605598,0.0022562299855053425,0.00008788431296125054
1738772983633195300,10.2121953125,0.0007510114228352904,0.002906840294599533,0.0005131911602802575
1738772983643186200,10.222186279296874,0.0015227955300360918,0.0029830066487193108,0.0010823087068274617
1738772983653177300,10.23217724609375,0.0006972155533730984,0.0041345576755702496,-0.0014096111990511417
1738772983663168300,10.242168212890626,-0.0009321063989773393,0.0038663772866129875,-0.0003818972909357399
1738772983673159200,10.2521591796875,0.0023555660154670477,0.003750795964151621,-0.000553404854144901
1738772983683151400,10.2621513671875,0.0016860472969710827,0.0034120420459657907,0.0007544735562987626
1738772983693142300,10.272142333984375,0.0011832424206659198,0.0038149782922118902,0.0015515576815232635
1738772983703133200,10.28213330078125,0.0015257250051945448,0.002186188939958811,0.0006506102508865297
1738772983713124400,10.292124267578124,0.002025333931669593,0.004005660768598318,0.0009179916232824326
1738772983723115300,10.302115234375,0.0029467877466231585,0.003518834710121155,-0.00031638352083973587
1738772983733106200,10.312106201171876,0.0015036207623779774,0.0037324202712625265,-0.0008602010202594101
1738772983743098400,10.322098388671876,0.002123870886862278,0.00224903947673738,0.0003680488734971732
1738772983753089300,10.33208935546875,0.001136370818130672,0.0043502734042704105,0.0006229133578017354
1738772983763080200,10.342080078125,0.0026607641484588385,0.0046879625879228115,0.0007813714328221977
1738772983773071400,10.3520712890625,0.0019212043844163418,0.003958788700401783,-0.0000774979853304103
1738772983783062300,10.362062255859374,0.0013116068439558148,0.004293548408895731,0.0016503608785569668
1738772983793053200,10.37205322265625,0.00047590688336640596,0.003650128608569503,-0.001487375469878316
1738772983803044000,10.382044189453126,0.00042770366417244077,0.0023220102302730083,-0.00007776429993100464
1738772983813036300,10.392036376953126,0.00017443705291952938,0.00430047232657671,0.0007520766812376678
1738772983823027200,10.402027099609375,0.0015052186790853739,0.003428020980209112,0.0011081412667408586
1738772983833018400,10.412018310546875,0.0011054781498387456,0.0034317492973059416,-0.001469798618927598
1738772983843009300,10.42200927734375,0.0015393070643767715,0.0041212416253983974,0.0005819007055833936
1738772983853000200,10.432000244140625,0.0003837615076918155,0.005022721830755472,0.00042104575550183654
1738772983862991000,10.4419912109375,0.002743588527664542,0.0022450448013842106,0.0015374429058283567
1738772983872982300,10.451982177734376,0.0013760552974417806,0.0026581010315567255,0.0009606021922081709
1738772983882974200,10.46197412109375,0.002280997345224023,0.004048004746437073,0.000035686356568476185
1738772983892965000,10.471965087890625,-0.0007507451227866113,0.0031795480754226446,-0.0004439489566721022
1738772983902956300,10.481956298828125,0.002276470186188817,0.004034422803670168,0.000716922979336232
1738772983912947200,10.491947265625,0.0019342538435012102,0.0031760858837515116,-0.00012889699428342283
1738772983922938000,10.501938232421875,0.0013875069562345743,0.003899666713550687,0.0009827064350247383
1738772983932929300,10.51192919921875,0.0007938882918097079,0.003145193215459585,-0.0003283677506260574
1738772983942921200,10.521921142578124,0.0014381069922819734,0.0036567864008247852,0.0007781756576150656
1738772983952912100,10.531912109375,0.002010952914133668,0.004720186814665794,0.0011467571603134274
1738772983962903300,10.5419033203125,0.0016407734947279096,0.00256435782648623,-0.00033662354690022767
1738772983972894200,10.551894287109375,0.0011970909545198083,0.004886367823928595,0.0004266384057700634
1738772983982885000,10.561885009765625,-0.000028762138754245825,0.0029944581910967827,0.0008474178612232208
1738772983992876300,10.571876220703125,0.0009811085183173418,0.0033963292371481657,-0.00030120351584628224
1738772984002867200,10.5818671875,0.002669020090252161,0.0043502734042704105,0.00012623383372556418
1738772984012859100,10.591859130859374,0.001064731739461422,0.005422195885330439,-0.00031425300403498113
1738772984022850300,10.601850341796874,-0.001032507512718439,0.003562244353815913,0.000248472933890298
1738772984032841200,10.61184130859375,0.0015635418239980936,0.0033981935121119022,0.00018189390539191663
1738772984042832100,10.62183203125,-0.0003225088003091514,0.004513791762292385,0.0015251922886818647
1738772984052823300,10.6318232421875,0.0013156015193089843,0.004637895151972771,-0.0015960324089974165
1738772984062814200,10.641814208984375,0.0011824434623122215,0.003653058083727956,-0.00026844663079828024
1738772984072806100,10.65180615234375,0.0014857775531709194,0.003975566942244768,0.0004522047529462725
1738772984082797300,10.66179736328125,0.00036991306114941835,0.005662146955728531,0.0008820389630272985
1738772984092788200,10.671788330078124,0.0017784589435905218,0.0051446943543851376,-0.0003067961661145091
1738772984102779100,10.681779052734376,0.00037923414492979646,0.004701544530689716,-0.0004724447790067643
1738772984112770000,10.69177001953125,0.002764361212030053,0.003698864486068487,0.0017933726776391268
1738772984122761200,10.70176123046875,0.0014452975010499358,0.003472495824098587,-0.0001246359315700829
1738772984132752100,10.711752197265625,0.00028069718973711133,0.004896488040685654,0.0007198524544946849
1738772984142744300,10.721744384765625,0.00119629199616611,0.0038448055274784565,0.0005158542771823704
1738772984152735200,10.7317353515625,0.0016354472609236836,0.004091946873813868,-0.00013129384024068713
1738772984162726000,10.741725830078124,0.0011377023765817285,0.003609115956351161,0.0006476807757280767
1738772984172716800,10.751716796875,0.0009155947482213378,0.003385676769539714,-0.0002564624010119587
1738772984182708000,10.7617080078125,0.0003022687742486596,0.0026258768048137426,0.0002545981842558831
1738772984192699000,10.771698974609375,0.0005025385180488229,0.003808320267125964,0.0013515542959794402
1738772984202689800,10.781689697265625,0.00035712990211322904,0.0046631949953734875,-0.0009145294898189604
1738772984212682000,10.791681884765625,0.002314020646736026,0.0035979305393993855,0.0009869674686342478
1738772984222673000,10.8016728515625,0.0018290589796379209,0.004008856136351824,-0.00086872314568609
1738772984232663800,10.811663818359374,0.0010215885704383254,0.0043808999471366405,-0.00009880327706923708
1738772984242655000,10.821655029296876,0.000681236619129777,0.004579039290547371,0.00047351003740914166
1738772984252646000,10.83164599609375,0.00041305628838017583,0.004667988512665033,0.0010596717474982142
1738772984262636800,10.84163671875,0.002537193475291133,0.005554022267460823,-0.00020532972121145576
1738772984272629000,10.85162890625,0.0030099046416580677,0.003921238239854574,0.00006657902849838138
1738772984282620000,10.861619873046875,0.0009653958841226995,0.003329217666760087,0.00005699164830730297
1738772984292610800,10.87161083984375,0.001062068622559309,0.004450141917914152,0.0015403723809868097
1738772984302602000,10.88160205078125,0.0001323590986430645,0.00307675008662045,-0.0014863101532682776
1738772984312593000,10.891593017578124,0.0017417073249816895,0.0036008600145578384,0.00023568976030219346
1738772984322583800,10.901583740234376,0.0015443670563399792,0.004142014309763908,-0.00036245622322894633
1738772984332574700,10.91157470703125,0.0013006879016757011,0.002528138691559434,0.00006604639202123508
1738772984342567000,10.92156689453125,0.0016871124971657991,0.003756921272724867,-0.0002364887041039765
1738772984352557800,10.931557861328125,0.0018461032304912806,0.003197657410055399,0.0005845638806931674
1738772984362548700,10.941548828125,-0.0005933523061685264,0.0032690302468836308,0.00003382214708835818
1738772984372540000,10.951539794921874,0.0014689996605738997,0.004697549622505903,0.0011073424248024821
1738772984382530800,10.96153076171875,0.0022748722694814205,0.004041879437863827,0.00011478224041638896
1738772984392522000,10.97152197265625,0.0006748450105078518,0.005022455472499132,0.00185036426410079
1738772984402514000,10.981513916015626,0.0023012375459074974,0.0036991306114941835,0.0015243934467434883
1738772984412504800,10.9915048828125,-0.00003382214708835818,0.004869590047746897,0.0005723133217543364
1738772984422495700,11.001495849609375,0.0019542276859283447,0.00452897185459733,0.0006924218614585698
1738772984432487000,11.01148681640625,0.0013233247445896268,0.005585980135947466,-0.0006799050024710596
1738772984442477800,11.021477783203125,0.0034290861804038286,0.004018443636596203,0.00018136126163881272
1738772984452469000,11.031468994140624,0.0007400924805551767,0.003983023576438427,0.0008815063047222793
1738772984462460200,11.041460205078126,0.0011507519520819187,0.004159591160714626,-0.00008175904804375023
1738772984472451800,11.051451904296876,0.0027957865968346596,0.003733485471457243,-0.0003968109958805144
1738772984482442800,11.06144287109375,0.0013528858544304967,0.0036602485924959183,0.00027616979787126184
1738772984492434000,11.071433837890625,-0.00028389296494424343,0.0022213426418602467,-0.0011829761788249016
1738772984502424800,11.0814248046875,0.000835966260638088,0.0028722193092107773,-0.0007651261985301971
1738772984512416000,11.091416015625,0.0010988202411681414,0.003177683800458908,0.0010314423125237226
1738772984522407200,11.1014072265625,0.001118793967179954,0.0037324202712625265,-0.0006759102689102292
1738772984532398000,11.111398193359374,0.000586161739192903,0.004422445315867662,0.0007089334540069103
1738772984542389800,11.1213896484375,0.000818123109638691,0.0035776905715465546,0.0007459514308720827
1738772984552381000,11.131380859375,0.002624012529850006,0.0034051176626235247,-0.0006197175825946033
1738772984562372000,11.1413720703125,0.0018692727899178863,0.0026349315885454416,0.0004942826926708221
1738772984572363000,11.151363037109375,-0.0003486077766865492,0.004261324182152748,-0.0006535397260449827
1738772984582354000,11.16135400390625,0.0021638183388859034,0.003364371368661523,0.0007773766992613673
1738772984592345000,11.171344970703124,0.0011544802691787481,0.003120425855740905,0.00023675501870457083
1738772984602336800,11.181336669921874,0.0006114617572166026,0.0033957967534661293,-0.0011970909545198083
1738772984612328000,11.191327880859374,0.0009169263648800552,0.003955326974391937,-0.0013169331941753626
1738772984622319000,11.201319091796876,0.0027715517207980156,0.0027337349019944668,0.00006498113361885771
1738772984632310000,11.21131005859375,0.0007691209320910275,0.0027305390685796738,0.0006918892613612115
1738772984642301000,11.221301025390625,0.0017174725653603673,0.0035918052308261395,0.0003230414295103401
1738772984652292000,11.2312919921875,-0.0002767024270724505,0.004698082339018583,0.00108284130692482
1738772984662283000,11.241282958984375,-0.00023515711654908955,0.004722050856798887,-0.0004791026876773685
1738772984672275000,11.25127490234375,0.002787530655041337,0.0052112736739218235,-0.0010993528412654996
1738772984682266000,11.26126611328125,0.00044661210267804563,0.004292749334126711,-0.0003193130251020193
1738772984692257000,11.271257080078126,0.0024136228021234274,0.005821936298161745,0.002299639629200101
1738772984702248000,11.281248046875,0.002971555106341839,0.0029979203827679157,0.00033928672201000154
1738772984712239000,11.291239013671875,0.002198439557105303,0.004147873260080814,0.001243962557055056
1738772984722230000,11.30122998046875,-0.0002926813904196024,0.002487392397597432,0.001430916483514011
1738772984732221000,11.311220947265625,0.001112668658606708,0.0030626351945102215,0.002008023438975215
1738772984742213000,11.321213134765625,0.0014455638593062758,0.0035923379473388195,-0.00042317630141042173
1738772984752204000,11.3312041015625,0.00046631949953734875,0.0035518580116331577,0.0007829693495295942
1738772984762195000,11.34119482421875,0.00177952426020056,0.005152950529009104,-0.00008016114588826895
1738772984772186000,11.35118603515625,0.0015345134306699038,0.002561694709584117,0.0025385250337421894
1738772984782177000,11.361177001953125,0.00016538229829166085,0.003266899613663554,0.0009435579413548112
1738772984792168000,11.37116796875,0.001213868847116828,0.002371811307966709,-0.00009427589975530282
1738772984802160000,11.38116015625,0.0009158611064776778,0.004652808886021376,0.0010761833982542157
1738772984812151000,11.391151123046875,0.002369148191064596,0.004005128052085638,0.000031691615731688216
1738772984822142000,11.401141845703124,0.0017092167399823666,0.0025686188600957394,0.0009291769238188863
1738772984832133000,11.411133056640624,0.0018005631864070892,0.003138535423204303,0.0000673779723001644
1738772984842124000,11.4211240234375,0.0014197311829775572,0.003960653208196163,0.0003201119543518871
1738772984852115000,11.431114990234375,0.00041678472189232707,0.003139067906886339,0.0016916398890316486
1738772984862105900,11.44110595703125,0.002802178030833602,0.0031321437563747168,-0.0004649879119824618
1738772984872098000,11.45109814453125,0.00043782367720268667,0.005049087107181549,-0.0002348908019484952
1738772984882089000,11.4610888671875,0.002019741339609027,0.0046386937610805035,0.0019068233668804169
1738772984892079900,11.471079833984374,0.002120675053447485,0.004295678809285164,-0.0006412891671061516
1738772984902071000,11.481071044921874,0.0014101437991485,0.003171558491885662,0.0020413128659129143
1738772984912062000,11.49106201171875,0.00019121496006846428,0.003943076357245445,-0.0004165183927398175
1738772984922052900,11.501052978515625,0.0003789678157772869,0.004099936690181494,-0.00011211907985853031
1738772984932045000,11.511045166015625,0.001895105466246605,0.005251753609627485,0.000055660068028373644
1738772984942036000,11.521035888671875,0.0004593952908180654,0.003817375050857663,-0.0004743089957628399
1738772984952027000,11.53102685546875,0.0009257147903554142,0.0031196267809718847,0.0015752597246319056
1738772984962018000,11.54101806640625,0.0005909554311074317,0.0024051007349044085,0.0014471617760136724
1738772984972009000,11.551009033203124,0.001502555445767939,0.0044022053480148315,0.001186970854178071
1738772984981999900,11.560999755859376,0.0009736517095007002,0.0037774275988340378,0.001237571006640792
1738772984991992000,11.570991943359376,0.0009776464430615306,0.003964115399867296,-0.0006223807577043772
1738772985001983000,11.58098291015625,0.0015395734226331115,0.004523112904280424,0.0014271880500018597
1738772985011974000,11.590973876953125,0.0030956584960222244,0.004488491453230381,-0.0020240023732185364
1738772985021965000,11.600965087890625,0.0015755260828882456,0.0017065536230802536,0.0019680759869515896
1738772985031956000,11.6109560546875,0.0006234460161067545,0.0027915253303945065,0.0011062771081924438
1738772985041947000,11.62094677734375,0.0011685950448736548,0.0035979305393993855,-0.0006407565670087934
1738772985051938000,11.63093798828125,0.0013459615875035524,0.00503923324868083,0.0002364887041039765
1738772985061930000,11.640929931640626,0.00019094864546786994,0.004836566746234894,0.0015443670563399792
1738772985071921000,11.6509208984375,0.0018189389957115054,0.0038400120101869106,-0.001341966912150383
1738772985081912000,11.660912109375,0.0012948289513587952,0.003358778776600957,0.00017896443023346364
