time,seconds_elapsed,z,y,x
1738772337301646000,0.02064599609375,-0.519012451171875,-0.85797119140625,-0.001983642578125
1738772337311637000,0.030636962890625,-0.5196990966796875,-0.85723876953125,-0.0017242431640625
1738772337321628000,0.0406279296875,-0.5205078125,-0.857757568359375,-0.00213623046875
1738772337331619000,0.050619140625,-0.519683837890625,-0.8586578369140625,-0.000640869140625
1738772337341611000,0.060611083984375,-0.521148681640625,-0.8575439453125,-0.000762939453125
1738772337351602000,0.070601806640625,-0.518310546875,-0.8585357666015625,-0.0013885498046875
1738772337361593000,0.080593017578125,-0.520263671875,-0.857879638671875,-0.0010986328125
1738772337371584000,0.090583984375,-0.520111083984375,-0.85888671875,-0.001129150390625
1738772337381575000,0.100574951171875,-0.5219268798828125,-0.8583984375,-0.0008697509765625
1738772337391566000,0.110566162109375,-0.5206756591796875,-0.857391357421875,-0.0008392333984375
1738772337401558000,0.12055810546875,-0.5182342529296875,-0.8573760986328125,-0.00164794921875
1738772337411549000,0.130548828125,-0.5183563232421875,-0.858642578125,-0.002899169921875
1738772337421540000,0.1405400390625,-0.5169677734375,-0.859619140625,-0.002227783203125
1738772337431531000,0.150531005859375,-0.5201873779296875,-0.85784912109375,-0.000579833984375
1738772337441522000,0.16052197265625,-0.5177154541015625,-0.8576202392578125,-0.000823974609375
1738772337451514000,0.17051416015625,-0.5215301513671875,-0.8574371337890625,-0.0014190673828125
1738772337461505000,0.180505126953125,-0.5193634033203125,-0.8573760986328125,-0.0020904541015625
1738772337471496000,0.190495849609375,-0.5206756591796875,-0.85821533203125,-0.001495361328125
1738772337481487000,0.200487060546875,-0.5196533203125,-0.8582611083984375,-0.00189208984375
1738772337491478000,0.21047802734375,-0.52203369140625,-0.8571624755859375,-0.000762939453125
1738772337501470000,0.220469970703125,-0.5217132568359375,-0.857330322265625,-0.0012359619140625
1738772337511461000,0.230461181640625,-0.5180511474609375,-0.8578948974609375,-0.0029754638671875
1738772337521452000,0.2404521484375,-0.51751708984375,-0.8577423095703125,-0.00384521484375
1738772337531443000,0.25044287109375,-0.518829345703125,-0.85760498046875,-0.0014495849609375
1738772337541433900,0.260433837890625,-0.5222930908203125,-0.8581695556640625,-0.00146484375
1738772337551425000,0.270425048828125,-0.517608642578125,-0.8584136962890625,-0.0026397705078125
1738772337561417000,0.2804169921875,-0.519012451171875,-0.857696533203125,-0.00225830078125
1738772337571408100,0.290408203125,-0.519561767578125,-0.857452392578125,-0.00177001953125
1738772337581399000,0.30039892578125,-0.5196533203125,-0.8580169677734375,-0.000579833984375
1738772337591390000,0.310389892578125,-0.5178985595703125,-0.858123779296875,-0.00152587890625
1738772337601380900,0.320380859375,-0.5205535888671875,-0.857818603515625,-0.001800537109375
1738772337611373000,0.330373046875,-0.5204620361328125,-0.857421875,-0.0018310546875
1738772337621364000,0.340364013671875,-0.519775390625,-0.85858154296875,-0.0023193359375
1738772337631355000,0.35035498046875,-0.5188140869140625,-0.85833740234375,-0.002166748046875
1738772337641346000,0.360345947265625,-0.5193634033203125,-0.856781005859375,0.00030517578125
1738772337651337000,0.3703369140625,-0.5207672119140625,-0.8562469482421875,0
1738772337661329200,0.3803291015625,-0.52020263671875,-0.858367919921875,-0.0015106201171875
1738772337671320000,0.390320068359375,-0.519561767578125,-0.857696533203125,-0.00177001953125
1738772337681311000,0.40031103515625,-0.5183258056640625,-0.8580322265625,-0.0027618408203125
1738772337691302000,0.410302001953125,-0.52020263671875,-0.85821533203125,-0.002288818359375
1738772337701293000,0.42029296875,-0.5211334228515625,-0.8587493896484375,-0.000640869140625
1738772337711285000,0.430284912109375,-0.5198974609375,-0.8583526611328125,-0.000091552734375
1738772337721276200,0.440276123046875,-0.51849365234375,-0.8594512939453125,-0.002197265625
1738772337731267000,0.45026708984375,-0.5186767578125,-0.857421875,-0.00299072265625
1738772337741258000,0.460258056640625,-0.519683837890625,-0.8577880859375,-0.001220703125
1738772337751249000,0.470248779296875,-0.521728515625,-0.8578033447265625,-0.0002288818359375
1738772337761240800,0.48024072265625,-0.5183563232421875,-0.8579254150390625,-0.0027008056640625
1738772337771232000,0.49023193359375,-0.5191650390625,-0.8591461181640625,-0.0020904541015625
1738772337781223000,0.500222900390625,-0.5200347900390625,-0.85784912109375,-0.000701904296875
1738772337791214000,0.510214111328125,-0.519744873046875,-0.857940673828125,-0.001068115234375
1738772337801205000,0.520205078125,-0.5210723876953125,-0.8564910888671875,-0.001556396484375
1738772337811196000,0.53019580078125,-0.5177001953125,-0.8573455810546875,-0.0023651123046875
1738772337821188000,0.54018798828125,-0.518646240234375,-0.8580474853515625,-0.001678466796875
1738772337831179000,0.550178955078125,-0.5191192626953125,-0.8575439453125,-0.001983642578125
1738772337841170000,0.560169921875,-0.519439697265625,-0.858245849609375,-0.0004119873046875
1738772337851161000,0.5701611328125,-0.52008056640625,-0.8577880859375,-0.002349853515625
1738772337861152000,0.580152099609375,-0.519866943359375,-0.8580474853515625,-0.00201416015625
1738772337871144000,0.59014404296875,-0.51947021484375,-0.857879638671875,-0.00201416015625
1738772337881135000,0.600135009765625,-0.519805908203125,-0.8568267822265625,-0.0013580322265625
1738772337891126000,0.6101259765625,-0.520233154296875,-0.8572998046875,-0.0018310546875
1738772337901117000,0.620116943359375,-0.518646240234375,-0.85748291015625,-0.0020599365234375
1738772337911108000,0.630108154296875,-0.5203857421875,-0.859375,-0.001617431640625
1738772337921099800,0.640099853515625,-0.5198516845703125,-0.8584442138671875,-0.0012054443359375
1738772337931091000,0.650091064453125,-0.5200653076171875,-0.8582916259765625,-0.00189208984375
1738772337941082000,0.66008203125,-0.5193023681640625,-0.857208251953125,-0.000885009765625
1738772337951073000,0.670072998046875,-0.518890380859375,-0.8574371337890625,-0.0015716552734375
1738772337961064000,0.68006396484375,-0.520355224609375,-0.8582916259765625,-0.00225830078125
1738772337971055900,0.690055908203125,-0.520843505859375,-0.857391357421875,-0.00189208984375
1738772337981047000,0.700047119140625,-0.5214385986328125,-0.8575286865234375,-0.0010833740234375
1738772337991038000,0.710037841796875,-0.5191192626953125,-0.858428955078125,-0.00299072265625
1738772338001029000,0.720029052734375,-0.5198516845703125,-0.8576812744140625,-0.0007171630859375
1738772338011020000,0.73002001953125,-0.518035888671875,-0.8582611083984375,-0.00274658203125
1738772338021011700,0.74001171875,-0.519683837890625,-0.8568115234375,-0.0005950927734375
1738772338031003000,0.7500029296875,-0.519012451171875,-0.8580474853515625,-0.00048828125
1738772338040994000,0.759994140625,-0.518707275390625,-0.8590545654296875,-0.001800537109375
1738772338050985000,0.76998486328125,-0.521392822265625,-0.85760498046875,-0.001312255859375
1738772338060976000,0.77997607421875,-0.518402099609375,-0.857696533203125,-0.00189208984375
1738772338070967800,0.7899677734375,-0.5205230712890625,-0.858917236328125,-0.002227783203125
1738772338080958700,0.799958740234375,-0.5201873779296875,-0.85784912109375,-0.0029449462890625
1738772338090950000,0.809949951171875,-0.5204010009765625,-0.8576812744140625,-0.000885009765625
1738772338100941000,0.819941162109375,-0.5206146240234375,-0.858154296875,-0.00128173828125
1738772338110932000,0.829931884765625,-0.5196380615234375,-0.859527587890625,-0.0010986328125
1738772338120923100,0.839923095703125,-0.520599365234375,-0.858642578125,-0.001220703125
1738772338130914800,0.849914794921875,-0.519927978515625,-0.8584442138671875,-0.0013580322265625
1738772338140906000,0.859906005859375,-0.5193939208984375,-0.8586273193359375,-0.0013427734375
1738772338150897200,0.869897216796875,-0.520599365234375,-0.8581390380859375,-0.002349853515625
1738772338160888000,0.87988818359375,-0.5186614990234375,-0.857696533203125,-0.0013427734375
1738772338170879000,0.88987890625,-0.520751953125,-0.8585662841796875,-0.00213623046875
1738772338180871000,0.899870849609375,-0.51959228515625,-0.857269287109375,-0.0007476806640625
1738772338190861800,0.90986181640625,-0.5181732177734375,-0.8584442138671875,-0.0003509521484375
1738772338200852700,0.919852783203125,-0.51763916015625,-0.857879638671875,-0.002166748046875
1738772338210843600,0.92984375,-0.5208282470703125,-0.858062744140625,-0.0033416748046875
1738772338220834800,0.939834716796875,-0.5194244384765625,-0.8577880859375,-0.0030975341796875
1738772338230826500,0.949826416015625,-0.5207672119140625,-0.8570098876953125,-0.0006866455078125
1738772338240817700,0.959817626953125,-0.52069091796875,-0.8572845458984375,-0.002838134765625
1738772338250808800,0.969808837890625,-0.518310546875,-0.85888671875,-0.0014495849609375
1738772338260799700,0.9797998046875,-0.5209503173828125,-0.8589019775390625,-0.0016326904296875
1738772338270790700,0.989790771484375,-0.519683837890625,-0.8580322265625,-0.0010833740234375
1738772338280782600,0.999782470703125,-0.5196533203125,-0.858306884765625,-0.000396728515625
1738772338290773500,1.0097734375,-0.5191650390625,-0.8573150634765625,-0.001434326171875
1738772338300764700,1.0197646484375,-0.51873779296875,-0.8577117919921875,-0.0023651123046875
1738772338310755800,1.029755859375,-0.5205078125,-0.858062744140625,-0.001800537109375
1738772338320746800,1.039746826171875,-0.5187530517578125,-0.85845947265625,-0.0026092529296875
1738772338330738700,1.04973876953125,-0.519805908203125,-0.8581085205078125,-0.001678466796875
1738772338340729600,1.0597294921875,-0.520751953125,-0.8594207763671875,-0.001129150390625
1738772338350720800,1.069720703125,-0.5181732177734375,-0.858245849609375,-0.0008087158203125
1738772338360711700,1.079711669921875,-0.5211334228515625,-0.85791015625,-0.0004425048828125
1738772338370702800,1.089702880859375,-0.5187530517578125,-0.8577117919921875,-0.0009765625
1738772338380694500,1.099694580078125,-0.51910400390625,-0.8570404052734375,-0.001953125
1738772338390685400,1.109685546875,-0.5206451416015625,-0.8567962646484375,-0.00146484375
1738772338400676600,1.119676513671875,-0.518890380859375,-0.857330322265625,-0.0006561279296875
1738772338410667800,1.129667724609375,-0.519195556640625,-0.857635498046875,-0.0012054443359375
1738772338420658700,1.13965869140625,-0.51959228515625,-0.85699462890625,-0.00244140625
1738772338430649900,1.14964990234375,-0.5186920166015625,-0.859222412109375,-0.002197265625
1738772338440641500,1.1596416015625,-0.5191802978515625,-0.8578643798828125,-0.0018310546875
1738772338450632400,1.169632568359375,-0.52001953125,-0.857513427734375,-0.002166748046875
1738772338460623600,1.17962353515625,-0.5186309814453125,-0.85791015625,-0.002044677734375
1738772338470614800,1.18961474609375,-0.5201568603515625,-0.8582916259765625,-0.0016021728515625
1738772338480605700,1.199605712890625,-0.519073486328125,-0.858154296875,-0.002288818359375
1738772338490597600,1.20959765625,-0.5195159912109375,-0.8580169677734375,-0.0024261474609375
1738772338500588500,1.219588623046875,-0.5197601318359375,-0.85784912109375,-0.0020904541015625
1738772338510579700,1.229579833984375,-0.52001953125,-0.8587646484375,-0.001617431640625
1738772338520571000,1.23957080078125,-0.519683837890625,-0.8583984375,-0.0015106201171875
1738772338530561800,1.249561767578125,-0.5187835693359375,-0.8575897216796875,-0.0020751953125
1738772338540553500,1.259553466796875,-0.521209716796875,-0.8575897216796875,-0.001434326171875
1738772338550544600,1.269544677734375,-0.51763916015625,-0.857696533203125,-0.0016021728515625
1738772338560535600,1.27953564453125,-0.521270751953125,-0.8590087890625,-0.002410888671875
1738772338570526700,1.289526611328125,-0.5189666748046875,-0.8584136962890625,-0.002197265625
1738772338580518000,1.299517822265625,-0.518768310546875,-0.8582611083984375,-0.0010833740234375
1738772338590509600,1.309509521484375,-0.5196075439453125,-0.856842041015625,-0.00146484375
1738772338600500500,1.31950048828125,-0.51849365234375,-0.8564605712890625,-0.002716064453125
1738772338610491600,1.32949169921875,-0.5200347900390625,-0.85894775390625,-0.0012664794921875
1738772338620482600,1.339482666015625,-0.5192108154296875,-0.8572845458984375,-0.0023651123046875
1738772338630473700,1.3494736328125,-0.520660400390625,-0.857818603515625,-0.001678466796875
1738772338640465000,1.35946484375,-0.5190582275390625,-0.85772705078125,-0.0026092529296875
1738772338650456600,1.36945654296875,-0.5198822021484375,-0.857940673828125,-0.002532958984375
1738772338660447500,1.379447509765625,-0.520172119140625,-0.8570709228515625,-0.001556396484375
1738772338670438700,1.389438720703125,-0.5198516845703125,-0.8577728271484375,-0.0001983642578125
1738772338680429800,1.399429931640625,-0.518646240234375,-0.8574981689453125,-0.0014801025390625
1738772338690420700,1.409420654296875,-0.517974853515625,-0.8568267822265625,-0.001678466796875
1738772338700412700,1.41941259765625,-0.520294189453125,-0.8575897216796875,-0.0023956298828125
1738772338710403600,1.429403564453125,-0.520263671875,-0.8573150634765625,-0.0014801025390625
1738772338720394500,1.43939453125,-0.519134521484375,-0.85845947265625,-0.0012969970703125
1738772338730385700,1.4493857421875,-0.52056884765625,-0.858917236328125,-0.0016632080078125
1738772338740376800,1.459376953125,-0.5195159912109375,-0.85882568359375,-0.0024871826171875
1738772338750368500,1.469368408203125,-0.519256591796875,-0.859344482421875,-0.001495361328125
1738772338760359700,1.479359619140625,-0.5207672119140625,-0.8576507568359375,-0.0015716552734375
1738772338770350600,1.4893505859375,-0.5183258056640625,-0.8572540283203125,-0.002227783203125
1738772338780341500,1.499341552734375,-0.5191497802734375,-0.8576507568359375,-0.0020294189453125
1738772338790332700,1.509332763671875,-0.5195770263671875,-0.8590240478515625,-0.002105712890625
1738772338800324600,1.51932470703125,-0.5200653076171875,-0.8579254150390625,-0.0011444091796875
1738772338810315500,1.5293154296875,-0.5209808349609375,-0.8571014404296875,-0.0017242431640625
1738772338820306700,1.539306640625,-0.516815185546875,-0.8578948974609375,-0.003448486328125
1738772338830297600,1.549297607421875,-0.52032470703125,-0.858001708984375,-0.000762939453125
1738772338840288500,1.55928857421875,-0.522369384765625,-0.8579559326171875,-0.0023956298828125
1738772338850279700,1.56927978515625,-0.5152587890625,-0.858367919921875,-0.0006561279296875
1738772338860271600,1.579271728515625,-0.5245513916015625,-0.8563232421875,-0.0016326904296875
1738772338870262500,1.589262451171875,-0.5149993896484375,-0.8564300537109375,-0.0018310546875
1738772338880253700,1.599253662109375,-0.5230560302734375,-0.8575439453125,-0.001617431640625
1738772338890244600,1.60924462890625,-0.5185699462890625,-0.8585357666015625,-0.002197265625
1738772338900235800,1.61923583984375,-0.51806640625,-0.8576812744140625,-0.0010223388671875
1738772338910227700,1.629227783203125,-0.52386474609375,-0.85772705078125,0.0000457763671875
1738772338920218600,1.639218505859375,-0.51611328125,-0.8576507568359375,-0.001312255859375
1738772338930209500,1.64920947265625,-0.520782470703125,-0.8585968017578125,-0.00250244140625
1738772338940200400,1.659200439453125,-0.519927978515625,-0.857421875,-0.001953125
1738772338950191600,1.669191650390625,-0.5212249755859375,-0.8579254150390625,-0.002716064453125
1738772338960183600,1.67918359375,-0.5195159912109375,-0.858734130859375,-0.0017852783203125
1738772338970174700,1.6891748046875,-0.5206298828125,-0.8573760986328125,-0.00225830078125
1738772338980165600,1.69916552734375,-0.51959228515625,-0.85858154296875,-0.00299072265625
1738772338990156500,1.709156494140625,-0.5185546875,-0.8582763671875,-0.0008697509765625
1738772339000147500,1.7191474609375,-0.52008056640625,-0.8582000732421875,-0.0019683837890625
1738772339010138600,1.729138671875,-0.518310546875,-0.8581085205078125,-0.0010528564453125
1738772339020130600,1.739130615234375,-0.519561767578125,-0.857391357421875,-0.001800537109375
1738772339030121500,1.74912158203125,-0.5189361572265625,-0.858612060546875,-0.0015869140625
1738772339040112600,1.759112548828125,-0.521575927734375,-0.8572998046875,0.0008392333984375
1738772339050103600,1.769103515625,-0.5190887451171875,-0.858367919921875,-0.00262451171875
1738772339060094700,1.7790947265625,-0.51800537109375,-0.8591766357421875,-0.0031280517578125
1738772339070086700,1.789086669921875,-0.52313232421875,-0.8572998046875,0.0000762939453125
1738772339080077600,1.79907763671875,-0.517425537109375,-0.8580322265625,-0.0012664794921875
1738772339090068500,1.809068359375,-0.518951416015625,-0.8574676513671875,-0.0029296875
1738772339100059600,1.8190595703125,-0.5198211669921875,-0.85931396484375,-0.003204345703125
1738772339110050600,1.829050537109375,-0.520751953125,-0.8583221435546875,-0.001220703125
1738772339120042500,1.83904248046875,-0.5224456787109375,-0.8564453125,-0.0013580322265625
1738772339130033700,1.84903369140625,-0.517303466796875,-0.85833740234375,-0.0017242431640625
1738772339140024600,1.859024658203125,-0.5207672119140625,-0.857879638671875,-0.0032958984375
1738772339150015500,1.869015380859375,-0.5201263427734375,-0.8580474853515625,-0.0012359619140625
1738772339160006700,1.879006591796875,-0.52001953125,-0.8585357666015625,0.0000152587890625
1738772339169997600,1.88899755859375,-0.520721435546875,-0.8579254150390625,-0.001129150390625
1738772339179989500,1.898989501953125,-0.519378662109375,-0.8580169677734375,-0.0019683837890625
1738772339189980700,1.908980712890625,-0.518951416015625,-0.8584747314453125,-0.001800537109375
1738772339199971300,1.918971435546875,-0.5196075439453125,-0.8572540283203125,-0.00244140625
1738772339209962500,1.92896240234375,-0.519775390625,-0.8559112548828125,-0.00274658203125
1738772339219953700,1.93895361328125,-0.5196685791015625,-0.85858154296875,-0.00079345703125
1738772339229945600,1.948945556640625,-0.51947021484375,-0.858978271484375,-0.0018310546875
1738772339239936500,1.9589365234375,-0.519866943359375,-0.85821533203125,-0.001708984375
1738772339249927400,1.968927490234375,-0.51922607421875,-0.8581390380859375,-0.0018310546875
1738772339259918300,1.97891845703125,-0.5191802978515625,-0.857421875,-0.001434326171875
1738772339269909500,1.988909423828125,-0.520416259765625,-0.857818603515625,0.0000762939453125
1738772339279901400,1.9989013671875,-0.5189056396484375,-0.85797119140625,-0.001617431640625
1738772339289892400,2.008892333984375,-0.5184173583984375,-0.8578948974609375,-0.003265380859375
1738772339299883500,2.018883544921875,-0.5223541259765625,-0.8579559326171875,-0.002288818359375
1738772339309874400,2.02887451171875,-0.5184783935546875,-0.856903076171875,-0.0021820068359375
1738772339319865300,2.038865234375,-0.519866943359375,-0.85833740234375,-0.0030517578125
1738772339329856500,2.0488564453125,-0.5178985595703125,-0.8575897216796875,-0.00140380859375
1738772339339848400,2.058848388671875,-0.5194854736328125,-0.85675048828125,-0.0022735595703125
1738772339349839400,2.06883935546875,-0.5196990966796875,-0.858001708984375,-0.001800537109375
1738772339359830500,2.07883056640625,-0.5196075439453125,-0.8576507568359375,-0.0020751953125
1738772339369821400,2.088821533203125,-0.51922607421875,-0.857696533203125,-0.0019378662109375
1738772339379812400,2.098812255859375,-0.5188751220703125,-0.8583831787109375,-0.001373291015625
1738772339389804500,2.108804443359375,-0.5188446044921875,-0.857391357421875,-0.00189208984375
1738772339399795500,2.11879541015625,-0.5199127197265625,-0.8572998046875,-0.0012359619140625
1738772339409786400,2.128786376953125,-0.52117919921875,-0.8578338623046875,-0.0016326904296875
1738772339419777500,2.138777587890625,-0.5196685791015625,-0.8587188720703125,-0.0020599365234375
1738772339429768400,2.1487685546875,-0.520111083984375,-0.8576507568359375,-0.000885009765625
1738772339439759600,2.158759521484375,-0.5196533203125,-0.85711669921875,-0.0017547607421875
1738772339449751600,2.16875146484375,-0.52117919921875,-0.8575286865234375,-0.0025177001953125
1738772339459742500,2.178742431640625,-0.5183258056640625,-0.8582305908203125,-0.0013580322265625
1738772339469733400,2.1887333984375,-0.5189971923828125,-0.857635498046875,-0.0020751953125
1738772339479724500,2.198724609375,-0.5198822021484375,-0.857025146484375,-0.00213623046875
1738772339489715500,2.208715576171875,-0.5200347900390625,-0.8592376708984375,-0.001861572265625
1738772339499707400,2.218707275390625,-0.5214691162109375,-0.857696533203125,-0.0009918212890625
1738772339509698600,2.228698486328125,-0.5197601318359375,-0.857696533203125,-0.00048828125
1738772339519689500,2.238689453125,-0.521148681640625,-0.85797119140625,-0.0016326904296875
1738772339529680400,2.248680419921875,-0.52093505859375,-0.8578033447265625,-0.0024871826171875
1738772339539671600,2.258671630859375,-0.5177154541015625,-0.857818603515625,-0.00201416015625
1738772339549662500,2.268662353515625,-0.520904541015625,-0.85760498046875,-0.0009307861328125
1738772339559654400,2.278654296875,-0.5181884765625,-0.857940673828125,-0.0016632080078125
1738772339569645600,2.2886455078125,-0.520416259765625,-0.8576812744140625,-0.00238037109375
1738772339579636500,2.298636474609375,-0.5202484130859375,-0.8585662841796875,-0.000823974609375
1738772339589627400,2.30862744140625,-0.5206451416015625,-0.858123779296875,-0.001373291015625
1738772339599618600,2.31861865234375,-0.5196990966796875,-0.8573760986328125,-0.0021514892578125
1738772339609610500,2.328610595703125,-0.5211334228515625,-0.8575286865234375,-0.003021240234375
1738772339619601400,2.338601318359375,-0.5205535888671875,-0.857177734375,-0.0014801025390625
1738772339629592600,2.348592529296875,-0.518951416015625,-0.858489990234375,-0.001312255859375
1738772339639583500,2.35858349609375,-0.5191650390625,-0.857666015625,-0.000946044921875
1738772339649574400,2.368574462890625,-0.5198822021484375,-0.8564300537109375,-0.0025634765625
1738772339659566600,2.378566650390625,-0.519317626953125,-0.85760498046875,-0.001068115234375
1738772339669557500,2.3885576171875,-0.52099609375,-0.8589324951171875,-0.001312255859375
1738772339679548400,2.39854833984375,-0.5184326171875,-0.8590850830078125,-0.000396728515625
1738772339689539300,2.408539306640625,-0.520355224609375,-0.857757568359375,-0.001434326171875
1738772339699530500,2.418530517578125,-0.5182952880859375,-0.8586273193359375,-0.0027313232421875
1738772339709521400,2.428521484375,-0.5191650390625,-0.8583221435546875,-0.0013275146484375
1738772339719513600,2.438513671875,-0.52056884765625,-0.8572845458984375,-0.001068115234375
1738772339729504500,2.44850439453125,-0.5208892822265625,-0.857940673828125,-0.0013427734375
1738772339739495400,2.458495361328125,-0.519989013671875,-0.8579864501953125,-0.0019683837890625
1738772339749486300,2.468486328125,-0.5198974609375,-0.8575592041015625,-0.00152587890625
1738772339759477500,2.4784775390625,-0.5212860107421875,-0.858428955078125,-0.0012969970703125
1738772339769469400,2.488469482421875,-0.5189056396484375,-0.8578643798828125,-0.001953125
1738772339779460600,2.498460693359375,-0.5211334228515625,-0.85791015625,-0.001708984375
1738772339789451500,2.508451416015625,-0.520263671875,-0.8581085205078125,-0.0020599365234375
1738772339799442400,2.5184423828125,-0.5222625732421875,-0.858306884765625,-0.00091552734375
1738772339809433300,2.528433349609375,-0.520965576171875,-0.856781005859375,-0.0016937255859375
1738772339819424500,2.538424560546875,-0.5185546875,-0.8567352294921875,-0.002593994140625
1738772339829416400,2.54841650390625,-0.5211181640625,-0.8563385009765625,-0.001190185546875
1738772339839407400,2.558407470703125,-0.518798828125,-0.8565673828125,-0.0021209716796875
1738772339849398500,2.5683984375,-0.5178680419921875,-0.8573760986328125,-0.0008087158203125
1738772339859389400,2.578389404296875,-0.5224609375,-0.8561248779296875,-0.0020751953125
1738772339869380400,2.58838037109375,-0.51605224609375,-0.857879638671875,-0.0004730224609375
1738772339879372500,2.59837255859375,-0.52069091796875,-0.8586883544921875,-0.0006256103515625
1738772339889363500,2.608363525390625,-0.5199737548828125,-0.8580169677734375,-0.0019683837890625
1738772339899354400,2.618354248046875,-0.519683837890625,-0.8573455810546875,-0.001953125
1738772339909345500,2.628345458984375,-0.5198211669921875,-0.8589019775390625,-0.0015869140625
1738772339919336400,2.63833642578125,-0.518829345703125,-0.85919189453125,-0.0012359619140625
1738772339929328400,2.648328369140625,-0.5204925537109375,-0.8566741943359375,-0.001556396484375
1738772339939319600,2.658319580078125,-0.5193939208984375,-0.8577728271484375,-0.000213623046875
1738772339949310500,2.668310546875,-0.5201568603515625,-0.8590240478515625,-0.0001983642578125
1738772339959301400,2.67830126953125,-0.5206298828125,-0.8575897216796875,-0.0017242431640625
1738772339969292500,2.68829248046875,-0.5182037353515625,-0.8570556640625,-0.0026702880859375
1738772339979283500,2.698283447265625,-0.5208740234375,-0.85809326171875,-0.001373291015625
1738772339989275400,2.708275390625,-0.5205535888671875,-0.857025146484375,-0.0008087158203125
1738772339999266600,2.7182666015625,-0.5194854736328125,-0.857452392578125,-0.001251220703125
1738772340009257500,2.728257568359375,-0.5196990966796875,-0.8580474853515625,-0.002288818359375
1738772340019248400,2.738248291015625,-0.520172119140625,-0.85894775390625,-0.0014495849609375
1738772340029239600,2.748239501953125,-0.51922607421875,-0.8562164306640625,-0.0027618408203125
1738772340039231500,2.7582314453125,-0.5185699462890625,-0.8578338623046875,-0.0018463134765625
1738772340049222400,2.768222412109375,-0.5203094482421875,-0.8574981689453125,-0.000457763671875
1738772340059213600,2.778213623046875,-0.519805908203125,-0.859161376953125,-0.000946044921875
1738772340069204500,2.78820458984375,-0.5173797607421875,-0.86090087890625,0.001861572265625
1738772340079195400,2.7981953125,-0.5261993408203125,-0.8563385009765625,0.0003509521484375
1738772340089186600,2.8081865234375,-0.5115814208984375,-0.856292724609375,-0.006103515625
1738772340099178500,2.818178466796875,-0.5200347900390625,-0.8585205078125,-0.0040740966796875
1738772340109169400,2.82816943359375,-0.524993896484375,-0.8585357666015625,0.0006256103515625
1738772340119160600,2.83816064453125,-0.5194854736328125,-0.85687255859375,0.001953125
1738772340129151500,2.8481513671875,-0.5221099853515625,-0.8575897216796875,-0.0033111572265625
1738772340139142400,2.858142333984375,-0.511962890625,-0.85943603515625,-0.0039215087890625
1738772340149134600,2.868134521484375,-0.524993896484375,-0.8589630126953125,-0.002838134765625
1738772340159125500,2.87812548828125,-0.5182952880859375,-0.8575592041015625,-0.001312255859375
1738772340169116400,2.888116455078125,-0.5194549560546875,-0.858734130859375,-0.0011138916015625
1738772340179107600,2.898107666015625,-0.52191162109375,-0.858673095703125,0.0005645751953125
1738772340189098500,2.908098388671875,-0.5198516845703125,-0.8583221435546875,-0.00146484375
1738772340199090000,2.91808984375,-0.516876220703125,-0.859130859375,-0.0027313232421875
1738772340209080800,2.928080810546875,-0.5204315185546875,-0.85870361328125,0.00067138671875
1738772340219072000,2.938072021484375,-0.520294189453125,-0.858612060546875,-0.001007080078125
1738772340229063000,2.94806298828125,-0.5196685791015625,-0.857147216796875,-0.0041351318359375
1738772340239054000,2.95805419921875,-0.5189971923828125,-0.8583984375,-0.0014801025390625
1738772340249045200,2.968045166015625,-0.519256591796875,-0.8578033447265625,0.000244140625
1738772340259037000,2.978036865234375,-0.51885986328125,-0.8563232421875,-0.0022735595703125
1738772340269027800,2.98802783203125,-0.5206298828125,-0.8567352294921875,-0.0033111572265625
1738772340279019000,2.99801904296875,-0.51800537109375,-0.8581695556640625,0.0009613037109375
1738772340289010000,3.008010009765625,-0.5257415771484375,-0.8565673828125,0.0007781982421875
1738772340299001000,3.0180009765625,-0.5147857666015625,-0.8576202392578125,-0.0034332275390625
1738772340308993000,3.027992919921875,-0.52001953125,-0.8582305908203125,-0.002288818359375
1738772340318984000,3.03798388671875,-0.521209716796875,-0.858062744140625,-0.0019989013671875
1738772340328974800,3.047974853515625,-0.5196685791015625,-0.85784912109375,-0.0027313232421875
1738772340338966000,3.057966064453125,-0.5187225341796875,-0.8577117919921875,-0.0000457763671875
1738772340348957200,3.067957275390625,-0.5171051025390625,-0.8586883544921875,-0.000396728515625
1738772340358948000,3.077947998046875,-0.5248565673828125,-0.8589019775390625,-0.002532958984375
1738772340368940000,3.08793994140625,-0.517791748046875,-0.85888671875,-0.0035858154296875
1738772340378931000,3.097930908203125,-0.517913818359375,-0.858551025390625,-0.0017852783203125
1738772340388921900,3.107921875,-0.519989013671875,-0.8572540283203125,-0.0009765625
1738772340398913000,3.1179130859375,-0.521240234375,-0.858734130859375,-0.0022125244140625
1738772340408904200,3.127904296875,-0.5190582275390625,-0.8583221435546875,-0.002593994140625
1738772340418896000,3.137895751953125,-0.5176239013671875,-0.8579864501953125,-0.001953125
1738772340428887000,3.147886962890625,-0.520172119140625,-0.858917236328125,-0.0009765625
1738772340438878000,3.1578779296875,-0.5207366943359375,-0.8579559326171875,-0.00146484375
1738772340448868900,3.167868896484375,-0.5202484130859375,-0.8565521240234375,-0.0007781982421875
1738772340458860000,3.177860107421875,-0.518707275390625,-0.8586883544921875,-0.0015716552734375
1738772340468851200,3.187851318359375,-0.518890380859375,-0.8572235107421875,-0.0030364990234375
1738772340478843000,3.1978427734375,-0.5203704833984375,-0.8574676513671875,-0.0010528564453125
1738772340488834000,3.207833984375,-0.5194854736328125,-0.8580474853515625,-0.0004425048828125
1738772340498825000,3.217824951171875,-0.5195465087890625,-0.8574676513671875,-0.0013885498046875
1738772340508816100,3.227816162109375,-0.5210723876953125,-0.858184814453125,-0.0018463134765625
1738772340518807000,3.23780712890625,-0.5195159912109375,-0.8582916259765625,-0.00079345703125
1738772340528799000,3.247799072265625,-0.5198822021484375,-0.85870361328125,-0.00238037109375
1738772340538790000,3.257789794921875,-0.5191192626953125,-0.85760498046875,-0.001434326171875
1738772340548781000,3.267781005859375,-0.5192413330078125,-0.8574981689453125,-0.0020904541015625
1738772340558772000,3.27777197265625,-0.519134521484375,-0.8570404052734375,-0.0013427734375
1738772340568763100,3.28776318359375,-0.5200653076171875,-0.8572235107421875,0.0000762939453125
1738772340578754000,3.297754150390625,-0.5187530517578125,-0.857757568359375,-0.0025482177734375
1738772340588746000,3.30774609375,-0.5210723876953125,-0.8579254150390625,-0.001495361328125
1738772340598737000,3.31773681640625,-0.5188751220703125,-0.8580780029296875,-0.001312255859375
1738772340608727800,3.327727783203125,-0.51861572265625,-0.8569183349609375,-0.0008544921875
1738772340618719000,3.337718994140625,-0.52099609375,-0.8571319580078125,-0.0014495849609375
1738772340628710100,3.347710205078125,-0.5174560546875,-0.8567047119140625,-0.0017547607421875
1738772340638702000,3.3577021484375,-0.520599365234375,-0.8575439453125,-0.0013580322265625
1738772340648693000,3.36769287109375,-0.520294189453125,-0.858489990234375,-0.0008087158203125
1738772340658684000,3.377683837890625,-0.5180206298828125,-0.858367919921875,-0.0010986328125
1738772340668675000,3.387675048828125,-0.5204620361328125,-0.8576812744140625,-0.001953125
1738772340678666200,3.397666259765625,-0.521453857421875,-0.858642578125,-0.0006866455078125
1738772340688657200,3.4076572265625,-0.5186309814453125,-0.8576202392578125,-0.0015869140625
1738772340698649000,3.417649169921875,-0.5187530517578125,-0.858367919921875,-0.001983642578125
1738772340708640000,3.427639892578125,-0.5194549560546875,-0.8590240478515625,-0.0013885498046875
1738772340718631000,3.437630859375,-0.5198822021484375,-0.857635498046875,-0.001190185546875
1738772340728622000,3.4476220703125,-0.5194244384765625,-0.8582763671875,-0.0012969970703125
1738772340738613200,3.45761328125,-0.5177459716796875,-0.85809326171875,-0.0019683837890625
1738772340748605000,3.46760498046875,-0.5207366943359375,-0.8582763671875,-0.00146484375
1738772340758595800,3.477595947265625,-0.522064208984375,-0.8585968017578125,-0.0009002685546875
1738772340768587000,3.4875869140625,-0.5192413330078125,-0.857208251953125,-0.0014495849609375
1738772340778578000,3.497577880859375,-0.51904296875,-0.8575439453125,-0.0015869140625
1738772340788569000,3.507569091796875,-0.5202484130859375,-0.8578643798828125,-0.001007080078125
1738772340798561000,3.51756103515625,-0.5198822021484375,-0.857666015625,-0.0028533935546875
1738772340808552000,3.527552001953125,-0.519561767578125,-0.8582763671875,-0.0014495849609375
1738772340818542800,3.53754296875,-0.5197296142578125,-0.8568878173828125,-0.0002899169921875
1738772340828534000,3.547533935546875,-0.51983642578125,-0.8580322265625,-0.0021514892578125
1738772340838525200,3.557525146484375,-0.52001953125,-0.8581695556640625,-0.002288818359375
1738772340848516000,3.56751611328125,-0.5197906494140625,-0.8587493896484375,-0.002105712890625
1738772340858508000,3.577508056640625,-0.5198211669921875,-0.8577423095703125,-0.0014801025390625
1738772340868499000,3.5874990234375,-0.519744873046875,-0.857879638671875,-0.0008087158203125
1738772340878489900,3.59748974609375,-0.5196685791015625,-0.8576202392578125,-0.0009765625
1738772340888481000,3.60748095703125,-0.51898193359375,-0.8578338623046875,-0.0019683837890625
1738772340898472200,3.61747216796875,-0.51885986328125,-0.857696533203125,-0.0008392333984375
1738772340908463900,3.6274638671875,-0.5198822021484375,-0.8569183349609375,-0.0003814697265625
1738772340918455000,3.637455078125,-0.5202178955078125,-0.8584442138671875,-0.0009765625
1738772340928446000,3.647446044921875,-0.5201568603515625,-0.8569488525390625,-0.0024261474609375
1738772340938436900,3.657436767578125,-0.5177764892578125,-0.858489990234375,-0.000946044921875
1738772340948428000,3.667427978515625,-0.5213470458984375,-0.856964111328125,-0.000518798828125
1738772340958419200,3.677419189453125,-0.5178070068359375,-0.858978271484375,-0.000701904296875
1738772340968411000,3.687410888671875,-0.5193939208984375,-0.8579559326171875,-0.0017547607421875
1738772340978402000,3.697402099609375,-0.5204010009765625,-0.8580474853515625,-0.001739501953125
1738772340988393000,3.70739306640625,-0.51873779296875,-0.8578948974609375,-0.0015716552734375
1738772340998383900,3.7173837890625,-0.5200653076171875,-0.8574981689453125,-0.0001373291015625
1738772341008375000,3.727375,-0.5206146240234375,-0.8572235107421875,0.000274658203125
1738772341018367000,3.737366943359375,-0.5189361572265625,-0.857757568359375,-0.0010223388671875
1738772341028358000,3.74735791015625,-0.5196533203125,-0.8573760986328125,-0.0003662109375
1738772341038349000,3.75734912109375,-0.521240234375,-0.8581390380859375,-0.000518798828125
1738772341048340000,3.767340087890625,-0.5188140869140625,-0.859039306640625,-0.0011444091796875
1738772341058331100,3.7773310546875,-0.521484375,-0.8581390380859375,-0.0015411376953125
1738772341068322000,3.787322021484375,-0.519439697265625,-0.8575439453125,-0.0010223388671875
1738772341078314000,3.79731396484375,-0.517913818359375,-0.8581695556640625,-0.001861572265625
1738772341088305000,3.807304931640625,-0.5208587646484375,-0.857818603515625,-0.0001678466796875
1738772341098296000,3.817296142578125,-0.518768310546875,-0.857421875,-0.0022125244140625
1738772341108287000,3.827286865234375,-0.5188751220703125,-0.8586578369140625,-0.0006866455078125
1738772341118278100,3.837278076171875,-0.5196990966796875,-0.858367919921875,-0.001556396484375
1738772341128270000,3.84727001953125,-0.5182952880859375,-0.8574066162109375,-0.0014190673828125
1738772341138261000,3.857260986328125,-0.5201263427734375,-0.857635498046875,-0.001739501953125
1738772341148252000,3.867251953125,-0.5198516845703125,-0.8578643798828125,-0.00189208984375
1738772341158242800,3.877242919921875,-0.51806640625,-0.8581085205078125,-0.0014495849609375
1738772341168234000,3.88723388671875,-0.5186767578125,-0.8578338623046875,-0.0009613037109375
1738772341178225200,3.89722509765625,-0.5203704833984375,-0.85791015625,-0.0011749267578125
1738772341188217000,3.907217041015625,-0.5207977294921875,-0.8578033447265625,-0.001800537109375
1738772341198208300,3.917208251953125,-0.5189056396484375,-0.858123779296875,0.000152587890625
1738772341208199400,3.927199462890625,-0.5190582275390625,-0.8577423095703125,-0.00006103515625
1738772341218190300,3.9371904296875,-0.520050048828125,-0.857574462890625,-0.0005950927734375
1738772341228182300,3.947182373046875,-0.5188140869140625,-0.8582000732421875,-0.0020904541015625
1738772341238173400,3.95717333984375,-0.5193328857421875,-0.85711669921875,-0.0015869140625
1738772341248164400,3.967164306640625,-0.5207672119140625,-0.857421875,-0.0014190673828125
1738772341258155300,3.9771552734375,-0.520050048828125,-0.8574371337890625,-0.0011138916015625
1738772341268146400,3.987146484375,-0.5200653076171875,-0.858428955078125,-0.00177001953125
1738772341278138400,3.997138427734375,-0.51971435546875,-0.857269287109375,-0.0005950927734375
1738772341288129300,4.00712939453125,-0.5201873779296875,-0.85723876953125,-0.00030517578125
1738772341298120400,4.017120361328125,-0.5193634033203125,-0.8584442138671875,-0.00189208984375
1738772341308111400,4.027111328125,-0.5200042724609375,-0.858184814453125,-0.0013580322265625
1738772341318102300,4.037102294921875,-0.5202484130859375,-0.857421875,-0.00189208984375
1738772341328094500,4.047094482421875,-0.5202789306640625,-0.8578338623046875,-0.001739501953125
1738772341338085400,4.05708544921875,-0.519256591796875,-0.8570709228515625,-0.0008544921875
1738772341348076300,4.067076171875,-0.520233154296875,-0.8573760986328125,-0.0005340576171875
1738772341358067500,4.0770673828125,-0.521148681640625,-0.8571624755859375,-0.00128173828125
1738772341368058400,4.087058349609375,-0.518798828125,-0.8571929931640625,-0.0013275146484375
1738772341378049300,4.09704931640625,-0.5205841064453125,-0.8583526611328125,-0.001953125
1738772341388041500,4.10704150390625,-0.5186767578125,-0.8582763671875,-0.0027313232421875
1738772341398032400,4.117032470703125,-0.52142333984375,-0.857330322265625,-0.0024261474609375
1738772341408023300,4.127023193359375,-0.51953125,-0.8580474853515625,-0.0016326904296875
1738772341418014500,4.137014404296875,-0.5188751220703125,-0.8578948974609375,-0.002471923828125
1738772341428005400,4.14700537109375,-0.520111083984375,-0.857421875,-0.001495361328125
1738772341437997300,4.156997314453125,-0.518218994140625,-0.8563079833984375,-0.00079345703125
1738772341447988500,4.166988525390625,-0.5197296142578125,-0.8584747314453125,-0.001068115234375
1738772341457979400,4.1769794921875,-0.5191802978515625,-0.857818603515625,-0.00146484375
1738772341467970300,4.18697021484375,-0.52142333984375,-0.8583984375,-0.00115966796875
1738772341477961500,4.19696142578125,-0.519805908203125,-0.8575439453125,-0.0013580322265625
1738772341487952400,4.206952392578125,-0.52069091796875,-0.857330322265625,-0.001983642578125
1738772341497944300,4.2169443359375,-0.5210723876953125,-0.857269287109375,-0.0012054443359375
1738772341507935500,4.226935546875,-0.5204010009765625,-0.856536865234375,-0.0005340576171875
1738772341517926400,4.236926513671875,-0.51873779296875,-0.858428955078125,-0.0019073486328125
1738772341527917300,4.246917236328125,-0.519561767578125,-0.857635498046875,-0.000701904296875
1738772341537908200,4.256908203125,-0.5205841064453125,-0.85760498046875,-0.0019378662109375
1738772341547900400,4.266900390625,-0.5179595947265625,-0.857696533203125,-0.0018768310546875
1738772341557891300,4.276891357421875,-0.5215301513671875,-0.8585357666015625,-0.0008544921875
1738772341567882500,4.286882568359375,-0.51812744140625,-0.858795166015625,-0.0021820068359375
1738772341577873400,4.296873291015625,-0.5187530517578125,-0.85870361328125,-0.0000762939453125
1738772341587864300,4.3068642578125,-0.5213623046875,-0.8580322265625,0.0005340576171875
1738772341597855200,4.316855224609375,-0.5184173583984375,-0.858551025390625,-0.002044677734375
1738772341607846400,4.326846435546875,-0.520111083984375,-0.8584747314453125,-0.000762939453125
1738772341617838300,4.33683837890625,-0.5199432373046875,-0.8580474853515625,0.00048828125
1738772341627829200,4.346829345703125,-0.5193023681640625,-0.857574462890625,-0.0013580322265625
1738772341637820400,4.3568203125,-0.520233154296875,-0.8578033447265625,-0.000518798828125
1738772341647811300,4.366811279296875,-0.5217437744140625,-0.85662841796875,-0.00042724609375
1738772341657802200,4.37680224609375,-0.517364501953125,-0.8582611083984375,-0.0026092529296875
1738772341667793400,4.38679345703125,-0.5201263427734375,-0.8565216064453125,-0.00189208984375
1738772341677785300,4.396785400390625,-0.51904296875,-0.8572235107421875,-0.0009002685546875
1738772341687776300,4.4067763671875,-0.521759033203125,-0.858551025390625,0.0007476806640625
1738772341697767400,4.416767333984375,-0.5193328857421875,-0.8587799072265625,-0.0005645751953125
1738772341707758300,4.42675830078125,-0.516265869140625,-0.8580169677734375,-0.0050048828125
1738772341717749200,4.436749267578125,-0.52008056640625,-0.8580780029296875,-0.000030517578125
1738772341727741400,4.446741455078125,-0.523040771484375,-0.8571624755859375,0.0009613037109375
1738772341737732400,4.456732421875,-0.5172119140625,-0.8579559326171875,-0.0001983642578125
1738772341747723300,4.46672314453125,-0.520477294921875,-0.8581695556640625,-0.0011444091796875
1738772341757714400,4.47671435546875,-0.5193328857421875,-0.8571319580078125,-0.0009918212890625
1738772341767705300,4.486705322265625,-0.5189208984375,-0.858673095703125,-0.0033111572265625
1738772341777697300,4.496697265625,-0.52008056640625,-0.859222412109375,0.000579833984375
1738772341787688400,4.5066884765625,-0.52081298828125,-0.8574371337890625,-0.001068115234375
1738772341797679400,4.516679443359375,-0.5200042724609375,-0.85772705078125,-0.0019378662109375
1738772341807670300,4.526670166015625,-0.519500732421875,-0.8581390380859375,-0.001708984375
1738772341817661400,4.536661376953125,-0.5183258056640625,-0.85760498046875,-0.001708984375
1738772341827652400,4.54665234375,-0.5190887451171875,-0.859100341796875,-0.0004119873046875
1738772341837644300,4.556644287109375,-0.5217742919921875,-0.8575592041015625,-0.0000762939453125
1738772341847635500,4.566635498046875,-0.5189361572265625,-0.8574371337890625,-0.0014495849609375
1738772341857626400,4.57662646484375,-0.5200042724609375,-0.858428955078125,-0.0019683837890625
1738772341867617300,4.5866171875,-0.5199737548828125,-0.85821533203125,-0.00140380859375
1738772341877608400,4.5966083984375,-0.51837158203125,-0.858184814453125,-0.0007476806640625
1738772341887600400,4.606600341796875,-0.521209716796875,-0.857269287109375,-0.00091552734375
1738772341897591300,4.61659130859375,-0.518798828125,-0.8582000732421875,-0.0013275146484375
1738772341907582500,4.62658251953125,-0.516510009765625,-0.8583984375,-0.001007080078125
1738772341917573400,4.636573486328125,-0.5205078125,-0.85784912109375,-0.00213623046875
1738772341927564300,4.646564208984375,-0.5189056396484375,-0.8579254150390625,-0.002899169921875
1738772341937556500,4.656556396484375,-0.5203094482421875,-0.857452392578125,-0.0016937255859375
1738772341947547400,4.66654736328125,-0.5209503173828125,-0.8588104248046875,-0.0018310546875
1738772341957538300,4.676538330078125,-0.51812744140625,-0.8577423095703125,-0.0005035400390625
1738772341967529500,4.686529541015625,-0.52001953125,-0.8580474853515625,-0.0018157958984375
1738772341977520400,4.696520263671875,-0.518951416015625,-0.8586273193359375,-0.0009613037109375
1738772341987512300,4.70651220703125,-0.519287109375,-0.85833740234375,-0.00128173828125
1738772341997503500,4.71650341796875,-0.5198211669921875,-0.858856201171875,-0.0014801025390625
1738772342007494400,4.726494384765625,-0.5181732177734375,-0.859283447265625,-0.002044677734375
1738772342017485300,4.7364853515625,-0.5195465087890625,-0.8581390380859375,-0.00091552734375
1738772342027476200,4.746476318359375,-0.5218048095703125,-0.85748291015625,-0.0007171630859375
1738772342037467400,4.75646728515625,-0.519775390625,-0.8574981689453125,-0.0019683837890625
1738772342047459300,4.766459228515625,-0.51898193359375,-0.858367919921875,-0.002532958984375
1738772342057450500,4.776450439453125,-0.5187530517578125,-0.858367919921875,-0.0009918212890625
1738772342067441400,4.78644140625,-0.5205535888671875,-0.8580169677734375,-0.0015106201171875
1738772342077432300,4.796432373046875,-0.521240234375,-0.8571624755859375,-0.002105712890625
1738772342087423200,4.80642333984375,-0.519744873046875,-0.857269287109375,-0.0007781982421875
1738772342097415400,4.81641552734375,-0.51947021484375,-0.859405517578125,-0.0013275146484375
1738772342107406300,4.82640625,-0.519775390625,-0.857879638671875,-0.0016326904296875
1738772342117397200,4.836397216796875,-0.5208282470703125,-0.8579254150390625,-0.0016632080078125
1738772342127388400,4.846388427734375,-0.520416259765625,-0.8599395751953125,-0.0022735595703125
1738772342137379300,4.85637939453125,-0.5189666748046875,-0.856903076171875,-0.0016937255859375
1738772342147370200,4.866370361328125,-0.52001953125,-0.8567962646484375,-0.001312255859375
1738772342157362400,4.876362548828125,-0.521240234375,-0.8576812744140625,-0.0007781982421875
1738772342167353300,4.886353271484375,-0.520111083984375,-0.8577423095703125,-0.00067138671875
1738772342177344300,4.89634423828125,-0.521209716796875,-0.8587799072265625,-0.0017852783203125
1738772342187335400,4.90633544921875,-0.5189208984375,-0.85736083984375,-0.0021209716796875
1738772342197326300,4.916326416015625,-0.518280029296875,-0.8572540283203125,-0.0004119873046875
1738772342207319300,4.9263193359375,-0.5200653076171875,-0.85791015625,-0.00115966796875
1738772342217310200,4.936310302734375,-0.516265869140625,-0.8569488525390625,-0.0009002685546875
1738772342227301000,4.946301025390625,-0.5193634033203125,-0.8579559326171875,-0.0018310546875
1738772342237292300,4.956292236328125,-0.5197906494140625,-0.8568878173828125,-0.000885009765625
1738772342247283200,4.966283203125,-0.51898193359375,-0.85833740234375,-0.001861572265625
1738772342257275100,4.976275146484375,-0.5186309814453125,-0.8574066162109375,-0.0008392333984375
1738772342267266300,4.986266357421875,-0.51910400390625,-0.8577728271484375,-0.00079345703125
1738772342277257200,4.99625732421875,-0.5179901123046875,-0.856903076171875,-0.0014801025390625
1738772342287248100,5.006248046875,-0.5199737548828125,-0.858245849609375,-0.0002288818359375
1738772342297239300,5.0162392578125,-0.519744873046875,-0.858062744140625,-0.0019683837890625
1738772342307231200,5.026231201171875,-0.5182952880859375,-0.8591461181640625,-0.0019683837890625
1738772342317222100,5.03622216796875,-0.5207366943359375,-0.857421875,-0.00164794921875
1738772342327213300,5.04621337890625,-0.5188751220703125,-0.8578338623046875,-0.000823974609375
1738772342337204200,5.056204345703125,-0.5194244384765625,-0.8567352294921875,-0.0010986328125
1738772342347195100,5.066195068359375,-0.5215301513671875,-0.85791015625,-0.0010833740234375
1738772342357186300,5.076186279296875,-0.5205078125,-0.8575592041015625,-0.0010833740234375
1738772342367178200,5.08617822265625,-0.5185089111328125,-0.8585968017578125,-0.00091552734375
1738772342377169200,5.096169189453125,-0.5196533203125,-0.85772705078125,-0.0021209716796875
1738772342387160300,5.106160400390625,-0.5194854736328125,-0.8585052490234375,-0.0020751953125
1738772342397151200,5.116151123046875,-0.5205841064453125,-0.85821533203125,-0.000244140625
1738772342407142100,5.12614208984375,-0.521270751953125,-0.85784912109375,-0.0004119873046875
1738772342417134300,5.13613427734375,-0.5189208984375,-0.8570709228515625,-0.00091552734375
1738772342427125200,5.146125244140625,-0.52197265625,-0.85772705078125,-0.000946044921875
1738772342437116200,5.1561162109375,-0.519744873046875,-0.8583526611328125,-0.000823974609375
1738772342447107300,5.166107421875,-0.5184478759765625,-0.8587799072265625,-0.0018310546875
1738772342457098200,5.17609814453125,-0.51995849609375,-0.8588409423828125,-0.0015716552734375
1738772342467090200,5.186090087890625,-0.5195770263671875,-0.8582305908203125,-0.0030364990234375
1738772342477081300,5.196081298828125,-0.5206146240234375,-0.858856201171875,-0.001068115234375
1738772342487072300,5.206072265625,-0.5195465087890625,-0.8581085205078125,-0.000640869140625
1738772342497063200,5.216063232421875,-0.519500732421875,-0.8580169677734375,-0.0016326904296875
1738772342507054300,5.226054443359375,-0.5207366943359375,-0.857818603515625,-0.001556396484375
1738772342517045200,5.236045166015625,-0.5193023681640625,-0.859283447265625,-0.001220703125
1738772342527037200,5.246037109375,-0.519287109375,-0.8581695556640625,-0.0009307861328125
1738772342537028400,5.2560283203125,-0.5193939208984375,-0.8573455810546875,-0.0012969970703125
1738772342547019300,5.266019287109375,-0.5195159912109375,-0.8583221435546875,-0.0007171630859375
1738772342557010200,5.27601025390625,-0.5207672119140625,-0.856475830078125,-0.000579833984375
1738772342567001000,5.2860009765625,-0.5168304443359375,-0.85882568359375,-0.0013580322265625
1738772342576993300,5.2959931640625,-0.5210723876953125,-0.85687255859375,-0.0003509521484375
1738772342586984200,5.305984130859375,-0.518341064453125,-0.8581085205078125,-0.0014190673828125
1738772342596975400,5.315975341796875,-0.5197601318359375,-0.8574371337890625,-0.0013427734375
1738772342606966300,5.32596630859375,-0.521331787109375,-0.8569793701171875,-0.00201416015625
1738772342616957200,5.335957275390625,-0.5181884765625,-0.858306884765625,-0.00140380859375
1738772342626949400,5.345949462890625,-0.5203094482421875,-0.8581390380859375,-0.002044677734375
1738772342636940300,5.355940185546875,-0.5192718505859375,-0.857940673828125,-0.0004425048828125
1738772342646931200,5.36593115234375,-0.5203857421875,-0.856964111328125,-0.000213623046875
1738772342656922000,5.375922119140625,-0.520843505859375,-0.8582916259765625,-0.0007781982421875
1738772342666913300,5.385913330078125,-0.51788330078125,-0.859283447265625,-0.002716064453125
1738772342676904200,5.395904296875,-0.521087646484375,-0.8577117919921875,-0.00103759765625
1738772342686896400,5.405896484375,-0.518951416015625,-0.8576202392578125,-0.0008697509765625
1738772342696887300,5.41588720703125,-0.517333984375,-0.8582611083984375,-0.001983642578125
1738772342706878200,5.425878173828125,-0.5220184326171875,-0.85809326171875,-0.0018157958984375
1738772342716869000,5.435869140625,-0.5189666748046875,-0.857177734375,-0.0014495849609375
1738772342726860300,5.4458603515625,-0.520965576171875,-0.85723876953125,-0.001312255859375
1738772342736852200,5.455852294921875,-0.52044677734375,-0.8579254150390625,-0.0019989013671875
1738772342746843100,5.465843017578125,-0.5185394287109375,-0.858551025390625,-0.001129150390625
1738772342756834300,5.475834228515625,-0.5194091796875,-0.8587646484375,-0.0017852783203125
1738772342766825200,5.4858251953125,-0.520538330078125,-0.8578338623046875,-0.000640869140625
1738772342776816000,5.495816162109375,-0.5211944580078125,-0.857177734375,-0.00048828125
1738772342786808300,5.505808349609375,-0.5206298828125,-0.857208251953125,-0.001617431640625
1738772342796799200,5.51579931640625,-0.5195770263671875,-0.8577880859375,-0.00091552734375
1738772342806790100,5.5257900390625,-0.5214385986328125,-0.857391357421875,-0.000396728515625
1738772342816781300,5.53578125,-0.5197296142578125,-0.8574676513671875,-0.00054931640625
1738772342826772200,5.545772216796875,-0.5173187255859375,-0.8590545654296875,-0.001068115234375
1738772342836763100,5.55576318359375,-0.5213623046875,-0.857818603515625,-0.0025177001953125
1738772342846755300,5.56575537109375,-0.519012451171875,-0.8580322265625,-0.0023040771484375
1738772342856746200,5.575746337890625,-0.51959228515625,-0.8578338623046875,-0.0006561279296875
1738772342866737200,5.585737060546875,-0.5203399658203125,-0.856597900390625,-0.0016326904296875
1738772342876728300,5.595728271484375,-0.518341064453125,-0.856689453125,-0.0012359619140625
1738772342886719200,5.60571923828125,-0.520111083984375,-0.8575439453125,-0.001983642578125
1738772342896711200,5.615711181640625,-0.518829345703125,-0.857269287109375,-0.0021820068359375
1738772342906702300,5.625702392578125,-0.51824951171875,-0.8580780029296875,-0.0016937255859375
1738772342916693200,5.635693359375,-0.52093505859375,-0.8579559326171875,-0.0015411376953125
1738772342926684200,5.64568408203125,-0.5190277099609375,-0.857879638671875,-0.001617431640625
1738772342936675300,5.65567529296875,-0.5186004638671875,-0.857513427734375,-0.0023193359375
1738772342946667300,5.665667236328125,-0.52032470703125,-0.8579559326171875,-0.001678466796875
1738772342956658200,5.675658203125,-0.5193328857421875,-0.8575286865234375,-0.0006866455078125
1738772342966649300,5.6856494140625,-0.519927978515625,-0.85845947265625,-0.0013580322265625
1738772342976640300,5.69564013671875,-0.52032470703125,-0.8573760986328125,-0.00177001953125
1738772342986631200,5.705631103515625,-0.5200042724609375,-0.8582916259765625,-0.00140380859375
1738772342996622300,5.715622314453125,-0.5191650390625,-0.85791015625,-0.0012359619140625
1738772343006614300,5.7256142578125,-0.52020263671875,-0.858551025390625,-0.001190185546875
1738772343016605200,5.735605224609375,-0.5186004638671875,-0.8575897216796875,-0.0014801025390625
1738772343026596400,5.745596435546875,-0.520538330078125,-0.8569183349609375,-0.000518798828125
1738772343036587300,5.755587158203125,-0.5200958251953125,-0.8570404052734375,-0.0010833740234375
1738772343046578200,5.765578125,-0.5194854736328125,-0.858489990234375,-0.0014190673828125
1738772343056570400,5.7755703125,-0.5214385986328125,-0.8582611083984375,-0.0019073486328125
1738772343066561300,5.785561279296875,-0.5195465087890625,-0.8585052490234375,-0.004119873046875
1738772343076552200,5.79555224609375,-0.518890380859375,-0.85784912109375,-0.001678466796875
1738772343086543400,5.80554345703125,-0.51983642578125,-0.8586578369140625,-0.0010223388671875
1738772343096534300,5.8155341796875,-0.5194091796875,-0.8579254150390625,-0.0006866455078125
1738772343106526200,5.825526123046875,-0.5189208984375,-0.85711669921875,-0.00030517578125
1738772343116517400,5.835517333984375,-0.520172119140625,-0.8583984375,-0.0010223388671875
1738772343126508300,5.84550830078125,-0.519683837890625,-0.85894775390625,-0.0013427734375
1738772343136499200,5.855499267578125,-0.5187835693359375,-0.8575897216796875,-0.00164794921875
1738772343146490400,5.865490478515625,-0.5190887451171875,-0.8587646484375,-0.0024566650390625
1738772343156481300,5.875481201171875,-0.51947021484375,-0.85577392578125,-0.0008087158203125
1738772343166473200,5.88547314453125,-0.5197906494140625,-0.8572235107421875,-0.0011138916015625
1738772343176464400,5.89546435546875,-0.5193939208984375,-0.8583831787109375,-0.0005645751953125
1738772343186455300,5.905455322265625,-0.51947021484375,-0.857666015625,-0.0018463134765625
1738772343196446200,5.9154462890625,-0.5201873779296875,-0.857666015625,-0.0017547607421875
1738772343206436600,5.9254365234375,-0.51898193359375,-0.857391357421875,-0.000701904296875
1738772343216428800,5.9354287109375,-0.5204010009765625,-0.8583526611328125,-0.001953125
1738772343226419700,5.945419677734375,-0.518707275390625,-0.8572998046875,-0.00347900390625
1738772343236410600,5.95541064453125,-0.521148681640625,-0.8587646484375,-0.0009307861328125
1738772343246401800,5.96540185546875,-0.5203857421875,-0.8574676513671875,-0.0002288818359375
1738772343256392700,5.975392822265625,-0.518798828125,-0.85784912109375,-0.0012969970703125
1738772343266383600,5.985383544921875,-0.5218658447265625,-0.8579559326171875,-0.0003662109375
1738772343276375800,5.995375732421875,-0.5194549560546875,-0.8559722900390625,-0.001617431640625
1738772343286366700,6.00536669921875,-0.5195465087890625,-0.8571319580078125,-0.00128173828125
1738772343296357600,6.015357666015625,-0.520233154296875,-0.8583221435546875,0.0000457763671875
1738772343306348500,6.0253486328125,-0.520355224609375,-0.8583831787109375,-0.0002593994140625
1738772343316339700,6.035339599609375,-0.5203857421875,-0.8575439453125,-0.002288818359375
1738772343326331600,6.04533154296875,-0.519683837890625,-0.8571929931640625,-0.0014495849609375
1738772343336322800,6.05532275390625,-0.51910400390625,-0.8577728271484375,-0.0010833740234375
1738772343346313700,6.065313720703125,-0.519439697265625,-0.858428955078125,-0.00042724609375
1738772343356304600,6.0753046875,-0.520721435546875,-0.8585357666015625,-0.0009613037109375
1738772343366295600,6.085295654296875,-0.5194854736328125,-0.8575897216796875,-0.001983642578125
1738772343376287700,6.095287841796875,-0.519805908203125,-0.8578033447265625,-0.001678466796875
1738772343386278700,6.105278564453125,-0.519317626953125,-0.8574371337890625,-0.0009613037109375
1738772343396269600,6.11526953125,-0.520263671875,-0.8568267822265625,-0.001312255859375
1738772343406260700,6.1252607421875,-0.5184326171875,-0.857635498046875,-0.00042724609375
1738772343416251600,6.135251708984375,-0.5189361572265625,-0.858367919921875,-0.001373291015625
1738772343426242600,6.14524267578125,-0.519744873046875,-0.859039306640625,-0.002288818359375
1738772343436234800,6.15523486328125,-0.5205535888671875,-0.8584747314453125,-0.0021820068359375
1738772343446225700,6.1652255859375,-0.51849365234375,-0.8580169677734375,-0.0012969970703125
1738772343456216600,6.175216552734375,-0.51849365234375,-0.8578643798828125,0.0008087158203125
1738772343466207700,6.185207763671875,-0.520233154296875,-0.8586578369140625,-0.0009613037109375
1738772343476198700,6.19519873046875,-0.518341064453125,-0.858306884765625,-0.0029296875
1738772343486190600,6.205190673828125,-0.5218353271484375,-0.8575592041015625,-0.001068115234375
1738772343496181800,6.215181640625,-0.5193939208984375,-0.857147216796875,-0.0001983642578125
1738772343506172700,6.225172607421875,-0.519287109375,-0.8573455810546875,-0.0018157958984375
1738772343516163600,6.23516357421875,-0.51910400390625,-0.8567962646484375,-0.001800537109375
1738772343526154800,6.24515478515625,-0.5182037353515625,-0.8571929931640625,-0.0016937255859375
1738772343536145700,6.255145751953125,-0.5207366943359375,-0.857818603515625,-0.001739501953125
1738772343546137600,6.2651376953125,-0.5211029052734375,-0.8576202392578125,-0.0017852783203125
1738772343556128800,6.275128662109375,-0.5205230712890625,-0.8590850830078125,-0.0023040771484375
1738772343566119700,6.28511962890625,-0.519073486328125,-0.858367919921875,-0.001373291015625
1738772343576110600,6.295110595703125,-0.5198822021484375,-0.8576507568359375,-0.0011138916015625
1738772343586101800,6.305101806640625,-0.5209503173828125,-0.8565521240234375,-0.0022125244140625
1738772343596093700,6.31509375,-0.5210418701171875,-0.857421875,-0.00164794921875
1738772343606084600,6.325084716796875,-0.51947021484375,-0.85760498046875,-0.0014495849609375
1738772343616075800,6.33507568359375,-0.5189971923828125,-0.8569793701171875,-0.0018310546875
1738772343626066700,6.345066650390625,-0.52081298828125,-0.858184814453125,-0.00018310546875
1738772343636057600,6.3550576171875,-0.5185089111328125,-0.858551025390625,-0.00238037109375
1738772343646049800,6.3650498046875,-0.520294189453125,-0.8576202392578125,-0.0007781982421875
1738772343656040700,6.375040771484375,-0.5201568603515625,-0.8581085205078125,-0.000213623046875
1738772343666031600,6.385031494140625,-0.518768310546875,-0.8580780029296875,-0.00140380859375
1738772343676022800,6.395022705078125,-0.519012451171875,-0.857330322265625,-0.001068115234375
1738772343686013700,6.405013671875,-0.519012451171875,-0.8574066162109375,-0.0006256103515625
1738772343696004600,6.415004638671875,-0.5196380615234375,-0.8580780029296875,-0.0021209716796875
1738772343705996800,6.424996826171875,-0.52008056640625,-0.8577423095703125,-0.001678466796875
1738772343715987700,6.43498779296875,-0.520843505859375,-0.857757568359375,-0.0012664794921875
1738772343725978600,6.444978515625,-0.5204315185546875,-0.8572540283203125,-0.0014801025390625
1738772343735969800,6.4549697265625,-0.5185546875,-0.856964111328125,-0.00262451171875
1738772343745960700,6.464960693359375,-0.520172119140625,-0.8571929931640625,-0.0015716552734375
1738772343755952600,6.47495263671875,-0.519073486328125,-0.85821533203125,-0.0019378662109375
1738772343765943800,6.48494384765625,-0.5206756591796875,-0.857025146484375,-0.001708984375
1738772343775934700,6.494934814453125,-0.51953125,-0.8574371337890625,-0.0015869140625
1738772343785925600,6.504925537109375,-0.519927978515625,-0.8580169677734375,-0.00006103515625
1738772343795916500,6.51491650390625,-0.5217132568359375,-0.857513427734375,-0.0018157958984375
1738772343805907700,6.52490771484375,-0.51776123046875,-0.8584747314453125,-0.0019378662109375
1738772343815899600,6.534899658203125,-0.5194091796875,-0.858062744140625,-0.0014190673828125
1738772343825890800,6.544890869140625,-0.519256591796875,-0.8583221435546875,-0.001251220703125
1738772343835881700,6.5548818359375,-0.519989013671875,-0.858367919921875,-0.0019683837890625
1738772343845872600,6.56487255859375,-0.5189208984375,-0.8583984375,-0.0010223388671875
1738772343855863600,6.574863525390625,-0.5196685791015625,-0.8576202392578125,-0.0021514892578125
1738772343865855700,6.584855712890625,-0.5200958251953125,-0.85748291015625,-0.0016326904296875
1738772343875846700,6.5948466796875,-0.518218994140625,-0.857635498046875,-0.0008087158203125
1738772343885837800,6.604837890625,-0.5215301513671875,-0.857574462890625,-0.00164794921875
1738772343895828700,6.614828857421875,-0.518890380859375,-0.85760498046875,-0.0015869140625
1738772343905819600,6.624819580078125,-0.5201873779296875,-0.858551025390625,-0.0006561279296875
1738772343915811800,6.634811767578125,-0.5194244384765625,-0.8585662841796875,-0.00128173828125
1738772343925802800,6.644802734375,-0.5185089111328125,-0.8576507568359375,-0.0012359619140625
1738772343935793700,6.654793701171875,-0.5215606689453125,-0.858184814453125,-0.0020599365234375
1738772343945784600,6.66478466796875,-0.5206298828125,-0.8585052490234375,-0.00164794921875
1738772343955775700,6.674775634765625,-0.5186767578125,-0.85888671875,-0.0012969970703125
1738772343965766700,6.6847666015625,-0.5201263427734375,-0.8578948974609375,-0.0033111572265625
1738772343975758800,6.6947587890625,-0.5196990966796875,-0.8570556640625,-0.0009613037109375
1738772343985749800,6.704749755859375,-0.5202789306640625,-0.85772705078125,-0.0004425048828125
1738772343995740700,6.71474072265625,-0.5195159912109375,-0.8580169677734375,-0.0014190673828125
1738772344005731600,6.724731689453125,-0.518157958984375,-0.85809326171875,-0.0013427734375
1738772344015722800,6.73472265625,-0.51959228515625,-0.857879638671875,-0.0001220703125
1738772344025714700,6.744714599609375,-0.5196533203125,-0.857696533203125,-0.0009918212890625
1738772344035705600,6.75470556640625,-0.5174102783203125,-0.858123779296875,-0.0018310546875
1738772344045696800,6.76469677734375,-0.5204620361328125,-0.8571319580078125,-0.0005035400390625
1738772344055687700,6.774687744140625,-0.520172119140625,-0.85675048828125,-0.0019378662109375
1738772344065678600,6.7846787109375,-0.5196380615234375,-0.8582305908203125,-0.001373291015625
1738772344075669800,6.794669677734375,-0.520416259765625,-0.8570556640625,-0.0006866455078125
1738772344085661700,6.80466162109375,-0.5189666748046875,-0.8575897216796875,-0.0011749267578125
1738772344095652600,6.814652587890625,-0.5187835693359375,-0.856689453125,-0.00164794921875
1738772344105643800,6.824643798828125,-0.52001953125,-0.857330322265625,-0.0002593994140625
1738772344115634700,6.834634765625,-0.520904541015625,-0.858001708984375,-0.0015411376953125
1738772344125625600,6.84462548828125,-0.518829345703125,-0.85626220703125,-0.000946044921875
1738772344135617800,6.85461767578125,-0.5189208984375,-0.8585205078125,-0.00164794921875
1738772344145608700,6.864608642578125,-0.5191192626953125,-0.8579864501953125,-0.0008544921875
1738772344155599600,6.874599609375,-0.5198974609375,-0.856597900390625,-0.002227783203125
1738772344165590800,6.8845908203125,-0.5201873779296875,-0.8572235107421875,-0.0013580322265625
1738772344175581700,6.894581787109375,-0.5199737548828125,-0.858001708984375,-0.0007171630859375
1738772344185573600,6.90457373046875,-0.5200042724609375,-0.857421875,-0.0023193359375
1738772344195564800,6.914564697265625,-0.5217437744140625,-0.857940673828125,-0.00177001953125
1738772344205555000,6.924554931640625,-0.5206451416015625,-0.85821533203125,-0.0020294189453125
1738772344215545900,6.9345458984375,-0.5188751220703125,-0.8579864501953125,-0.00042724609375
1738772344225536800,6.944536865234375,-0.5201873779296875,-0.8575592041015625,-0.00018310546875
1738772344235528000,6.95452783203125,-0.518798828125,-0.8584747314453125,-0.000640869140625
1738772344245520000,6.964519775390625,-0.52001953125,-0.858489990234375,-0.00115966796875
1738772344255510800,6.9745107421875,-0.5194549560546875,-0.857513427734375,-0.0029449462890625
1738772344265502000,6.984501953125,-0.5189666748046875,-0.8564453125,-0.0003662109375
1738772344275492900,6.994492919921875,-0.5214996337890625,-0.8578948974609375,-0.0012664794921875
1738772344285483800,7.00448388671875,-0.5184326171875,-0.857940673828125,-0.00177001953125
1738772344295476000,7.01447607421875,-0.519561767578125,-0.8587646484375,-0.0012359619140625
1738772344305467000,7.024466796875,-0.51953125,-0.8582305908203125,-0.000640869140625
1738772344315457800,7.034457763671875,-0.51922607421875,-0.8578338623046875,-0.0011444091796875
1738772344325449000,7.044448974609375,-0.5200653076171875,-0.8584442138671875,-0.0011138916015625
1738772344335440000,7.05443994140625,-0.520355224609375,-0.8579254150390625,-0.0016021728515625
1738772344345432000,7.06443212890625,-0.5189208984375,-0.85791015625,-0.00323486328125
1738772344355423000,7.074423095703125,-0.5196380615234375,-0.85711669921875,-0.0016326904296875
1738772344365414000,7.084413818359375,-0.51953125,-0.85791015625,-0.0020294189453125
1738772344375404800,7.09440478515625,-0.5184173583984375,-0.859222412109375,-0.002532958984375
1738772344385396000,7.10439599609375,-0.52020263671875,-0.858062744140625,-0.001129150390625
1738772344395387000,7.114386962890625,-0.5188446044921875,-0.858306884765625,-0.0007476806640625
1738772344405378800,7.12437890625,-0.520843505859375,-0.8570556640625,-0.0023345947265625
1738772344415370000,7.134369873046875,-0.520111083984375,-0.8577117919921875,-0.000640869140625
1738772344425361000,7.14436083984375,-0.5198211669921875,-0.8585968017578125,-0.0016937255859375
1738772344435351800,7.154351806640625,-0.51824951171875,-0.8575286865234375,-0.00250244140625
1738772344445343000,7.164343017578125,-0.52008056640625,-0.8576202392578125,-0.0015869140625
1738772344455335000,7.1743349609375,-0.5196685791015625,-0.8586883544921875,-0.0011138916015625
1738772344465325800,7.184325927734375,-0.5194244384765625,-0.8581085205078125,-0.002105712890625
1738772344475317000,7.19431689453125,-0.5187225341796875,-0.8581695556640625,-0.0020751953125
1738772344485308000,7.204307861328125,-0.5195159912109375,-0.8578033447265625,-0.0010986328125
1738772344495298800,7.214298828125,-0.51983642578125,-0.8573760986328125,-0.000946044921875
1738772344505291000,7.224291015625,-0.521392822265625,-0.857513427734375,0.0001068115234375
1738772344515282000,7.234281982421875,-0.519775390625,-0.8578948974609375,-0.0005645751953125
1738772344525272800,7.24427294921875,-0.5205535888671875,-0.85894775390625,-0.00213623046875
1738772344535264000,7.254263916015625,-0.520355224609375,-0.857574462890625,-0.00201416015625
1738772344545255000,7.2642548828125,-0.518402099609375,-0.857757568359375,-0.0007476806640625
1738772344555245800,7.274245849609375,-0.521087646484375,-0.85894775390625,-0.0009765625
1738772344565238000,7.284238037109375,-0.519439697265625,-0.8578948974609375,-0.00177001953125
1738772344575229000,7.29422900390625,-0.5194091796875,-0.8578643798828125,-0.00115966796875
1738772344585219800,7.3042197265625,-0.5205841064453125,-0.857666015625,-0.000640869140625
1738772344595211000,7.3142109375,-0.519561767578125,-0.857635498046875,-0.0005645751953125
1738772344605202000,7.324201904296875,-0.5193939208984375,-0.858642578125,-0.0011749267578125
1738772344615193900,7.33419384765625,-0.5203399658203125,-0.8569793701171875,-0.0017242431640625
1738772344625185000,7.34418505859375,-0.51910400390625,-0.858001708984375,-0.0014190673828125
1738772344635176000,7.354176025390625,-0.521148681640625,-0.858367919921875,-0.002044677734375
1738772344645166800,7.364166748046875,-0.5210723876953125,-0.858123779296875,-0.001068115234375
1738772344655158000,7.374157958984375,-0.5189971923828125,-0.85760498046875,-0.000823974609375
1738772344665150000,7.38414990234375,-0.5192413330078125,-0.8574371337890625,-0.00128173828125
1738772344675140900,7.394140869140625,-0.5208892822265625,-0.857574462890625,-0.0006561279296875
1738772344685132000,7.404132080078125,-0.5194091796875,-0.858001708984375,-0.0014190673828125
1738772344695123000,7.414123046875,-0.51910400390625,-0.857330322265625,-0.00177001953125
1738772344705113900,7.42411376953125,-0.52020263671875,-0.858062744140625,-0.0006561279296875
1738772344715106000,7.43410595703125,-0.520416259765625,-0.8587493896484375,-0.0001068115234375
1738772344725097000,7.444096923828125,-0.5204620361328125,-0.8582000732421875,-0.002166748046875
1738772344735087900,7.454087890625,-0.52105712890625,-0.857177734375,-0.002960205078125
1738772344745079000,7.4640791015625,-0.5193634033203125,-0.8568115234375,-0.0013275146484375
1738772344755070000,7.474070068359375,-0.518646240234375,-0.857177734375,-0.0001983642578125
1738772344765060900,7.484060791015625,-0.5203094482421875,-0.858551025390625,-0.000579833984375
1738772344775053000,7.494052978515625,-0.5189971923828125,-0.858123779296875,-0.000091552734375
1738772344785044000,7.5040439453125,-0.5204620361328125,-0.858154296875,-0.0015106201171875
1738772344795035000,7.514034912109375,-0.5191192626953125,-0.8585968017578125,-0.00238037109375
1738772344805025800,7.52402587890625,-0.519134521484375,-0.857666015625,-0.001373291015625
1738772344815017000,7.534016845703125,-0.51873779296875,-0.857757568359375,-0.00146484375
1738772344825009000,7.5440087890625,-0.5216827392578125,-0.8569183349609375,-0.0010833740234375
1738772344835000000,7.554,-0.5199737548828125,-0.856781005859375,-0.00115966796875
1738772344844991000,7.563990966796875,-0.5201568603515625,-0.8580780029296875,-0.0006866455078125
1738772344854982000,7.57398193359375,-0.519287109375,-0.8576202392578125,0.0001373291015625
1738772344864972800,7.583972900390625,-0.51959228515625,-0.85894775390625,-0.0003509521484375
1738772344874965000,7.593965087890625,-0.5218963623046875,-0.8576202392578125,-0.00048828125
1738772344884956000,7.603955810546875,-0.5185394287109375,-0.8573455810546875,-0.00189208984375
1738772344894946800,7.61394677734375,-0.5192108154296875,-0.8572540283203125,-0.000823974609375
1738772344904938000,7.62393798828125,-0.5202789306640625,-0.8575439453125,-0.0013427734375
1738772344914929000,7.633928955078125,-0.5197296142578125,-0.858123779296875,-0.00164794921875
1738772344924919800,7.643919921875,-0.520172119140625,-0.8584136962890625,-0.0014190673828125
1738772344934912000,7.653912109375,-0.5194091796875,-0.8571624755859375,-0.0010833740234375
1738772344944903000,7.66390283203125,-0.5193634033203125,-0.857330322265625,-0.001739501953125
1738772344954893800,7.673893798828125,-0.5193634033203125,-0.8575592041015625,-0.00091552734375
1738772344964885000,7.683885009765625,-0.519378662109375,-0.8575439453125,-0.00067138671875
1738772344974876000,7.6938759765625,-0.5203399658203125,-0.8574981689453125,-0.0001373291015625
1738772344984867800,7.703867919921875,-0.51812744140625,-0.8584747314453125,-0.0018768310546875
1738772344994859000,7.71385888671875,-0.5196380615234375,-0.85797119140625,-0.0018310546875
1738772345004850000,7.723849853515625,-0.522064208984375,-0.8575439453125,-0.0016326904296875
1738772345014840800,7.7338408203125,-0.5211029052734375,-0.8584136962890625,-0.0001983642578125
1738772345024832000,7.74383203125,-0.52117919921875,-0.857635498046875,0.0001220703125
1738772345034824000,7.753823974609375,-0.5199737548828125,-0.8579254150390625,-0.0011444091796875
1738772345044814800,7.76381494140625,-0.5187530517578125,-0.858489990234375,-0.001983642578125
1738772345054806000,7.773805908203125,-0.518585205078125,-0.8589935302734375,-0.0006561279296875
1738772345064797000,7.783796875,-0.519073486328125,-0.857452392578125,-0.0004730224609375
1738772345074787800,7.793787841796875,-0.52001953125,-0.8577728271484375,-0.002471923828125
1738772345084779000,7.803779052734375,-0.519317626953125,-0.8579864501953125,-0.0009613037109375
1738772345094771000,7.81377099609375,-0.5210723876953125,-0.856964111328125,-0.0013580322265625
1738772345104761900,7.823761962890625,-0.5178070068359375,-0.8571014404296875,-0.0004730224609375
1738772345114753000,7.8337529296875,-0.52044677734375,-0.8573455810546875,-0.00128173828125
1738772345124744000,7.843743896484375,-0.5195770263671875,-0.85772705078125,-0.000823974609375
1738772345134734800,7.85373486328125,-0.518096923828125,-0.8571929931640625,-0.0021820068359375
1738772345144727000,7.86372705078125,-0.5202484130859375,-0.8577117919921875,-0.0023040771484375
1738772345154718000,7.873718017578125,-0.5185089111328125,-0.857666015625,-0.0016937255859375
1738772345164708900,7.883708984375,-0.519744873046875,-0.8581085205078125,-0.0015716552734375
1738772345174700000,7.893699951171875,-0.51898193359375,-0.8577423095703125,-0.00140380859375
1738772345184691000,7.90369091796875,-0.520660400390625,-0.8575286865234375,-0.001800537109375
1738772345194681900,7.913681884765625,-0.5204010009765625,-0.8585052490234375,-0.0018768310546875
1738772345204674000,7.923674072265625,-0.51812744140625,-0.8577117919921875,-0.0021820068359375
1738772345214665000,7.9336650390625,-0.5216217041015625,-0.85858154296875,-0.0003204345703125
1738772345228403000,7.94740283203125,-0.5178680419921875,-0.8579559326171875,-0.001434326171875
1738772345238394000,7.95739404296875,-0.5205841064453125,-0.85833740234375,-0.0012969970703125
1738772345248385000,7.967385009765625,-0.5174560546875,-0.8584442138671875,-0.001251220703125
1738772345258377000,7.977376953125,-0.5201568603515625,-0.85821533203125,-0.0010528564453125
1738772345268368100,7.9873681640625,-0.51983642578125,-0.8574066162109375,-0.001708984375
1738772345278359000,7.997359130859375,-0.5184478759765625,-0.8583831787109375,-0.0013275146484375
1738772345288350000,8.007349853515626,-0.5198974609375,-0.8599700927734375,-0.000762939453125
1738772345298341000,8.017341064453126,-0.5194091796875,-0.8579864501953125,-0.0012969970703125
1738772345308332800,8.027332763671875,-0.51953125,-0.858184814453125,-0.002349853515625
1738772345318324000,8.037323974609375,-0.5204925537109375,-0.8577117919921875,-0.0015106201171875
1738772345328315100,8.047315185546875,-0.5191497802734375,-0.8585968017578125,-0.00103759765625
1738772345338306000,8.05730615234375,-0.5210113525390625,-0.8579864501953125,-0.001220703125
1738772345348297000,8.067296875,-0.518524169921875,-0.857696533203125,-0.00067138671875
1738772345358288000,8.077287841796876,-0.519927978515625,-0.85858154296875,-0.002044677734375
1738772345368279800,8.08727978515625,-0.5207061767578125,-0.8585662841796875,-0.0013580322265625
1738772345378271000,8.09727099609375,-0.5199127197265625,-0.8574066162109375,-0.0022430419921875
1738772345388262100,8.10726220703125,-0.520263671875,-0.857574462890625,-0.0012359619140625
1738772345398253000,8.117253173828125,-0.5195159912109375,-0.8569793701171875,-0.0022125244140625
1738772345408244000,8.127243896484375,-0.5196990966796875,-0.8588714599609375,-0.0008697509765625
1738772345418236000,8.13723583984375,-0.5198974609375,-0.8572998046875,-0.000579833984375
1738772345428227000,8.14722705078125,-0.5197906494140625,-0.8578033447265625,-0.002716064453125
1738772345438218000,8.157218017578124,-0.5193328857421875,-0.85833740234375,-0.0007476806640625
1738772345448209000,8.167208984375,-0.5205230712890625,-0.8583221435546875,-0.0005950927734375
1738772345458200000,8.177199951171875,-0.5200653076171875,-0.8585052490234375,-0.002716064453125
1738772345468191700,8.187191650390625,-0.519134521484375,-0.857696533203125,-0.00091552734375
1738772345478183000,8.197182861328125,-0.520904541015625,-0.8592376708984375,-0.0001983642578125
1738772345488174000,8.207174072265625,-0.5201873779296875,-0.858123779296875,-0.0007171630859375
1738772345498165000,8.2171650390625,-0.518951416015625,-0.8571319580078125,-0.0015411376953125
1738772345508156000,8.227156005859374,-0.52081298828125,-0.8582000732421875,-0.0025177001953125
1738772345518147000,8.23714697265625,-0.5182647705078125,-0.8568115234375,-0.00213623046875
1738772345528138800,8.247138671875,-0.520599365234375,-0.8577728271484375,-0.0018463134765625
1738772345538130000,8.2571298828125,-0.519927978515625,-0.85870361328125,-0.0017242431640625
1738772345548121000,8.26712109375,-0.5194854736328125,-0.8580474853515625,-0.0012359619140625
1738772345558112000,8.277112060546875,-0.521026611328125,-0.8582000732421875,0.000244140625
1738772345568103000,8.28710302734375,-0.518890380859375,-0.85723876953125,-0.0003814697265625
1738772345578094000,8.297093994140624,-0.520538330078125,-0.857208251953125,-0.000885009765625
1738772345588085000,8.3070849609375,-0.5183868408203125,-0.8568115234375,-0.0015716552734375
1738772345598077000,8.317076904296876,-0.517669677734375,-0.8582763671875,-0.001495361328125
1738772345608068000,8.327068115234376,-0.521759033203125,-0.858612060546875,-0.001983642578125
1738772345618059000,8.33705908203125,-0.51904296875,-0.858306884765625,-0.0009307861328125
1738772345628050000,8.3470498046875,-0.5198822021484375,-0.857818603515625,-0.0010986328125
1738772345638041000,8.357041015625,-0.51959228515625,-0.858184814453125,-0.0022125244140625
1738772345648033000,8.367032958984375,-0.5199127197265625,-0.8585052490234375,0.0001678466796875
1738772345658024000,8.37702392578125,-0.5177764892578125,-0.856964111328125,-0.0009002685546875
1738772345668015000,8.38701513671875,-0.519561767578125,-0.8591156005859375,-0.0018310546875
1738772345678006000,8.397006103515626,-0.5210113525390625,-0.857696533203125,-0.0024261474609375
1738772345687997000,8.406996826171875,-0.516937255859375,-0.8578033447265625,-0.0012664794921875
1738772345697988900,8.41698876953125,-0.5211944580078125,-0.857879638671875,-0.0022125244140625
1738772345707980000,8.42697998046875,-0.520416259765625,-0.8582611083984375,-0.0002288818359375
1738772345717971000,8.436970947265625,-0.520263671875,-0.85784912109375,-0.0025177001953125
1738772345727962000,8.446962158203124,-0.51922607421875,-0.858917236328125,-0.0027008056640625
1738772345737953000,8.456953125,-0.51776123046875,-0.8586883544921875,-0.0005950927734375
1738772345747944000,8.46694384765625,-0.52001953125,-0.8574676513671875,-0.00018310546875
1738772345757936000,8.47693603515625,-0.519561767578125,-0.857940673828125,-0.00189208984375
1738772345767927000,8.486927001953125,-0.520355224609375,-0.8586578369140625,-0.00152587890625
1738772345777918000,8.49691796875,-0.5210113525390625,-0.857818603515625,-0.000946044921875
1738772345787909000,8.5069091796875,-0.5195465087890625,-0.858428955078125,-0.0020599365234375
1738772345797900000,8.516900146484375,-0.5186767578125,-0.857757568359375,-0.0008392333984375
1738772345807892000,8.52689208984375,-0.521392822265625,-0.85760498046875,-0.0023956298828125
1738772345817883100,8.536883056640624,-0.519927978515625,-0.85748291015625,-0.001678466796875
1738772345827874000,8.5468740234375,-0.5186920166015625,-0.8577728271484375,-0.0007781982421875
1738772345837865000,8.556864990234375,-0.5215606689453125,-0.8579254150390625,-0.002685546875
1738772345847856000,8.566856201171875,-0.5194244384765625,-0.858673095703125,-0.00189208984375
1738772345857847800,8.576847900390625,-0.5206756591796875,-0.858001708984375,0.0000152587890625
1738772345867839000,8.5868388671875,-0.5195159912109375,-0.8574066162109375,-0.002777099609375
1738772345877830100,8.596830078125,-0.5196990966796875,-0.8586273193359375,-0.001983642578125
1738772345887821000,8.606821044921874,-0.5203094482421875,-0.8583221435546875,-0.001434326171875
1738772345897812000,8.61681201171875,-0.518798828125,-0.85748291015625,-0.0017852783203125
1738772345907804000,8.626803955078126,-0.52081298828125,-0.8577728271484375,-0.000335693359375
1738772345917794800,8.636794921875,-0.5206146240234375,-0.85870361328125,-0.0014801025390625
1738772345927786000,8.646785888671875,-0.5187225341796875,-0.85736083984375,-0.0016021728515625
1738772345937777200,8.656777099609375,-0.5217437744140625,-0.8587493896484375,-0.0011444091796875
1738772345947768000,8.66676806640625,-0.5187835693359375,-0.8578643798828125,-0.0013427734375
1738772345957759000,8.676759033203124,-0.5186767578125,-0.857940673828125,-0.0012359619140625
1738772345967751000,8.6867509765625,-0.5203857421875,-0.857269287109375,-0.0023345947265625
1738772345977742000,8.6967421875,-0.5178070068359375,-0.857208251953125,-0.0020599365234375
1738772345987733000,8.70673291015625,-0.52239990234375,-0.857330322265625,-0.0011138916015625
1738772345997724000,8.716723876953125,-0.5202789306640625,-0.8572540283203125,-0.002197265625
1738772346007715000,8.726715087890625,-0.519073486328125,-0.8580322265625,-0.002716064453125
1738772346017706800,8.736706787109375,-0.5197296142578125,-0.8577117919921875,-0.0017852783203125
1738772346027698000,8.746697998046875,-0.519256591796875,-0.8576202392578125,-0.00164794921875
1738772346037689000,8.756689208984374,-0.5181884765625,-0.8581085205078125,-0.0008392333984375
1738772346047680000,8.766679931640626,-0.5196075439453125,-0.8577880859375,-0.0015716552734375
1738772346057671000,8.7766708984375,-0.5204010009765625,-0.858917236328125,-0.000732421875
1738772346067662800,8.786662841796876,-0.51922607421875,-0.857818603515625,-0.00115966796875
1738772346077653800,8.79665380859375,-0.5208740234375,-0.8581695556640625,-0.000152587890625
1738772346087645000,8.80664501953125,-0.518096923828125,-0.857574462890625,-0.0025787353515625
1738772346097636000,8.816635986328125,-0.5194091796875,-0.858367919921875,-0.002960205078125
1738772346107627000,8.826626953125,-0.517791748046875,-0.858184814453125,-0.0011138916015625
1738772346117619000,8.836618896484374,-0.51788330078125,-0.8585052490234375,-0.0015411376953125
1738772346127609900,8.84660986328125,-0.5202484130859375,-0.8583526611328125,-0.000244140625
1738772346137601000,8.85660107421875,-0.5198211669921875,-0.858306884765625,-0.0018768310546875
1738772346147592000,8.866592041015625,-0.5187225341796875,-0.8574676513671875,-0.000732421875
1738772346157583000,8.8765830078125,-0.517730712890625,-0.857879638671875,-0.001434326171875
1738772346167574800,8.88657470703125,-0.519195556640625,-0.8582916259765625,-0.0009918212890625
1738772346177565700,8.896565673828125,-0.5198822021484375,-0.85723876953125,-0.0015411376953125
1738772346187556900,8.906556884765624,-0.5194244384765625,-0.8582305908203125,-0.000640869140625
1738772346197548000,8.916548095703124,-0.5185546875,-0.857025146484375,-0.00274658203125
1738772346207539500,8.92653955078125,-0.51812744140625,-0.857818603515625,-0.0012969970703125
1738772346217530400,8.9365302734375,-0.5205230712890625,-0.8580474853515625,-0.0009918212890625
1738772346227522600,8.9465224609375,-0.5196533203125,-0.857757568359375,-0.000823974609375
1738772346237513500,8.956513427734375,-0.5187225341796875,-0.85845947265625,-0.0007781982421875
1738772346247504400,8.96650439453125,-0.51885986328125,-0.85772705078125,-0.0005645751953125
1738772346257495600,8.97649560546875,-0.52056884765625,-0.858428955078125,-0.0014801025390625
1738772346267486500,8.986486572265624,-0.5216522216796875,-0.858551025390625,-0.0004425048828125
1738772346277478400,8.996478515625,-0.5178070068359375,-0.8586273193359375,-0.00103759765625
1738772346287469600,9.006469482421876,-0.5207061767578125,-0.8582916259765625,-0.0015411376953125
1738772346297460500,9.01646044921875,-0.520050048828125,-0.858642578125,-0.0000762939453125
1738772346307451400,9.026451416015625,-0.5192108154296875,-0.85723876953125,0.000396728515625
1738772346317442600,9.036442626953125,-0.5193634033203125,-0.857025146484375,-0.0016326904296875
1738772346327434500,9.0464345703125,-0.5193328857421875,-0.85784912109375,-0.0007171630859375
1738772346337425400,9.05642529296875,-0.5210113525390625,-0.8585052490234375,-0.000885009765625
1738772346347416600,9.06641650390625,-0.51824951171875,-0.8580780029296875,-0.0000762939453125
1738772346357407500,9.076407470703124,-0.5185089111328125,-0.858917236328125,-0.00048828125
1738772346367398400,9.0863984375,-0.520233154296875,-0.85821533203125,-0.001251220703125
1738772346377390600,9.096390625,-0.51849365234375,-0.858306884765625,-0.0021820068359375
1738772346387381500,9.106381591796875,-0.5203399658203125,-0.858062744140625,-0.0011138916015625
1738772346397372400,9.116372314453125,-0.519775390625,-0.8573455810546875,-0.0015411376953125
1738772346407363600,9.126363525390625,-0.5181427001953125,-0.85693359375,-0.0021514892578125
1738772346417354500,9.1363544921875,-0.52166748046875,-0.8573150634765625,-0.0010986328125
1738772346427346400,9.146346435546874,-0.518951416015625,-0.85791015625,0.000030517578125
1738772346437337600,9.156337646484374,-0.51953125,-0.8586578369140625,0.0006103515625
1738772346447328500,9.16632861328125,-0.5197906494140625,-0.8577423095703125,-0.002685546875
1738772346457319400,9.1763193359375,-0.5191802978515625,-0.85845947265625,-0.0022735595703125
1738772346467310600,9.186310546875,-0.5205535888671875,-0.8576507568359375,-0.0010528564453125
1738772346477301500,9.196301513671875,-0.5190582275390625,-0.85662841796875,-0.00054931640625
1738772346487293400,9.20629345703125,-0.5196075439453125,-0.8572235107421875,-0.001220703125
1738772346497284600,9.21628466796875,-0.5200042724609375,-0.8581390380859375,-0.00152587890625
1738772346507275500,9.226275634765624,-0.51953125,-0.8575439453125,-0.001800537109375
1738772346517266400,9.236266357421876,-0.517852783203125,-0.8585662841796875,-0.0009307861328125
1738772346527257300,9.24625732421875,-0.52130126953125,-0.858062744140625,-0.0005035400390625
1738772346537249500,9.25624951171875,-0.5209503173828125,-0.8583831787109375,-0.0010528564453125
1738772346547240400,9.266240478515625,-0.5209503173828125,-0.857208251953125,-0.00128173828125
1738772346557231600,9.276231689453125,-0.52117919921875,-0.8561248779296875,-0.0010986328125
1738772346567222500,9.286222412109375,-0.517364501953125,-0.8583526611328125,-0.00067138671875
1738772346577213400,9.29621337890625,-0.5185699462890625,-0.8573760986328125,-0.0011444091796875
1738772346587205600,9.30620556640625,-0.519866943359375,-0.857421875,-0.0017242431640625
1738772346597196500,9.316196533203126,-0.519989013671875,-0.857147216796875,-0.00189208984375
1738772346607187500,9.3261875,-0.5202178955078125,-0.857757568359375,-0.0015411376953125
1738772346617178400,9.336178466796875,-0.5200653076171875,-0.8587799072265625,-0.0013580322265625
1738772346627169500,9.34616943359375,-0.5190277099609375,-0.85736083984375,-0.0010223388671875
1738772346637161500,9.356161376953125,-0.5203399658203125,-0.8583221435546875,-0.00164794921875
1738772346647152600,9.366152587890625,-0.520355224609375,-0.8585357666015625,-0.001953125
1738772346657143600,9.3761435546875,-0.5193634033203125,-0.8575439453125,-0.0025177001953125
1738772346667134500,9.386134521484376,-0.5196685791015625,-0.85662841796875,-0.0026397705078125
1738772346677125400,9.39612548828125,-0.5205230712890625,-0.8580169677734375,-0.0018310546875
1738772346687116500,9.406116455078125,-0.519134521484375,-0.85821533203125,-0.001922607421875
1738772346697108500,9.4161083984375,-0.5200653076171875,-0.85693359375,-0.00115966796875
1738772346707099400,9.426099365234375,-0.5182037353515625,-0.8582611083984375,-0.0005645751953125
1738772346717090600,9.436090576171875,-0.5179595947265625,-0.8565826416015625,-0.0015106201171875
1738772346727081500,9.44608154296875,-0.521087646484375,-0.8569183349609375,-0.001953125
1738772346737072400,9.456072265625,-0.518951416015625,-0.857208251953125,-0.0016326904296875
1738772346747064600,9.466064697265624,-0.5199127197265625,-0.856414794921875,-0.0006866455078125
1738772346757055500,9.476055419921876,-0.520233154296875,-0.8576202392578125,0.0000152587890625
1738772346767046400,9.48604638671875,-0.52020263671875,-0.857757568359375,-0.000518798828125
1738772346777037600,9.49603759765625,-0.5184173583984375,-0.8583526611328125,-0.000823974609375
1738772346787028500,9.506028564453125,-0.519378662109375,-0.858734130859375,-0.001983642578125
1738772346797020400,9.5160205078125,-0.5196990966796875,-0.857147216796875,-0.0026092529296875
1738772346807011600,9.526011474609374,-0.518157958984375,-0.856842041015625,-0.0013275146484375
1738772346817002500,9.53600244140625,-0.5206146240234375,-0.85699462890625,-0.0028076171875
1738772346826993400,9.545993408203126,-0.5203094482421875,-0.858428955078125,-0.0017242431640625
1738772346836984600,9.555984619140625,-0.5191192626953125,-0.859222412109375,-0.0001373291015625
1738772346846975500,9.5659755859375,-0.5223846435546875,-0.8568572998046875,-0.001800537109375
1738772346856967400,9.575967529296875,-0.5185546875,-0.8576202392578125,-0.0025482177734375
1738772346866958600,9.58595849609375,-0.5209808349609375,-0.8576202392578125,-0.000579833984375
1738772346876949500,9.595949462890625,-0.52093505859375,-0.8584442138671875,-0.0007476806640625
1738772346886940400,9.6059404296875,-0.5196380615234375,-0.8587799072265625,-0.0010986328125
1738772346896931600,9.615931640625,-0.519744873046875,-0.8582916259765625,-0.0004119873046875
1738772346906923500,9.625923583984376,-0.51837158203125,-0.8570404052734375,-0.0016937255859375
1738772346916914400,9.63591455078125,-0.5196533203125,-0.8582000732421875,-0.0013275146484375
1738772346926905600,9.645905517578125,-0.520751953125,-0.8580169677734375,-0.0015716552734375
1738772346936896500,9.655896484375,-0.518402099609375,-0.858612060546875,-0.002593994140625
1738772346946887400,9.665887451171875,-0.5196380615234375,-0.85784912109375,-0.0015869140625
1738772346956879600,9.675879638671875,-0.51910400390625,-0.8580474853515625,-0.0019683837890625
1738772346966870500,9.68587060546875,-0.518829345703125,-0.85693359375,-0.0022735595703125
1738772346976861400,9.695861328125,-0.520843505859375,-0.858673095703125,-0.0008392333984375
1738772346986852600,9.7058525390625,-0.519195556640625,-0.857574462890625,-0.0007781982421875
1738772346996843500,9.715843505859375,-0.51922607421875,-0.8594818115234375,-0.0016326904296875
1738772347006835500,9.72583544921875,-0.52008056640625,-0.858489990234375,-0.002410888671875
1738772347016826600,9.73582666015625,-0.5193328857421875,-0.8589019775390625,-0.0014801025390625
1738772347026817500,9.745817626953125,-0.5207672119140625,-0.8589630126953125,-0.0028228759765625
1738772347036808400,9.755808349609374,-0.52099609375,-0.858612060546875,-0.0017242431640625
1738772347046799600,9.765799560546874,-0.51824951171875,-0.8566131591796875,-0.0001220703125
1738772347056790500,9.77579052734375,-0.5190277099609375,-0.858734130859375,-0.00262451171875
1738772347066782500,9.785782470703126,-0.518341064453125,-0.857452392578125,-0.0003662109375
1738772347076773600,9.795773681640625,-0.5208282470703125,-0.8584136962890625,-0.0001678466796875
1738772347086764500,9.8057646484375,-0.5210723876953125,-0.857635498046875,-0.0007781982421875
1738772347096755500,9.81575537109375,-0.520111083984375,-0.8578033447265625,-0.001983642578125
1738772347106746400,9.825746337890624,-0.520233154296875,-0.8574676513671875,-0.00140380859375
1738772347116738600,9.835738525390624,-0.5188446044921875,-0.85845947265625,-0.0021209716796875
1738772347126729500,9.8457294921875,-0.520050048828125,-0.8584136962890625,-0.0018310546875
1738772347136720600,9.855720703125,-0.5211029052734375,-0.8584442138671875,-0.000946044921875
1738772347146711600,9.865711669921875,-0.5183868408203125,-0.857086181640625,0.0003509521484375
1738772347156702500,9.875702392578125,-0.5196380615234375,-0.857574462890625,-0.0016326904296875
1738772347166693400,9.885693359375,-0.5203399658203125,-0.85760498046875,-0.00189208984375
1738772347176685600,9.895685546875,-0.5200347900390625,-0.8563232421875,-0.002166748046875
1738772347186676500,9.905676513671875,-0.518157958984375,-0.85821533203125,-0.0012054443359375
1738772347196667400,9.91566748046875,-0.5200958251953125,-0.8584747314453125,-0.0003204345703125
1738772347206658300,9.925658203125,-0.52020263671875,-0.8583526611328125,-0.0015716552734375
1738772347216649500,9.9356494140625,-0.52020263671875,-0.8582763671875,-0.0006256103515625
1738772347226641400,9.945641357421875,-0.5197296142578125,-0.859100341796875,-0.0009918212890625
1738772347236632600,9.955632568359375,-0.51934814453125,-0.8574066162109375,-0.0020294189453125
1738772347246623500,9.96562353515625,-0.5197296142578125,-0.8575897216796875,-0.0004730224609375
1738772347256614400,9.975614501953125,-0.5175323486328125,-0.8585205078125,-0.001312255859375
1738772347266605300,9.985605224609374,-0.5199432373046875,-0.857757568359375,-0.0008392333984375
1738772347276597500,9.995597412109374,-0.5210418701171875,-0.8577117919921875,-0.001739501953125
1738772347286588400,10.00558837890625,-0.5191650390625,-0.8582611083984375,-0.0019683837890625
1738772347296579300,10.015579345703125,-0.5210723876953125,-0.8585205078125,-0.0017852783203125
1738772347306570500,10.025570556640625,-0.5188140869140625,-0.8568878173828125,-0.0005950927734375
1738772347316561400,10.0355615234375,-0.5187225341796875,-0.8572845458984375,-0.0012359619140625
1738772347326553600,10.0455537109375,-0.522186279296875,-0.85772705078125,-0.0011138916015625
1738772347336544500,10.05554443359375,-0.5181427001953125,-0.857086181640625,-0.0016021728515625
1738772347346535400,10.065535400390624,-0.519378662109375,-0.85791015625,-0.00048828125
1738772347356526300,10.0755263671875,-0.521484375,-0.85797119140625,-0.0026092529296875
1738772347366517500,10.085517578125,-0.5196380615234375,-0.8573150634765625,-0.0014495849609375
1738772347376508400,10.09550830078125,-0.5182037353515625,-0.8590850830078125,-0.000640869140625
1738772347386500400,10.105500244140625,-0.5197601318359375,-0.8585205078125,-0.0024566650390625
1738772347396491500,10.115491455078125,-0.5186614990234375,-0.8582000732421875,-0.000885009765625
1738772347406482400,10.125482421875,-0.5175323486328125,-0.8573455810546875,-0.0014801025390625
1738772347416473300,10.135473388671874,-0.519775390625,-0.8578033447265625,-0.0017547607421875
1738772347426464500,10.145464599609374,-0.51861572265625,-0.858001708984375,-0.0024261474609375
1738772347436456400,10.15545654296875,-0.521270751953125,-0.8582916259765625,-0.0019378662109375
1738772347446447400,10.165447265625,-0.520416259765625,-0.85858154296875,-0.00091552734375
1738772347456438500,10.1754384765625,-0.5202178955078125,-0.8577423095703125,-0.0029144287109375
1738772347466429400,10.185429443359375,-0.5194244384765625,-0.8581695556640625,-0.0035400390625
1738772347476420400,10.19542041015625,-0.5200042724609375,-0.857513427734375,-0.00164794921875
1738772347486412500,10.20541259765625,-0.520263671875,-0.85748291015625,-0.001708984375
1738772347496403500,10.215403564453124,-0.518951416015625,-0.8570709228515625,-0.001129150390625
1738772347506394400,10.225394287109374,-0.5203094482421875,-0.856903076171875,-0.0005645751953125
1738772347516385500,10.235385498046876,-0.51910400390625,-0.8575897216796875,-0.002471923828125
1738772347526376400,10.24537646484375,-0.5192108154296875,-0.8579254150390625,-0.0008697509765625
1738772347536367400,10.255367431640625,-0.5201873779296875,-0.8574371337890625,-0.0014190673828125
1738772347546359600,10.265359619140625,-0.516448974609375,-0.8574676513671875,-0.0029144287109375
1738772347556350500,10.2753505859375,-0.5208892822265625,-0.858062744140625,-0.0008392333984375
1738772347566341400,10.28534130859375,-0.518646240234375,-0.85760498046875,-0.0010833740234375
1738772347576332500,10.29533251953125,-0.5190277099609375,-0.8589324951171875,0.00018310546875
1738772347586323500,10.305323486328126,-0.5217742919921875,-0.8582611083984375,-0.0012664794921875
1738772347596315400,10.3153154296875,-0.5181427001953125,-0.85748291015625,-0.00238037109375
1738772347606306600,10.325306640625,-0.5207061767578125,-0.8586883544921875,-0.001739501953125
1738772347616297500,10.33529736328125,-0.518829345703125,-0.858428955078125,-0.0022735595703125
1738772347626288400,10.345288330078125,-0.5182952880859375,-0.8565521240234375,-0.0016021728515625
1738772347636279600,10.355279541015625,-0.5212860107421875,-0.8578643798828125,-0.002227783203125
1738772347646271500,10.365271484375,-0.519317626953125,-0.8581085205078125,-0.0003509521484375
1738772347656262400,10.375262451171874,-0.5208740234375,-0.8583221435546875,-0.0014801025390625
1738772347666253600,10.385253662109376,-0.519134521484375,-0.857025146484375,0.0000457763671875
1738772347676244500,10.395244384765626,-0.5186309814453125,-0.85772705078125,-0.0012969970703125
1738772347686235400,10.4052353515625,-0.51861572265625,-0.8575897216796875,-0.000030517578125
1738772347696226300,10.415226318359375,-0.52099609375,-0.85760498046875,-0.00213623046875
1738772347706218500,10.425218505859375,-0.517974853515625,-0.8572540283203125,-0.001373291015625
1738772347716209400,10.43520947265625,-0.5192108154296875,-0.857177734375,-0.001800537109375
1738772347726200600,10.44520068359375,-0.5194549560546875,-0.85711669921875,-0.001068115234375
1738772347736191500,10.45519140625,-0.519500732421875,-0.8575897216796875,0.000152587890625
1738772347746182400,10.465182373046876,-0.5211944580078125,-0.859405517578125,-0.0005645751953125
1738772347756174600,10.475174560546876,-0.5188140869140625,-0.8570556640625,-0.0018768310546875
1738772347766165500,10.48516552734375,-0.5185089111328125,-0.857666015625,-0.000823974609375
1738772347776156400,10.495156494140625,-0.52008056640625,-0.85723876953125,-0.002197265625
1738772347786147300,10.505147216796875,-0.5190887451171875,-0.85601806640625,-0.0014190673828125
1738772347796138500,10.515138427734374,-0.5204925537109375,-0.8571929931640625,-0.0013427734375
1738772347806130400,10.52513037109375,-0.519012451171875,-0.8575439453125,-0.0022430419921875
1738772347816121600,10.53512158203125,-0.5201568603515625,-0.858154296875,-0.0014190673828125
1738772347826112500,10.545112548828126,-0.521209716796875,-0.8580474853515625,-0.0014190673828125
1738772347836103400,10.555103515625,-0.518035888671875,-0.858367919921875,-0.0017547607421875
1738772347846094300,10.56509423828125,-0.51922607421875,-0.857086181640625,-0.000823974609375
1738772347856085500,10.57508544921875,-0.5196990966796875,-0.857421875,-0.0010833740234375
1738772347866077400,10.585077392578125,-0.5183258056640625,-0.858612060546875,-0.0023193359375
1738772347876068400,10.595068359375,-0.51959228515625,-0.8571624755859375,-0.002685546875
1738772347886059500,10.6050595703125,-0.52032470703125,-0.857452392578125,-0.0002899169921875
1738772347896050400,10.615050537109376,-0.5189208984375,-0.8571624755859375,0.00030517578125
1738772347906041300,10.625041259765625,-0.519134521484375,-0.857635498046875,-0.0011444091796875
1738772347916033500,10.635033447265625,-0.520416259765625,-0.8569793701171875,-0.002044677734375
1738772347926024400,10.6450244140625,-0.5190887451171875,-0.8580474853515625,-0.00091552734375
1738772347936015400,10.655015380859375,-0.520782470703125,-0.8578643798828125,-0.001190185546875
1738772347946006500,10.665006591796875,-0.5176544189453125,-0.8585052490234375,-0.0016326904296875
1738772347955997400,10.67499755859375,-0.5194091796875,-0.8575592041015625,-0.00250244140625
1738772347965989400,10.6849892578125,-0.5203704833984375,-0.8574371337890625,-0.001739501953125
1738772347975980500,10.69498046875,-0.5195465087890625,-0.85833740234375,-0.001556396484375
1738772347985971500,10.704971435546875,-0.522064208984375,-0.858184814453125,-0.00177001953125
1738772347995962400,10.71496240234375,-0.5168914794921875,-0.85919189453125,-0.00238037109375
1738772348005953500,10.72495361328125,-0.5183258056640625,-0.858428955078125,-0.0014801025390625
1738772348015944400,10.7349443359375,-0.5211639404296875,-0.8577423095703125,-0.0012054443359375
1738772348025936400,10.744936279296875,-0.517242431640625,-0.8579864501953125,-0.0009307861328125
1738772348035927600,10.754927490234374,-0.5204315185546875,-0.857940673828125,-0.0019073486328125
1738772348045918500,10.76491845703125,-0.518829345703125,-0.85858154296875,-0.000244140625
1738772348055909400,10.774909423828126,-0.51947021484375,-0.858612060546875,-0.0009307861328125
1738772348065900500,10.784900634765625,-0.5208587646484375,-0.858612060546875,-0.000732421875
1738772348075892500,10.794892578125,-0.5182647705078125,-0.8572235107421875,-0.0015869140625
1738772348085883400,10.80488330078125,-0.5187225341796875,-0.8577117919921875,-0.000946044921875
1738772348095874600,10.81487451171875,-0.521392822265625,-0.8578643798828125,-0.0006561279296875
1738772348105865500,10.824865478515624,-0.5205841064453125,-0.857147216796875,-0.0000762939453125
1738772348115856400,10.8348564453125,-0.5193634033203125,-0.8569183349609375,-0.0014495849609375
1738772348125848600,10.8448486328125,-0.5207672119140625,-0.8569488525390625,-0.0028839111328125
1738772348135839500,10.854839599609376,-0.5193328857421875,-0.8571014404296875,-0.000885009765625
1738772348145830400,10.864830322265625,-0.519775390625,-0.859283447265625,-0.000732421875
1738772348155821600,10.874821533203125,-0.5194549560546875,-0.8589019775390625,-0.001678466796875
1738772348165812500,10.8848125,-0.5190582275390625,-0.8582763671875,-0.00152587890625
1738772348175803400,10.894803466796875,-0.52032470703125,-0.8568115234375,-0.0016632080078125
1738772348185795600,10.904795654296874,-0.518218994140625,-0.8576202392578125,-0.0008087158203125
1738772348195786500,10.914786376953124,-0.52227783203125,-0.8583221435546875,-0.001251220703125
1738772348205777200,10.924777099609376,-0.519287109375,-0.8581695556640625,0.0006866455078125
1738772348215768000,10.93476806640625,-0.519073486328125,-0.8580780029296875,-0.00250244140625
1738772348225759000,10.944759033203125,-0.519134521484375,-0.85882568359375,-0.0010833740234375
1738772348235751200,10.954751220703125,-0.5199127197265625,-0.8578948974609375,-0.0015106201171875
1738772348245742000,10.9647421875,-0.520111083984375,-0.8572540283203125,-0.00225830078125
1738772348255733000,10.97473291015625,-0.5196990966796875,-0.858428955078125,-0.001220703125
1738772348265724000,10.984723876953124,-0.5188446044921875,-0.8574371337890625,-0.0002593994140625
1738772348275715000,10.994715087890626,-0.5204925537109375,-0.8581695556640625,-0.0005035400390625
1738772348285707000,11.00470703125,-0.51788330078125,-0.8594512939453125,-0.00164794921875
1738772348295698200,11.0146982421875,-0.52001953125,-0.8578033447265625,-0.001495361328125
1738772348305689000,11.024689208984375,-0.5210418701171875,-0.859405517578125,-0.0002288818359375
1738772348315680000,11.034679931640625,-0.51885986328125,-0.85833740234375,-0.001617431640625
1738772348325671000,11.0446708984375,-0.5206451416015625,-0.8572540283203125,-0.0001678466796875
1738772348335662000,11.054662109375,-0.5195770263671875,-0.8568572998046875,-0.00274658203125
1738772348345654000,11.064654052734374,-0.520111083984375,-0.8584136962890625,-0.0016326904296875
1738772348355645000,11.07464501953125,-0.5183563232421875,-0.8583831787109375,-0.00054931640625
1738772348365636000,11.084635986328125,-0.519561767578125,-0.8572845458984375,-0.001068115234375
1738772348375627000,11.094626953125,-0.5185394287109375,-0.859130859375,-0.0019989013671875
1738772348385618000,11.104617919921875,-0.519500732421875,-0.8585205078125,-0.0035552978515625
1738772348395610000,11.114610107421875,-0.521087646484375,-0.858612060546875,-0.001800537109375
1738772348405601000,11.12460107421875,-0.519775390625,-0.8569488525390625,-0.000457763671875
1738772348415592000,11.134592041015624,-0.519256591796875,-0.85791015625,-0.0005035400390625
1738772348425583000,11.1445830078125,-0.519744873046875,-0.8583526611328125,-0.000640869140625
1738772348435574000,11.154573974609375,-0.5198974609375,-0.8574676513671875,-0.00115966796875
1738772348445566000,11.16456591796875,-0.520294189453125,-0.8583526611328125,-0.0007171630859375
1738772348455557000,11.17455712890625,-0.5181884765625,-0.857635498046875,-0.002166748046875
1738772348465548000,11.184548095703125,-0.5209503173828125,-0.8579864501953125,-0.00311279296875
1738772348475539000,11.1945390625,-0.5207061767578125,-0.857421875,-0.0016326904296875
1738772348485530000,11.204530029296874,-0.5194244384765625,-0.8582000732421875,-0.00006103515625
1738772348495521000,11.21452099609375,-0.5204620361328125,-0.8577423095703125,-0.000091552734375
1738772348505513000,11.224512939453126,-0.519561767578125,-0.857696533203125,-0.0019378662109375
1738772348515504000,11.234504150390626,-0.52191162109375,-0.8598785400390625,-0.0011444091796875
1738772348525495000,11.2444951171875,-0.519256591796875,-0.8573150634765625,-0.0016326904296875
1738772348535486000,11.25448583984375,-0.5182037353515625,-0.8575897216796875,-0.001983642578125
1738772348545477000,11.26447705078125,-0.5215606689453125,-0.8585205078125,0.0001678466796875
1738772348555469000,11.274468994140625,-0.518402099609375,-0.85821533203125,-0.000274658203125
1738772348565460000,11.2844599609375,-0.52093505859375,-0.85687255859375,-0.001068115234375
1738772348575451100,11.294451171875,-0.5184478759765625,-0.857635498046875,-0.001556396484375
1738772348585442000,11.304442138671876,-0.519134521484375,-0.8587493896484375,-0.000732421875
1738772348595433000,11.314432861328125,-0.5214385986328125,-0.8570098876953125,0.0003814697265625
1738772348605424000,11.324424072265625,-0.5193634033203125,-0.858123779296875,-0.00164794921875
1738772348615416000,11.334416015625,-0.519287109375,-0.8583831787109375,-0.0023956298828125
1738772348625407000,11.344406982421875,-0.520111083984375,-0.856842041015625,-0.0030059814453125
1738772348635398100,11.354398193359375,-0.51776123046875,-0.857513427734375,-0.0027313232421875
1738772348645389000,11.36438916015625,-0.519866943359375,-0.8577423095703125,-0.0006103515625
1738772348655380000,11.3743798828125,-0.5200347900390625,-0.8575286865234375,-0.000762939453125
1738772348665372200,11.3843720703125,-0.51904296875,-0.85821533203125,-0.0011749267578125
1738772348675363000,11.394363037109375,-0.519775390625,-0.8587493896484375,-0.00244140625
1738772348685354000,11.40435400390625,-0.519561767578125,-0.85821533203125,-0.0016632080078125
1738772348695345200,11.41434521484375,-0.5191192626953125,-0.85748291015625,-0.000946044921875
1738772348705336000,11.424336181640625,-0.51971435546875,-0.858489990234375,0.0006256103515625
1738772348715328000,11.434327880859374,-0.51873779296875,-0.8590545654296875,-0.00152587890625
1738772348725319200,11.444319091796874,-0.521087646484375,-0.8583984375,-0.001708984375
1738772348735310000,11.45431005859375,-0.5192718505859375,-0.8590240478515625,-0.0016326904296875
1738772348745301000,11.464301025390625,-0.518463134765625,-0.856964111328125,-0.001007080078125
1738772348755292000,11.4742919921875,-0.51861572265625,-0.8582763671875,-0.00067138671875
1738772348765283000,11.484282958984375,-0.5199737548828125,-0.857513427734375,-0.0014801025390625
1738772348775275000,11.49427490234375,-0.518951416015625,-0.8575897216796875,-0.0014495849609375
1738772348785266200,11.50426611328125,-0.520172119140625,-0.85760498046875,-0.001708984375
1738772348795257000,11.514257080078124,-0.5190887451171875,-0.8580169677734375,-0.0012359619140625
1738772348805248000,11.524248046875,-0.520050048828125,-0.858367919921875,0
1738772348815239000,11.534239013671876,-0.5194091796875,-0.8583526611328125,-0.002105712890625
1738772348825231000,11.544231201171876,-0.51971435546875,-0.85833740234375,-0.0017852783203125
1738772348835222000,11.554221923828125,-0.520172119140625,-0.858917236328125,-0.0013275146484375
1738772348845213000,11.564212890625,-0.518646240234375,-0.8575286865234375,-0.0001983642578125
1738772348855204000,11.5742041015625,-0.5199432373046875,-0.8585662841796875,-0.0014190673828125
1738772348865195000,11.584195068359374,-0.518951416015625,-0.8570098876953125,-0.001861572265625
1738772348875187200,11.594187255859374,-0.51934814453125,-0.8579254150390625,-0.0011138916015625
1738772348885178000,11.60417822265625,-0.5201416015625,-0.8578948974609375,-0.0005340576171875
1738772348895169000,11.6141689453125,-0.5198974609375,-0.8581695556640625,-0.0013580322265625
1738772348905160000,11.624159912109375,-0.520050048828125,-0.8578033447265625,-0.0009002685546875
1738772348915151000,11.634151123046875,-0.5187225341796875,-0.8569183349609375,-0.000885009765625
1738772348925142000,11.64414208984375,-0.5175628662109375,-0.857421875,-0.0017852783203125
1738772348935134000,11.654134033203125,-0.520416259765625,-0.85748291015625,-0.0016937255859375
1738772348945125000,11.664125,-0.5202484130859375,-0.8578948974609375,-0.0013885498046875
1738772348955116000,11.674115966796874,-0.51885986328125,-0.85626220703125,-0.0015411376953125
1738772348965107000,11.68410693359375,-0.5187225341796875,-0.8582916259765625,-0.002227783203125
1738772348975098000,11.69409814453125,-0.5193939208984375,-0.85809326171875,-0.001800537109375
1738772348985090000,11.704090087890625,-0.5200347900390625,-0.857269287109375,-0.0016632080078125
1738772348995081000,11.7140810546875,-0.5196990966796875,-0.8584747314453125,-0.00103759765625
1738772349005072100,11.724072021484375,-0.5200347900390625,-0.8577728271484375,-0.001434326171875
1738772349015063000,11.73406298828125,-0.51995849609375,-0.857391357421875,-0.00244140625
1738772349025054000,11.744053955078124,-0.5190277099609375,-0.8578643798828125,-0.0014801025390625
1738772349035045000,11.754045166015626,-0.519744873046875,-0.85833740234375,-0.0002593994140625
1738772349045037000,11.764037109375,-0.52142333984375,-0.858001708984375,-0.0010528564453125
1738772349055028000,11.774028076171875,-0.520477294921875,-0.857421875,-0.000091552734375
1738772349065019100,11.78401904296875,-0.518402099609375,-0.856964111328125,-0.00189208984375
1738772349075010000,11.794010009765625,-0.5196685791015625,-0.857757568359375,-0.0027618408203125
1738772349085001000,11.8040009765625,-0.5197906494140625,-0.858489990234375,-0.0016937255859375
1738772349094993200,11.8139931640625,-0.5184783935546875,-0.857208251953125,-0.0004425048828125
1738772349104984000,11.823984130859374,-0.5201416015625,-0.858367919921875,-0.002044677734375
1738772349114975000,11.83397509765625,-0.5199127197265625,-0.8569488525390625,-0.0023193359375
1738772349124966100,11.843966064453125,-0.51995849609375,-0.8578338623046875,-0.0020294189453125
1738772349134957000,11.85395703125,-0.518157958984375,-0.8580474853515625,-0.0024261474609375
1738772349144949000,11.863948974609375,-0.5194854736328125,-0.857757568359375,-0.00115966796875
1738772349154940200,11.873940185546875,-0.521728515625,-0.8577880859375,-0.0010833740234375
1738772349164931000,11.88393115234375,-0.5196990966796875,-0.8579864501953125,-0.002899169921875
1738772349174922000,11.893921875,-0.5199127197265625,-0.8572235107421875,-0.0025787353515625
1738772349184913200,11.9039130859375,-0.5195159912109375,-0.8585052490234375,-0.0013885498046875
1738772349194904000,11.913904052734376,-0.5192718505859375,-0.8584442138671875,-0.0013580322265625
1738772349204896000,11.92389599609375,-0.5197601318359375,-0.8573760986328125,-0.0014495849609375
1738772349214887200,11.93388720703125,-0.518768310546875,-0.8573760986328125,-0.00152587890625
1738772349228625200,11.947625244140625,-0.5196685791015625,-0.85736083984375,-0.0008392333984375
1738772349238616300,11.9576162109375,-0.518096923828125,-0.8571929931640625,-0.001800537109375
1738772349248607200,11.967607177734376,-0.52099609375,-0.8580780029296875,-0.00048828125
1738772349258599200,11.97759912109375,-0.520660400390625,-0.8571624755859375,-0.000213623046875
1738772349268590300,11.98759033203125,-0.5192413330078125,-0.8573150634765625,-0.0032196044921875
1738772349278581200,11.997581298828125,-0.5202789306640625,-0.8574066162109375,-0.0012359619140625
1738772349288572200,12.007572265625,-0.5195465087890625,-0.85711669921875,-0.0009765625
1738772349298563300,12.017563232421875,-0.51953125,-0.8559417724609375,-0.002410888671875
1738772349308554200,12.02755419921875,-0.520660400390625,-0.858551025390625,-0.00115966796875
1738772349318546200,12.037546142578124,-0.5191192626953125,-0.8573455810546875,-0.0011444091796875
1738772349328537300,12.047537353515626,-0.51898193359375,-0.8568572998046875,-0.002288818359375
1738772349338528300,12.0575283203125,-0.5190887451171875,-0.8578338623046875,-0.00152587890625
1738772349348519200,12.067519287109375,-0.5215911865234375,-0.857330322265625,-0.0001983642578125
1738772349358510300,12.07751025390625,-0.5206298828125,-0.8571624755859375,-0.0015716552734375
1738772349368502000,12.087501953125,-0.51959228515625,-0.8574371337890625,0.0003204345703125
1738772349378493200,12.0974931640625,-0.5199737548828125,-0.857452392578125,-0.0015716552734375
1738772349388484400,12.107484375,-0.5191192626953125,-0.8583831787109375,-0.002197265625
1738772349398475300,12.117475341796874,-0.5181884765625,-0.85687255859375,-0.0007781982421875
1738772349408466200,12.127466064453126,-0.519287109375,-0.856292724609375,-0.00067138671875
1738772349418458000,12.1374580078125,-0.5203857421875,-0.8585357666015625,-0.001373291015625
1738772349428449300,12.14744921875,-0.519775390625,-0.8582611083984375,-0.0003509521484375
1738772349438440200,12.157440185546875,-0.519256591796875,-0.857147216796875,-0.000946044921875
1738772349448431400,12.167431396484375,-0.518890380859375,-0.8574066162109375,-0.0008087158203125
1738772349458422300,12.17742236328125,-0.5208740234375,-0.85736083984375,-0.00115966796875
1738772349468413200,12.1874130859375,-0.518585205078125,-0.8567962646484375,-0.0015106201171875
1738772349478405000,12.197405029296876,-0.5191802978515625,-0.857574462890625,-0.0013427734375
1738772349488396300,12.207396240234376,-0.519073486328125,-0.8579864501953125,-0.000885009765625
1738772349498387200,12.21738720703125,-0.5198211669921875,-0.8585052490234375,-0.0006866455078125
1738772349508378400,12.22737841796875,-0.5203094482421875,-0.857086181640625,-0.0010223388671875
1738772349518369300,12.237369384765625,-0.5196990966796875,-0.8569793701171875,-0.00079345703125
1738772349528361000,12.24736083984375,-0.5188751220703125,-0.8585662841796875,-0.0005950927734375
1738772349538352000,12.25735205078125,-0.5181427001953125,-0.858245849609375,-0.0005340576171875
1738772349548343300,12.26734326171875,-0.5199432373046875,-0.85809326171875,-0.00225830078125
1738772349558334200,12.277334228515626,-0.519622802734375,-0.8571319580078125,-0.0011749267578125
1738772349568325400,12.287325439453125,-0.5194549560546875,-0.8574981689453125,-0.0005950927734375
1738772349578316300,12.29731640625,-0.518218994140625,-0.857696533203125,-0.00048828125
1738772349588307200,12.30730712890625,-0.5184783935546875,-0.8573150634765625,-0.00103759765625
1738772349598299400,12.31729931640625,-0.52044677734375,-0.858489990234375,-0.0015716552734375
1738772349608290300,12.327290283203125,-0.5198211669921875,-0.857177734375,-0.0008544921875
1738772349618281200,12.33728125,-0.5204925537109375,-0.8579559326171875,-0.0004730224609375
1738772349628272400,12.3472724609375,-0.519744873046875,-0.8571624755859375,-0.002838134765625
1738772349638263300,12.35726318359375,-0.5187530517578125,-0.8581085205078125,-0.0027923583984375
1738772349648255200,12.367255126953125,-0.519134521484375,-0.856842041015625,-0.0013427734375
1738772349658246400,12.377246337890625,-0.5195465087890625,-0.858123779296875,-0.0023345947265625
1738772349668237300,12.3872373046875,-0.5204925537109375,-0.8585052490234375,-0.001007080078125
1738772349678228200,12.397228271484375,-0.5179443359375,-0.8580322265625,-0.0006866455078125
1738772349688219100,12.40721923828125,-0.5188140869140625,-0.857666015625,-0.0028228759765625
1738772349698210300,12.417210205078124,-0.5192413330078125,-0.85699462890625,-0.0015106201171875
1738772349708202200,12.4272021484375,-0.51910400390625,-0.857330322265625,-0.0007476806640625
1738772349718193400,12.437193359375,-0.51910400390625,-0.858123779296875,-0.0005645751953125
1738772349728184300,12.447184326171875,-0.5200653076171875,-0.8573150634765625,-0.0009918212890625
1738772349738175200,12.45717529296875,-0.520843505859375,-0.8568115234375,-0.0021209716796875
1738772349748166100,12.467166259765625,-0.51995849609375,-0.857879638671875,-0.00140380859375
1738772349758158000,12.477157958984375,-0.5199127197265625,-0.8573150634765625,-0.00128173828125
1738772349768149200,12.487149169921874,-0.521331787109375,-0.8580780029296875,-0.00091552734375
1738772349778140200,12.49714013671875,-0.518646240234375,-0.857269287109375,-0.0005950927734375
1738772349788131300,12.50713134765625,-0.5199737548828125,-0.857574462890625,-0.0014801025390625
1738772349798122200,12.517122314453125,-0.5209503173828125,-0.857696533203125,-0.000579833984375
1738772349808114200,12.5271142578125,-0.519683837890625,-0.8589630126953125,-0.001800537109375
1738772349818105300,12.537105224609375,-0.5198211669921875,-0.8582611083984375,-0.001129150390625
1738772349828096300,12.54709619140625,-0.5184326171875,-0.85821533203125,-0.00006103515625
1738772349838087200,12.557087158203124,-0.5200042724609375,-0.8576202392578125,-0.0025482177734375
1738772349848078300,12.567078369140624,-0.5196075439453125,-0.85845947265625,-0.0012969970703125
1738772349858070000,12.577070068359374,-0.5206756591796875,-0.857269287109375,-0.000030517578125
1738772349868061200,12.587061279296876,-0.5190582275390625,-0.8572998046875,-0.0020294189453125
1738772349878052400,12.59705224609375,-0.52020263671875,-0.857574462890625,-0.0012664794921875
1738772349888043300,12.607043212890625,-0.519317626953125,-0.8585205078125,-0.000762939453125
1738772349898034200,12.6170341796875,-0.5203399658203125,-0.85760498046875,-0.0006866455078125
1738772349908026000,12.627026123046875,-0.5205535888671875,-0.859283447265625,0.00128173828125
1738772349918017000,12.63701708984375,-0.5185089111328125,-0.85906982421875,-0.000640869140625
1738772349928008200,12.64700830078125,-0.5183868408203125,-0.859619140625,-0.0015411376953125
1738772349937999400,12.656999267578126,-0.520263671875,-0.857574462890625,-0.0003509521484375
1738772349947990300,12.666990234375,-0.5186920166015625,-0.8570709228515625,-0.000579833984375
1738772349957981200,12.676981201171875,-0.5182647705078125,-0.858856201171875,-0.0015411376953125
1738772349967973000,12.68697314453125,-0.52001953125,-0.8580474853515625,-0.001556396484375
1738772349977964300,12.69696435546875,-0.5200347900390625,-0.857177734375,-0.002105712890625
1738772349987955200,12.706955078125,-0.5196380615234375,-0.85797119140625,-0.0008392333984375
1738772349997946400,12.7169462890625,-0.5198974609375,-0.8574981689453125,-0.0013580322265625
1738772350007937300,12.726937255859376,-0.5195465087890625,-0.858245849609375,-0.002532958984375
1738772350017929000,12.736928955078126,-0.520477294921875,-0.85736083984375,-0.002166748046875
1738772350027920100,12.746920166015625,-0.519012451171875,-0.857666015625,-0.0013275146484375
