time,seconds_elapsed,z,y,x
1738772337304144000,0.023143798828125,-0.008275660914182663,-0.03447919270694256,-0.002635348905692808
1738772337314134800,0.033134765625,-0.012817395997047424,-0.021818448576331136,-0.00016583525331225244
1738772337324126000,0.0431259765625,-0.012508768439292908,-0.025116905599832533,0.0032971327160950747
1738772337334116900,0.053116943359375,-0.014060674056410788,-0.032115970706939695,0.006613486155890859
1738772337344108800,0.06310888671875,-0.026195933008193967,-0.031209377256035804,-0.001435543520230567
1738772337354100000,0.073099853515625,0.006206453424692154,-0.035597383081912994,-0.0015965747342619578
1738772337364091000,0.0830908203125,-0.027777649241685867,-0.031845921593904494,-0.0015649534700030927
1738772337374081800,0.093081787109375,-0.016549568262696265,-0.030952187624573704,0.003178286401176592
1738772337384073000,0.103072998046875,-0.04093523697853088,-0.02751344534754753,0.005608998988196254
1738772337394064000,0.11306396484375,-0.00753682524561882,-0.022443302476406097,0.004712254502804717
1738772337404055800,0.123055908203125,-0.005393967998027801,-0.016786299628019332,-0.004503888432151871
1738772337414047000,0.133046875,0.01046820252239704,-0.033396658167243,-0.00795054801250808
1738772337424038000,0.143037841796875,0.00018295535147190093,-0.034467502269148825,-0.004172796739195473
1738772337434028800,0.15302880859375,-0.015385200658440588,-0.028777766194939613,0.010784866114490432
1738772337444020000,0.16302001953125,0.0046820203363895415,-0.02848842785954475,0.002504162557364907
1738772337454012000,0.173011962890625,-0.030995442244410514,-0.027552023792266844,-0.001701961062697228
1738772337464002800,0.1830029296875,-0.002042319482564926,-0.02565115860700607,-0.003356007313460577
1738772337473994000,0.192993896484375,-0.017949498188495634,-0.034003391888737675,0.0010980198031989856
1738772337483985000,0.20298486328125,-0.014189268872141838,-0.030273557710647582,0.007487801897054305
1738772337493975800,0.212975830078125,-0.04854454293847084,-0.01810088935792446,0.006336265233263839
1738772337503968000,0.222968017578125,-0.025298107385635375,-0.030760464444756507,-0.005097328847233439
1738772337513959000,0.232958984375,0.000002922609448432922,-0.0238853179782629,-0.014090115921670802
1738772337523949800,0.24294970703125,0.016329203510284423,-0.021052140378952026,-0.022777393268980085
1738772337533941000,0.25294091796875,-0.02184884371459484,-0.03181318836808204,0.004594916300027398
1738772337543932000,0.262931884765625,-0.027568974927067755,-0.031194179686903953,0.0037600238203769547
1738772337553922800,0.2729228515625,0.010960954475402832,-0.028395488879084586,-0.013453069260303162
1738772337563915000,0.2829150390625,-0.012423428243398666,-0.018885317733883855,-0.004478919529321138
1738772337573906000,0.292906005859375,-0.013270400461554527,-0.024153029003739356,0.0024752492734231054
1738772337583896800,0.302896728515625,-0.001592237627506256,-0.02670095992088318,0.010969888983818236
1738772337593888000,0.312887939453125,0.00027355624437332154,-0.02859831797480583,-0.0015706856661126948
1738772337603879000,0.32287890625,-0.026130466556549072,-0.024666823744773865,-0.0036942742409417405
1738772337613870800,0.332870849609375,-0.015552958440780638,-0.027182605957984923,-0.0005081367518054321
1738772337623862000,0.342862060546875,-0.010503273835778235,-0.03688566932678222,-0.014954136314394417
1738772337633853000,0.35285302734375,-0.006314589974284171,-0.027009002956748008,-0.004134913555864477
1738772337643843800,0.36284375,-0.015583938100934027,-0.007113046875596046,0.02007616235311143
1738772337653834800,0.372834716796875,-0.022291326785087585,-0.01535772812962532,0.00558324577572057
1738772337663827000,0.382826904296875,-0.01757365061342716,-0.031326866155862804,0.0009195419807336292
1738772337673817900,0.39281787109375,-0.006115852531790733,-0.02350713231563568,-0.006951111479266546
1738772337683809000,0.40280908203125,-0.0000935235023498535,-0.0347515799075365,-0.013040235834335908
1738772337693800000,0.412800048828125,-0.02128945626616478,-0.03059329118430614,-0.011500600610324182
1738772337703790800,0.422790771484375,-0.027774726632237432,-0.028469138637185094,0.013718249260331503
1738772337713783000,0.432782958984375,-0.005462357059121132,-0.0397013112694025,0.00835720742601552
1738772337723774000,0.44277392578125,-0.002886369091272354,-0.03867255274355411,-0.010300828332547097
1738772337733764900,0.452764892578125,0.00035363574326038356,-0.016287117934226988,-0.007583969447639538
1738772337743755800,0.462755859375,-0.02199263609945774,-0.029572715964913367,0.01296044288817211
1738772337753747000,0.472746826171875,-0.022554361635446548,-0.02546469612419605,0.008372686981293372
1738772337763739000,0.48273876953125,-0.00128010293841362,-0.02892155857980251,-0.013310851202951744
1738772337773730000,0.49272998046875,-0.014659808993339537,-0.04339958126544952,-0.0027570710226427764
1738772337783721000,0.502720947265625,-0.01922667851746082,-0.02982522942125797,0.008191214625787688
1738772337793711900,0.5127119140625,-0.011903203761577606,-0.018448095360398292,0.0007768923818308394
1738772337803702800,0.522702880859375,-0.02312368595600128,-0.010219196197390555,0.0010780250446521676
1738772337813694000,0.53269384765625,0.0030301614761352536,-0.03159749979078769,0.00010976110945339313
1738772337823686000,0.542685791015625,-0.010657587614655495,-0.029998832422494886,0.0010225148730853106
1738772337833676800,0.5526767578125,-0.00516132828593254,-0.02213467491865158,-0.005876550183468498
1738772337843668000,0.56266796875,-0.018998714980483052,-0.032117724272608755,0.00797192872725427
1738772337853659000,0.572658935546875,-0.025441315248608588,-0.02777355758845806,-0.009356013771594734
1738772337863649800,0.58264990234375,-0.009589666122198104,-0.030759295400977132,-0.003647920056787552
1738772337873642000,0.59264208984375,-0.014297989943623543,-0.021680501410365104,-0.012500884243648033
1738772337883633000,0.6026328125,-0.019284546184539793,-0.02817570864856243,0.0054918902559264095
1738772337893623800,0.612623779296875,-0.015558219137787817,-0.02577273916006088,-0.0008834751535090617
1738772337903615000,0.622614990234375,-0.009962591087818145,-0.034487960535287854,0.0008655844454362522
1738772337913606000,0.63260595703125,-0.020135025534033773,-0.03643441842794418,0.004652654961298686
1738772337923597800,0.642597900390625,-0.01622340504825115,-0.02402735679745674,0.004890647843590705
1738772337933589000,0.652589111328125,-0.022520459365844726,-0.02072773073017597,-0.004154141129431081
1738772337943580000,0.662579833984375,-0.0043932665228843685,-0.013707622835040092,0.003178619761316804
1738772337953570800,0.67257080078125,-0.011850596791505814,-0.02719020474255085,0.0015005099316651466
1738772337963562000,0.68256201171875,-0.015236732098460196,-0.02632569686770439,-0.004520862399839097
1738772337973554000,0.692553955078125,-0.031443770533800125,-0.024202713364362714,-0.0013724962128908373
1738772337983544800,0.702544921875,-0.02411269699335098,-0.029140754288434982,-0.0034032474136038216
1738772337993536000,0.712535888671875,0.00014729951620101928,-0.028254034581780434,-0.0023802964323898774
1738772338003527000,0.72252685546875,-0.015134440767765045,-0.0330307474642992,-0.002825739786593476
1738772338013517800,0.732517822265625,-0.0013888240098953247,-0.02846972315907478,-0.010527130777045385
1738772338023510000,0.742510009765625,-0.01954348938167095,-0.0199117381721735,0.01821745923407725
1738772338033501000,0.7525009765625,-0.0008218377768993377,-0.03653144906163215,0.0014189611365436575
1738772338043491800,0.762491943359375,-0.017075053441524504,-0.037763621205091476,-0.0062342570303590035
1738772338053483000,0.77248291015625,-0.017262100446224213,-0.014546996268630027,-0.0006232533147442154
1738772338063474000,0.782473876953125,0.003264554753899574,-0.027132337075471878,-0.0038755159842956345
1738772338073465900,0.7924658203125,-0.020773323437571524,-0.03719078975319862,-0.004115505602495978
1738772338083457000,0.80245703125,-0.011962824994325638,-0.028650924944877622,-0.007835138046980137
1738772338093448000,0.812447998046875,-0.035411505120992656,-0.027688801914453505,0.008492211432935437
1738772338103438800,0.82243896484375,-0.012038228318095206,-0.02321837850213051,0.005240884911722969
1738772338113430000,0.832429931640625,-0.012950666987895964,-0.04625321713089943,0.008511869406409096
1738772338123421000,0.8424208984375,-0.01933481506705284,-0.025484569868445394,0.0027162218473793472
1738772338133412900,0.852412841796875,-0.009005728754401206,-0.032220015603303905,0.0018140648262866307
1738772338143404000,0.862404052734375,-0.011688684228062629,-0.03970832553207874,-0.003796824724896578
1738772338153395000,0.87239501953125,-0.02118307328224182,-0.025602058768272398,-0.003885472264373675
1738772338163385900,0.8823857421875,-0.011783376774191856,-0.027829671689867972,0.0029894413066795093
1738772338173377000,0.892376953125,-0.027853052565455436,-0.02809329106211662,-0.003940348823345266
1738772338183369000,0.902368896484375,-0.005102876096963882,-0.02525426824390888,0.013067902442684862
1738772338193360000,0.91235986328125,0.004407295048236846,-0.033144144710898396,0.007465752178739057
1738772338203350800,0.922350830078125,-0.0028442835152149197,-0.028762568625807762,-0.006282993826200254
1738772338213341700,0.932341796875,-0.019904139387607572,-0.020531915897130965,-0.017509183100558583
1738772338223332600,0.94233251953125,-0.001530278307199478,-0.01976443865597248,-0.013010324753262102
1738772338233324800,0.95232470703125,-0.024718261671066284,-0.016176643297076226,0.0011233243494585621
1738772338243315700,0.962315673828125,-0.020076573345065116,-0.024707740277051925,-0.00797384554806049
1738772338253306600,0.972306640625,-0.004861468556523323,-0.03635024727582931,0.0016825633841275702
1738772338263297500,0.982297607421875,-0.026710312271118163,-0.03185995011925697,-0.0013778117088251746
1738772338273288700,0.992288818359375,-0.004783727145195007,-0.03256605256199836,0.0045105522100231605
1738772338283280600,1.00228076171875,-0.010278232908248901,-0.02855097170174122,0.0054045715904328965
1738772338293271800,1.012271728515625,0.004356441643834114,-0.023835049095749853,-0.005577328633231809
1738772338303262700,1.0222626953125,-0.013550970968604087,-0.02730652459859848,-0.006771937253768555
1738772338313253600,1.032253662109375,-0.01840191813111305,-0.032057518517971034,-0.0029309525850927456
1738772338323244500,1.04224462890625,0.002977554506063461,-0.027557284489274022,-0.009635192614223341
1738772338333236700,1.05223681640625,-0.026737200278043747,-0.03618365853726864,-0.001764935304800747
1738772338343227600,1.0622275390625,-0.01063946743607521,-0.04003624231219292,0.008366382821381557
1738772338353218800,1.07221875,-0.0010708441019058226,-0.031052725389599797,0.009134837310074362
1738772338363209700,1.082209716796875,-0.02115735431909561,-0.028936756148934362,0.01150119540701271
1738772338373200600,1.09220068359375,0.004213818302750587,-0.02096446209549904,0.004783865284157218
1738772338383192800,1.10219287109375,-0.015413842231035231,-0.014066519275307655,-0.00934637372699217
1738772338393183700,1.112183837890625,-0.023819267004728317,-0.013901684102416038,0.005093465522868791
1738772338403174700,1.122174560546875,-0.008174538627266883,-0.023586627292633056,0.0075811084869841575
1738772338413165600,1.13216552734375,-0.006467734709382057,-0.021378888115286827,-0.0024335427232785147
1738772338423156700,1.14215673828125,-0.008282675176858902,-0.020020459243655205,-0.006797441587783396
1738772338433147600,1.152147705078125,-0.004673252508044242,-0.032900399082899094,-0.0032016844014287923
1738772338443139800,1.162139892578125,-0.017494740158319474,-0.02679448342323303,0.0014028376938716974
1738772338453130800,1.172130859375,-0.017742577439546586,-0.02682546308338642,-0.005330005091946805
1738772338463121700,1.18212158203125,-0.0026654198169708252,-0.024708909320831297,0.0004892311219358817
1738772338473112600,1.192112548828125,-0.012504676786065101,-0.03056640317738056,-0.00807824663745123
1738772338483103700,1.202103759765625,0.0004985971719026565,-0.0277151053994894,-0.005980503748287447
1738772338493095700,1.212095703125,-0.018627543580532074,-0.028479075509309767,-0.00975028063605423
1738772338503086600,1.222086669921875,-0.008224807509779929,-0.024844518399238586,-0.004348625946848188
1738772338513077800,1.232077880859375,-0.017840777117013932,-0.0327519305229187,0.0006617392862739507
1738772338523068700,1.242068603515625,-0.0020715455770492553,-0.02665069103837013,-0.0005686062262800988
1738772338533059600,1.2520595703125,-0.011968085691332817,-0.0240945768147707,-0.009760083935793954
1738772338543051800,1.2620517578125,-0.011336217528581619,-0.029950901627540587,-0.002252082925860304
1738772338553042700,1.272042724609375,-0.000983165818452835,-0.022187281888723372,0.0012575999873050022
1738772338563033600,1.28203369140625,-0.03218377524614334,-0.03764437873959541,-0.003986643641995033
1738772338573024800,1.292024658203125,0.004704816690087319,-0.0251227508187294,-0.010515176619414705
1738772338583015700,1.302015625,-0.007235211950540542,-0.022895722419023514,0.009318555279949214
1738772338593007600,1.312007568359375,-0.005437222617864609,-0.016463643544912338,-0.008517906421551015
1738772338602998800,1.321998779296875,-0.004546411257982254,-0.021097148564457893,-0.005089156957220984
1738772338612989700,1.33198974609375,-0.009680267015099525,-0.03453764489591121,0.006791152269247686
1738772338622980600,1.341980712890625,-0.014731705185770988,-0.02737666722536087,-0.011256076380901503
1738772338632971800,1.3519716796875,-0.01429506733417511,-0.026171967610716818,-0.0008864080377563368
1738772338642962700,1.361962646484375,-0.0064770870596170425,-0.026194763964414596,-0.01121361862879712
1738772338652954600,1.37195458984375,-0.016076105532050133,-0.02513327221274376,-0.014461224531184416
1738772338662945800,1.38194580078125,-0.021931261301040648,-0.02153027928471565,-0.002475418236781843
1738772338672936700,1.391936767578125,-0.01779167727828026,-0.03107669078707695,0.005362218869605567
1738772338682927600,1.401927734375,0.0013607669591903686,-0.023145897787809372,-0.0007468956774333491
1738772338692918800,1.411918701171875,0.0006195932030677795,-0.022401801422238347,-0.007838102897268254
1738772338702910700,1.42191064453125,-0.027083237236738205,-0.021940613651275632,-0.00815394793038722
1738772338712901600,1.431901611328125,-0.011376549538969993,-0.022984569746255873,-0.00012801714370725675
1738772338722892800,1.441892822265625,-0.007357961547374725,-0.033146482798457146,0.00013886162306298502
1738772338732883700,1.4518837890625,-0.02250584631860256,-0.0427034156948328,-0.0027392111389664933
1738772338742874600,1.46187451171875,-0.0076303487479686734,-0.03286357420384884,-0.009455900799360824
1738772338752866800,1.47186669921875,-0.004904138654470444,-0.033331776237487794,0.002437694883655058
1738772338762857700,1.481857666015625,-0.024428338813781737,-0.022215923461318014,-0.0018835806903196497
1738772338772848600,1.4918486328125,0.008631634745001792,-0.01637421169579029,-0.012291593441099393
1738772338782839800,1.50183984375,-0.013476152166724204,-0.026273674419522285,-0.0029894515814783518
1738772338792830700,1.511830810546875,-0.0045113399446010585,-0.039733459973335265,-0.005049511075066402
1738772338802822700,1.52182275390625,-0.024305589216947553,-0.027587095105648038,0.015185827320063253
1738772338812813800,1.531813720703125,-0.011910218024253844,-0.01979132666289806,-0.010042110039346153
1738772338822804700,1.5418046875,0.02418108605444431,-0.030882044997811317,-0.008173240577679826
1738772338832795600,1.551795654296875,-0.0401806192189455,-0.021892098334431648,0.0069489355052006424
1738772338842786800,1.561786865234375,-0.013613514810800552,-0.02259878529906273,-0.010887944038119166
1738772338852777700,1.57177783203125,0.0077829089611768714,-0.02933247746825218,0.0153619191059086
1738772338862769700,1.581769775390625,-0.055503860557079315,-0.017725626304745674,-0.006243363927066093
1738772338872760800,1.5917607421875,0.04066168073415756,-0.017485972329974172,-0.005045519886538386
1738772338882751700,1.601751708984375,-0.06819090817272663,-0.0270224469602108,-0.006446784394542919
1738772338892742700,1.61174267578125,0.03319850524663925,-0.031712066081166265,-0.008262031964340713
1738772338902733600,1.621733642578125,-0.02657061153948307,-0.02428220834136009,0.011392789429362164
1738772338912725800,1.631725830078125,-0.02404606149792671,-0.024870237362384796,0.010288631004677154
1738772338922716700,1.641716552734375,0.01070610293149948,-0.02309621342718601,-0.00718009678790695
1738772338932707800,1.651707763671875,-0.023540450063347814,-0.03612637539207935,-0.007891253290034364
1738772338942698800,1.66169873046875,-0.009918167424201966,-0.02011807439923286,0.0034593546651478387
1738772338952689700,1.671689697265625,-0.027169161954522132,-0.02981879968047142,-0.008566817888972582
1738772338962681900,1.681681884765625,-0.00615910715162754,-0.03314706732034683,-0.005499445658008335
1738772338972672800,1.6916728515625,-0.030430209577083586,-0.01861409957706928,-0.0024130079669703263
1738772338982663700,1.70166357421875,-0.004959083712100983,-0.0313531696408987,-0.00803570097873453
1738772338992654600,1.711654541015625,-0.013660276561975479,-0.03612812895774841,0.009409398201445584
1738772339002645800,1.721645751953125,-0.0129752169072628,-0.020676877325773238,-0.003623488868429558
1738772339012636700,1.73163671875,-0.0028261633366346356,-0.02709551219642162,0.0016593103727034757
1738772339022628900,1.74162890625,-0.01237140579521656,-0.02307400159537792,-0.0057488195924845055
1738772339032619800,1.751619873046875,-0.006819616886973381,-0.030565234133601186,0.007835977155552246
1738772339042610700,1.761610595703125,-0.03554126898050308,-0.020903671818971632,0.01590486002632533
1738772339052601600,1.7716015625,0.012810381734371185,-0.0351309346139431,-0.014666897462896303
1738772339062592800,1.7815927734375,-0.010618424648046493,-0.03307458660602569,-0.0007238926861144136
1738772339072584700,1.791584716796875,-0.046180151894688604,-0.018500702330470083,0.01764206707398407
1738772339082575600,1.80157568359375,0.016921324184536932,-0.023860183537006377,-0.0008734389583289157
1738772339092566800,1.81156689453125,-0.021019991675019264,-0.027641455641388892,-0.01408040966169792
1738772339102557700,1.8215576171875,-0.003711713999509811,-0.03757832776606083,-0.012489399301831143
1738772339112548600,1.831548583984375,-0.03923895445466041,-0.02422200258672237,0.000987940174981486
1738772339122540800,1.841540771484375,-0.01795066723227501,-0.01885901424884796,0.004868776221788721
1738772339132531700,1.85153173828125,0.001619125634431839,-0.0306605112016201,-0.004261515060620149
1738772339142522600,1.861522705078125,-0.01954875007867813,-0.029721769046783447,-0.010541476679517653
1738772339152513800,1.871513671875,-0.010276479342579841,-0.030466449934244154,0.009021784840058535
1738772339162504700,1.881504638671875,-0.015959201154112816,-0.032114217141270635,0.01936467134919949
1738772339172495600,1.89149560546875,-0.021917817297577857,-0.027491818037629127,-0.0011465590945736038
1738772339182487800,1.90148779296875,-0.007983984491229057,-0.029447628280520437,-0.005323855054017622
1738772339192478700,1.911478759765625,-0.003444587495923042,-0.022296002960205077,-0.00004503900990239344
1738772339202469600,1.9214697265625,-0.01481178468465805,-0.022448563173413275,-0.011745833800866967
1738772339212460500,1.93146044921875,-0.016443185278773306,-0.02006371386349201,-0.0017700167636503464
1738772339222451500,1.941451416015625,-0.007905074036121368,-0.03877367503046989,0.005384334803291131
1738772339232443600,1.951443603515625,-0.0010275894820690155,-0.029193361258506773,-0.01250621343931416
1738772339242434600,1.9614345703125,-0.008691840499639511,-0.02962181580364704,-0.004465959583048243
1738772339252425700,1.97142578125,-0.011498714613914489,-0.03248655758500099,-0.0036944888700731096
1738772339262416600,1.981416748046875,-0.010858078622817992,-0.021589315995573996,-0.0023776501008658667
1738772339272407600,1.991407470703125,-0.023809330132603643,-0.026926585370302198,0.014017554150603245
1738772339282399700,2.001399658203125,0.0025531916141510007,-0.022303601744771,-0.011056905113568063
1738772339292390700,2.011390625,-0.016024083083868025,-0.025133856734633444,-0.009778712146094767
1738772339302381600,2.021381591796875,-0.02613222012221813,-0.019247136783599853,0.0008385582995484583
1738772339312372500,2.03137255859375,-0.002744330272078514,-0.0176285956710577,0.00023341032200842164
1738772339322363600,2.04136376953125,-0.016284195324778556,-0.03509294069111347,-0.01669720342232613
1738772339332354600,2.0513544921875,0.002451484805345535,-0.018950784185528754,-0.0004871145133743994
1738772339342346800,2.0613466796875,-0.017622750452160833,-0.01714110441505909,-0.008859671347215771
1738772339352337700,2.071337646484375,-0.01119067157804966,-0.03030804450213909,0.000523391403153073
1738772339362328600,2.08132861328125,-0.021572364860773085,-0.02428746903836727,-0.005999659398262156
1738772339372319500,2.091319580078125,-0.014293313768506049,-0.02599193486869335,0.0026272192565200384
1738772339382310700,2.101310546875,-0.003039513826370239,-0.029303251373767852,0.0001727650343091227
1738772339392302600,2.111302490234375,-0.006674070936441421,-0.024339491486549375,0.003944461026170756
1738772339402293500,2.12129345703125,-0.022713351589441298,-0.01803776099383831,0.007475240384647622
1738772339412284700,2.13128466796875,-0.025482231780886648,-0.02607201436758041,0.004811507917975541
1738772339422275600,2.141275634765625,-0.012322890478372574,-0.028012627041339874,0.003092091113689821
1738772339432266500,2.1512666015625,-0.021093056911230087,-0.02481470778286457,0.00401580808768631
1738772339442257700,2.161257568359375,-0.012938392028212547,-0.023572598767280576,-0.003610881690250244
1738772339452249600,2.17124951171875,-0.037678865531086916,-0.02204582759141922,-0.010539384045486804
1738772339462240500,2.181240478515625,0.009063596421480179,-0.028662615382671355,0.0003513809957366902
1738772339472231700,2.191231689453125,-0.012348609441518783,-0.021022914284467696,-0.007390137650771066
1738772339482222600,2.20122265625,-0.011100655207037924,-0.026142156994342802,0.0015764441200415602
1738772339492213500,2.211213623046875,-0.015288754546642302,-0.037215339672565455,0.0013873718383256345
1738772339502205700,2.221205810546875,-0.027449147939682006,-0.01369768596291542,0.016640690887050003
1738772339512196600,2.231196533203125,-0.013919219759106635,-0.024509587356448172,0.00964348551853327
1738772339522187500,2.2411875,-0.03165127580463886,-0.024165303963422775,-0.007610349422844592
1738772339532178700,2.2511787109375,-0.012460837644338607,-0.019549334600567816,-0.004865304481424391
1738772339542169600,2.261169677734375,-0.0027419921845197675,-0.02523205641210079,-0.0007325383585179224
1738772339552160500,2.271160400390625,-0.017767711880803106,-0.025493337696790692,0.010823893225425854
1738772339562152700,2.281152587890625,0.005449497577548027,-0.03029576954245567,-0.0020615972884814255
1738772339572143600,2.2911435546875,-0.017038813084363936,-0.023386136284470557,0.007527015096013201
1738772339582134500,2.301134521484375,-0.02182137118577957,-0.029973113459348676,0.0049700720386405
1738772339592125700,2.311125732421875,-0.02394727729856968,-0.02756137614250183,0.004310782721068244
1738772339602116600,2.32111669921875,-0.007046995902061462,-0.024712416452169417,-0.01074786656385986
1738772339612108500,2.331108642578125,-0.026935937720537186,-0.0191840084195137,-0.011241084307746495
1738772339622099700,2.341099609375,-0.013144728255271911,-0.028476152899861332,-0.0012261145787197164
1738772339632090600,2.351090576171875,-0.009288637349009513,-0.029502573338150977,0.00458615646319231
1738772339642081500,2.36108154296875,-0.013970657685399054,-0.018851415464282036,-0.009222958551521878
1738772339652072700,2.37107275390625,-0.00765314510166645,-0.013784195202589035,-0.0053410459341248495
1738772339662064600,2.381064697265625,-0.012657821521162986,-0.0341851781964302,0.010860426985175581
1738772339672055600,2.3910556640625,-0.024037293669581412,-0.0350783276438713,0.0017076247601478826
1738772339682046700,2.401046630859375,-0.003232406049966812,-0.02744973246157169,0.012597090610140003
1738772339692037600,2.41103759765625,-0.022265607821941376,-0.02922784804999828,-0.0016941567821544593
1738772339702028500,2.421028564453125,0.006351414853334426,-0.03987491427063942,-0.0038041027074097655
1738772339712019500,2.43101953125,-0.011063245806097983,-0.029815292549133298,0.010162317194289061
1738772339722011600,2.44101171875,-0.025237901630997657,-0.024153029003739356,0.005596517390891676
1738772339732002600,2.45100244140625,-0.019385083949565885,-0.028652093988656997,0.0020104116655827965
1738772339741993700,2.46099365234375,-0.011911387068033217,-0.021764088040590285,-0.002419962864142144
1738772339751984600,2.470984619140625,-0.026283611291646955,-0.030438977405428884,0.004592746034183074
1738772339761975600,2.4809755859375,-0.026738369321823118,-0.028041268613934515,-0.003349020450247917
1738772339771967700,2.4909677734375,-0.016915478965640066,-0.024567455023527144,-0.004524103528051637
1738772339781958700,2.500958740234375,-0.01834697307348251,-0.02945405802130699,-0.00007708268255810253
1738772339791949600,2.510949462890625,-0.02546177351474762,-0.026802082207798957,0.0014862507941608783
1738772339801940500,2.5209404296875,-0.03947802390754223,-0.0341635508865118,0.014821943035779985
1738772339811931600,2.530931640625,-0.012267360898852348,-0.019485037192702292,-0.00794976598615176
1738772339821922600,2.540922607421875,0.0019295067578554152,-0.014686112478375434,-0.0024034923615981825
1738772339831914800,2.550914794921875,-0.0274450562864542,-0.01645312215089798,-0.0005627187665435485
1738772339841905700,2.56090576171875,0.01649929938018322,-0.017620412364602087,0.0038930721905839163
1738772339851896600,2.570896484375,-0.016173136165738105,-0.022826748836040495,0.00216373335554963
1738772339861887500,2.580887451171875,-0.027293080595135688,-0.011874562188982963,-0.006381628470151918
1738772339871878700,2.590878662109375,0.02224748764336109,-0.03896539821028709,0.00864410264257458
1738772339881870600,2.60087060546875,-0.029357027387619018,-0.02999941694438457,0.008484505333803826
1738772339891861500,2.610861572265625,-0.0075157824575901025,-0.026254969719052314,-0.0015106568663439247
1738772339901852700,2.620852783203125,-0.02128887174427509,-0.02370703880190849,0.004201340130378957
1738772339911843600,2.630843505859375,-0.011261398726701736,-0.03418342463076114,0.00296480804727762
1738772339921834500,2.64083447265625,-0.0178507139891386,-0.038220132800936696,0.0020524139016051776
1738772339931826700,2.65082666015625,-0.028586627537012098,-0.009064180943369865,0.0033302917752473147
1738772339941817600,2.660817626953125,-0.010225041416287422,-0.03342822234928608,0.014384305103763472
1738772339951808500,2.67080859375,-0.024063597154617308,-0.04341010265946388,0.008405083422042662
1738772339961799700,2.680799560546875,-0.009852700972557067,-0.018118425014615056,-0.010000749407429248
1738772339971790600,2.69079052734375,0.005549450820684433,-0.025294600254297254,-0.006540875294117722
1738772339981781500,2.700781494140625,-0.028854338562488556,-0.032335166415572165,0.011456297961005476
1738772339991773700,2.710773681640625,-0.02557283267378807,-0.014820552513003349,0.0021212756034452466
1738772340001764600,2.7207646484375,-0.008870119675993918,-0.012033552142977714,-0.0027021042737702373
1738772340011755500,2.730755615234375,-0.023514731100201604,-0.030692075383663177,-0.012222582183853956
1738772340021746700,2.74074658203125,-0.003145312288403511,-0.0260638310611248,0.002778701757494127
1738772340031737600,2.750737548828125,-0.008984101444482803,-0.015737082836031913,-0.010852988030813866
1738772340041729500,2.7607294921875,-0.0030880291432142256,-0.031185411858558654,-0.003837069970316952
1738772340051720700,2.770720703125,-0.01869534811973572,-0.02517243517935276,0.011221904683241154
1738772340061711600,2.780711669921875,0.0016845920860767364,-0.0406032285451889,0.00445256467029103
1738772340071702500,2.79070263671875,-0.00215805481672287,-0.046018823853135105,0.04145858956577722
1738772340081693700,2.800693603515625,-0.0683534052580595,-0.006091302612423896,-0.008109318770794197
1738772340091684600,2.8106845703125,0.09183481861054897,-0.01804945143163204,-0.04156048360425047
1738772340101676500,2.820676513671875,-0.07993161484897136,-0.03766308344006538,-0.017133438273478532
1738772340111667700,2.830667724609375,-0.02769289356768131,-0.02779576942026615,0.03380003078676527
1738772340121658600,2.84065869140625,-0.04117138382196426,-0.016325111857056616,0.021828093187510965
1738772340131649500,2.8506494140625,0.005903671085834503,-0.027211832052469253,-0.02462932529557729
1738772340141640700,2.860640625,0.03283084097802639,-0.04031681281924247,-0.023386111168295608
1738772340151632600,2.870632568359375,-0.06554243949055671,-0.03025309944450855,-0.007447373988543404
1738772340161623600,2.88062353515625,0.011655366480350494,-0.028837387427687645,-0.0009676737050875089
1738772340171614700,2.89061474609375,-0.02290682833492756,-0.03871639188528061,0.005077555567683884
1738772340181605600,2.900605712890625,-0.03642798868715763,-0.03539163137674332,0.026585329618002286
1738772340191596500,2.910596435546875,-0.008616437175869941,-0.03642623512148857,-0.010312690016988198
1738772340201588200,2.920588134765625,0.009184007930755614,-0.036812019568681714,-0.00808713091351674
1738772340211579100,2.9305791015625,-0.020843466064333915,-0.03220423351228237,0.021531201733322812
1738772340221570000,2.940570068359375,-0.02417991701066494,-0.026041034707427024,-0.005613990257144905
1738772340231561000,2.95056103515625,-0.01350070208609104,-0.022333412361145017,-0.020757146337616723
1738772340241552100,2.96055224609375,-0.00029459903240203856,-0.021309330010414122,0.010208557214011671
1738772340251543000,2.97054296875,-0.005139116454124451,-0.030493922463059424,0.008658705415017903
1738772340261535200,2.98053515625,-0.015434885019063949,-0.01105856963098049,-0.01397213268985506
1738772340271526100,2.990526123046875,-0.013867197310924529,-0.023970073652267453,-0.012612122640846064
1738772340281517000,3.00051708984375,-0.015149053815007208,-0.02984627220928669,0.036010393462749195
1738772340291508000,3.010508056640625,-0.06497486873567104,-0.015541268002986906,0.0016879062795254866
1738772340301499100,3.0204990234375,0.044480946761369704,-0.02172024889886379,-0.017592263982351867
1738772340311491000,3.030490966796875,-0.04217033173143864,-0.030990181547403333,-0.007778574137709802
1738772340321482000,3.04048193359375,0.00010346037447452545,-0.030437808361649513,-0.0024076764880155677
1738772340331473200,3.05047314453125,-0.02688859144747257,-0.01813303806185722,-0.010641824931587324
1738772340341464000,3.060464111328125,0.01687748504281044,-0.02685585822165012,0.019708621382084675
1738772340351455000,3.070455078125,-0.015740005445480345,-0.034788404786586756,0.0017579324585676659
1738772340361446100,3.080446044921875,-0.051714405146241184,-0.032656068933010096,-0.006395820250641554
1738772340371438000,3.09043798828125,0.018702362382411956,-0.03644961599707603,-0.024101714375033043
1738772340381429000,3.100428955078125,-0.006425064611434936,-0.028226562052965164,-0.004569755600951611
1738772340391420200,3.110420166015625,-0.020454759007692336,-0.02031739636361599,0.010129710690985666
1738772340401411000,3.1204111328125,-0.03108662765920162,-0.04081424094736576,-0.011414874538651202
1738772340411402000,3.130402099609375,0.0022416414469480514,-0.03181026575863361,-0.010540631862723967
1738772340421394200,3.140394287109375,-0.007336334237456321,-0.03151040602922439,-0.003442863613006193
1738772340431385000,3.150385009765625,-0.01815934154689312,-0.03701718675196171,-0.0008338946825184393
1738772340441376000,3.1603759765625,-0.024160043266415594,-0.030124504628777502,-0.0009955606507894117
1738772340451367200,3.1703671875,-0.0049789574563503265,-0.017422259443998337,0.001389858339645434
1738772340461358000,3.180358154296875,0.003230652484297752,-0.029230770659446716,-0.008009316436952213
1738772340471349000,3.190348876953125,-0.006281856748461723,-0.013168109130859374,-0.011168480295839254
1738772340481341200,3.200341064453125,-0.019894787037372588,-0.021101824739575385,0.004345705620688386
1738772340491332000,3.21033203125,-0.006163198804855346,-0.028712299743294714,0.01511562304450781
1738772340501323000,3.220322998046875,-0.015440730237960814,-0.020182956328988075,-0.001550666933035245
1738772340511314200,3.230314208984375,-0.019907061997056007,-0.03231763075888157,-0.004873804023355478
1738772340521305000,3.24030517578125,-0.017114800930023193,-0.033274493092298504,0.004000724682986037
1738772340531297000,3.250297119140625,-0.008004442757368087,-0.025183541095256803,-0.010281450061930809
1738772340541288200,3.2602880859375,-0.009238368466496467,-0.03354103507399559,0.00504848017024924
1738772340551279000,3.270279052734375,-0.01013268695771694,-0.025462358036637305,-0.006197675321548013
1738772340561270000,3.28027001953125,-0.007784662526845932,-0.016457213804125785,0.002041804600978503
1738772340571261200,3.29026123046875,-0.023211948761343956,-0.022731471768021583,0.01304377493171487
1738772340581252000,3.300252197265625,0.0001052139401435852,-0.01807692396044731,-0.005393380051205167
1738772340591244000,3.310244140625,-0.03134673990011215,-0.03556698794364929,-0.001578164578025462
1738772340601235200,3.320235107421875,0.002616319978237152,-0.02000233906507492,0.008328227926703402
1738772340611226000,3.33022607421875,-0.014456395375728607,-0.011614449948072432,-0.0019167751404456793
1738772340621217000,3.340217041015625,-0.019358195942640304,-0.018819266760349274,-0.008466539277206175
1738772340631208000,3.3502080078125,0.009731120419502257,-0.017059855872392653,-0.005626901112712221
1738772340641200000,3.3602001953125,-0.029097499668598172,-0.027581249886751175,-0.0020581369645602536
1738772340651191000,3.37019091796875,-0.015394553008675574,-0.035921792730689045,-0.0011706260983948594
1738772340661182200,3.38018212890625,0.0020125088661909103,-0.025626024165749547,0.002070410782599356
1738772340671173000,3.390173095703125,-0.0189922852396965,-0.029723522612452504,-0.009323850226285867
1738772340681164000,3.4001640625,-0.022834932142496107,-0.033194413593411444,0.0006932304030808154
1738772340691155000,3.410155029296875,0.009604863691329955,-0.02030687496960163,-0.004122543839702848
1738772340701147100,3.420147216796875,-0.006043371817469597,-0.03291501213014126,-0.007170487567700911
1738772340711138000,3.430137939453125,-0.00717559071779251,-0.030111645147204397,0.001632875598571263
1738772340721129000,3.44012890625,-0.01893792470395565,-0.0290092368632555,0.002264145539700985
1738772340731120000,3.4501201171875,-0.0031079028874635693,-0.020610826352238654,0.005545953964145155
1738772340741111000,3.460111083984375,-0.000720130968093872,-0.028237083446979522,-0.005439415716595249
1738772340751103200,3.470103271484375,-0.022108371433615683,-0.027195465439558027,-0.006012709534435999
1738772340761094100,3.48009423828125,-0.031814941933751104,-0.029303251373767852,0.004051376016344875
1738772340771085000,3.4900849609375,0.0009101005822420119,-0.017903320959210395,-0.0005494791174132842
1738772340781076000,3.500075927734375,-0.006368950510025024,-0.029665654945373533,0.0029685800400970036
1738772340791067100,3.510067138671875,-0.009590835165977477,-0.029767361754179,-0.0060295282384962776
1738772340801059000,3.52005908203125,-0.010200491496920585,-0.024223756152391432,-0.01576651785142603
1738772340811050000,3.530050048828125,-0.01009703112244606,-0.023148235875368118,0.008238016334513668
1738772340821041200,3.540041259765625,-0.011226911935210228,-0.017561375653743744,0.009465336489630863
1738772340831032000,3.550031982421875,-0.017740823873877525,-0.024247137027978895,-0.005489554451656295
1738772340841023000,3.56002294921875,-0.01590484061837196,-0.03211187905371189,-0.0015889348505006636
1738772340851014100,3.57001416015625,-0.0158902275711298,-0.026134558209776875,-0.0016778769342112353
1738772340861006000,3.580006103515625,-0.017985738545656202,-0.01895136870741844,-0.0036146468332037326
1738772340870997000,3.5899970703125,-0.014658639949560164,-0.02585632579028606,0.007934940593066857
1738772340880988200,3.59998828125,-0.015117489632964134,-0.021062661772966385,-0.0034075217299221546
1738772340890979000,3.60997900390625,-0.00675298139154911,-0.0253927999317646,0.0022658865472825708
1738772340900970000,3.619969970703125,-0.014184592697024344,-0.01934709002673626,0.006216543277155142
1738772340910962200,3.629962158203125,-0.01151741931438446,-0.022174422407150268,0.00365236676139757
1738772340920953000,3.639953125,-0.02092471460700035,-0.02173778455555439,0.0005256256010790821
1738772340930944000,3.649944091796875,-0.01688917548060417,-0.0220335526317358,-0.011166368253855034
1738772340940935200,3.65993505859375,0.0015372925698757171,-0.022495909446477887,0.010788320730190025
1738772340950926000,3.669926025390625,-0.02809329106211662,-0.021596330258250234,0.004635201502998825
1738772340960917000,3.6799169921875,0.009921674555540085,-0.03147650375962257,0.0003778306112450082
1738772340970909200,3.6899091796875,-0.022538579544425008,-0.03268003433048725,-0.0010682388695771804
1738772340980900000,3.699900146484375,-0.017631518280506134,-0.025927637460827827,0.0020472696523182094
1738772340990891000,3.70989111328125,-0.003824526724219322,-0.03178805392682552,-0.009203582564194221
1738772341000882200,3.719882080078125,-0.015432546931505203,-0.026738953843712804,0.016756823513429844
1738772341010873000,3.729873046875,-0.022767127603292463,-0.024342998617887496,0.004267206157534383
1738772341020865000,3.739864990234375,-0.010481646525859832,-0.028691841477155682,-0.0011987436562485526
1738772341030856200,3.749856201171875,-0.023920389291644095,-0.025118074643611907,0.00302020062947995
1738772341040847000,3.75984716796875,-0.014345920738577841,-0.03783551739752292,0.007704226834932342
1738772341050838000,3.769838134765625,-0.005676876592636108,-0.03693243107795715,-0.0012299973110377323
1738772341060829200,3.7798291015625,-0.037409400939941405,-0.02914601498544216,0.006122333646571496
1738772341070820000,3.789820068359375,0.00416881011724472,-0.030329087290167808,-0.005141396317823091
1738772341080812000,3.79981201171875,-0.0008919804036617279,-0.03064531363248825,-0.0005881660183425992
1738772341090803200,3.80980322265625,-0.019569792866706848,-0.01884030954837799,0.015402634708787081
1738772341100794000,3.819794189453125,0.008321838143467902,-0.023065233767032622,-0.004596432403678773
1738772341110785000,3.829784912109375,-0.010392799198627472,-0.03323474560379982,0.004459705655486323
1738772341120776000,3.83977587890625,-0.01293254680931568,-0.02859831797480583,-0.005542477657203562
1738772341130768100,3.84976806640625,-0.0010018705189228057,-0.021989713490009305,0.0014818703049211761
1738772341140759000,3.859759033203125,-0.02027297269999981,-0.02799450686275959,-0.006101052254880778
1738772341150750200,3.869750244140625,-0.01081248591542244,-0.028522330129146574,0.0019432350307528395
1738772341160741000,3.8797412109375,0.001917231798171997,-0.027182021436095237,-0.0019364148476102854
1738772341170732000,3.88973193359375,-0.012911504021286964,-0.023732173243165015,0.006830669145594583
1738772341180723000,3.899722900390625,-0.022066870379447937,-0.033142391145229336,-0.003606437268928857
1738772341190715100,3.909715087890625,-0.02235562419295311,-0.027612229546904562,-0.0006525890070828609
1738772341200706600,3.91970654296875,-0.006436755049228668,-0.022169746232032776,0.015082574724854202
1738772341210697500,3.929697509765625,-0.016561843222379684,-0.024743396112322805,0.006899283110618125
1738772341220688400,3.9396884765625,-0.01564355933368206,-0.018620529317855832,0.0001232188126479741
1738772341231928300,3.95092822265625,-0.00865267753303051,-0.025718963146209715,-0.010336899726348929
1738772341241920500,3.96092041015625,-0.020495675539970396,-0.023162264400720594,-0.0044120968042290765
1738772341251911400,3.970911376953125,-0.022029460978507994,-0.024935119292140005,0.00046150971465976906
1738772341261902300,3.98090234375,-0.006951134312152862,-0.02401566635966301,0.0006721350994135718
1738772341271893500,3.9908935546875,-0.010987842482328414,-0.02656184371113777,-0.0015830142830789555
1738772341281884400,4.000884521484375,-0.009210311415791511,-0.02400631400942802,0.011025788456096778
1738772341291876400,4.01087646484375,-0.014803601378202438,-0.02501987496614456,0.004639065969007788
1738772341301867500,4.020867431640625,-0.013903437668085097,-0.0295101721227169,-0.008203948526486055
1738772341311858400,4.0308583984375,-0.01407411805987358,-0.03398702527582645,0.0008182963962317444
1738772341321849300,4.040849365234375,-0.021018238109350204,-0.022876433196663853,-0.004697594648145604
1738772341331840500,4.050840576171875,-0.018698855251073836,-0.02761982833147049,-0.006490601845027413
1738772341341831400,4.06083154296875,-0.012735562932491302,-0.022070377510786054,0.002622408367373282
1738772341351823400,4.0708232421875,-0.029039047479629515,-0.02701192556619644,0.004180035905801923
1738772341361814500,4.080814453125,-0.01239186406135559,-0.021648352706432342,0.00370601947766263
1738772341371805400,4.090805419921875,-0.0035480478703975677,-0.02300385896861553,-0.006181251626420999
1738772341381796400,4.10079638671875,-0.023940847557783126,-0.03210603383481502,-0.009803090818814234
1738772341391787500,4.11078759765625,-0.007955927440524101,-0.032089667221903796,-0.010352920421032467
1738772341401779500,4.120779541015625,-0.03647533496022224,-0.024105682730674743,-0.0031986784519453066
1738772341411770400,4.130770263671875,-0.0037216508716344833,-0.031277766317129134,-0.009101193052087909
1738772341421761500,4.140761474609375,-0.014986556729674338,-0.029756255838274955,-0.015098868272529216
1738772341431752400,4.15075244140625,-0.014499065473675727,-0.02693652224242687,-0.00012012153161922469
1738772341441743400,4.160743408203125,0.0009358195453882217,-0.01602642117142677,0.003225680623302469
1738772341451734500,4.170734619140625,-0.012634440645575522,-0.026379472881555555,-0.008681990392482838
1738772341461726500,4.1807265625,-0.009433598777651786,-0.029856793603301048,-0.004992662896361435
1738772341471717400,4.19071728515625,-0.026493454650044438,-0.019231939214468002,-0.000810740994149819
1738772341481708500,4.20070849609375,-0.002388356441259384,-0.018491934502124784,-0.004437333993474022
1738772341491699500,4.210699462890625,-0.029338322687149046,-0.023120763346552848,-0.0056620728907932055
1738772341501690400,4.2206904296875,-0.02962181580364704,-0.021933599388599394,0.004103848272387404
1738772341511682600,4.2306826171875,-0.019015666115283963,-0.020126842227578164,0.0018554585658886935
1738772341521673500,4.240673583984375,0.0022328736186027526,-0.03045183688700199,0.0006865323758800514
1738772341531664400,4.250664306640625,-0.02380114682614803,-0.02835866400003433,-0.0026948411326331552
1738772341541655600,4.260655517578125,-0.01634557012319565,-0.019364625683426857,-0.007979291191446827
1738772341551646500,4.270646484375,0.0014829320341348648,-0.02775777549743652,-0.007985241441620746
1738772341561637400,4.280637451171875,-0.03246083862185478,-0.03585281914770603,-0.00008525114763760939
1738772341571629600,4.290629638671875,0.01637245813012123,-0.03513561078906059,-0.01308637995593599
1738772341581620500,4.300620361328125,-0.026052725145220754,-0.0347299525976181,0.01929208788688993
1738772341591611400,4.310611328125,-0.01808043109178543,-0.030565234133601186,0.00364353956754785
1738772341601602300,4.320602294921875,-0.00556523291170597,-0.03741524615883827,-0.008348680484620855
1738772341611593500,4.330593505859375,-0.025641806256771087,-0.029619477716088295,0.009900168259919155
1738772341621585400,4.34058544921875,-0.009068857118487358,-0.02406009002327919,0.015538597696932265
1738772341631576600,4.35057666015625,-0.01089607254564762,-0.030774492970108983,-0.0027401975196553394
1738772341641567500,4.3605673828125,-0.029843934121727943,-0.018389058649539946,0.016694485167210223
1738772341651558400,4.370558349609375,-0.021363690546154973,-0.018508885636925695,-0.0013103702125139534
1738772341661549300,4.38054931640625,0.0057125324279069896,-0.02793079397678375,-0.015863355547224636
1738772341671540500,4.39054052734375,-0.015345453169941901,-0.011345569878816604,-0.0060312509797688105
1738772341681532400,4.400532470703125,-0.015358897173404693,-0.030431963142752646,0.007325626755418488
1738772341691523300,4.4105234375,-0.040976153510808945,-0.02817044795155525,0.012320524991350248
1738772341701514500,4.420514404296875,0.011438508859276771,-0.029841011512279508,-0.01032888081667479
1738772341711505400,4.43050537109375,0.012531564792990684,-0.030915947267413136,-0.023179612827743404
1738772341721496300,4.440496337890625,-0.03814765208661556,-0.023164017966389654,0.015724378618085757
1738772341731488500,4.450488525390625,-0.027656068688631057,-0.01769698473215103,0.019056994781160026
1738772341741479400,4.4604794921875,0.008099135303497314,-0.02756780588328838,0.003199207033263519
1738772341751470300,4.47047021484375,-0.024373393756151197,-0.02083352919220924,0.003983578327007126
1738772341761461500,4.48046142578125,-0.004527122035622597,-0.020201076507568357,-0.006995713239395991
1738772341771452400,4.490452392578125,-0.009884265154600143,-0.03494271856546402,-0.002379440199153032
1738772341781444400,4.5004443359375,-0.010494506007432937,-0.033139468535780904,0.013890669518057256
1738772341791435500,4.510435546875,-0.022815058398246765,-0.012758359286189078,-0.0073714626330533065
1738772341801426400,4.520426513671875,-0.01476736102104187,-0.024560440760850906,-0.009448626241780583
1738772341811417300,4.530417236328125,-0.011184241837263107,-0.03607727555334568,-0.007884526721725706
1738772341821408500,4.540408447265625,0.0040963294029235835,-0.0271095407217741,0.0035799967865750657
1738772341831399400,4.5503994140625,-0.018224807998538015,-0.036820787397027016,0.010050555923994398
1738772341841391400,4.560391357421875,-0.022886370068788527,-0.013613514810800552,-0.0005361070375423878
1738772341851382500,4.570382568359375,-0.0036257892817258834,-0.03318973741829395,-0.011674123696458991
1738772341861373400,4.58037353515625,-0.017733225089311598,-0.02852642178237438,-0.006138338358234614
1738772341871364400,4.5903642578125,-0.013241758888959884,-0.0235889653801918,-0.005371869189006975
1738772341881355500,4.60035546875,-0.017086743879318238,-0.025113398468494415,-0.000022524642350617795
1738772341891347500,4.610347412109375,-0.026426234632730482,-0.01355389357805252,0.0013847940054605714
1738772341901338400,4.62033837890625,0.011194763231277466,-0.03265431536734104,0.002008102119131945
1738772341911329500,4.63032958984375,0.009682605102658271,-0.03264437849521637,-0.0004436144400096964
1738772341921320400,4.640320556640625,-0.023584873726963995,-0.036056817287206645,-0.005763916696916567
1738772341931311400,4.650311279296875,-0.004472176977992058,-0.01912438718676567,-0.014524623464973409
1738772341941303600,4.660303466796875,-0.026719664621353147,-0.028431144714355466,0.00032173934272141194
1738772341951294500,4.67029443359375,-0.01303016196489334,-0.029821137768030165,-0.0017465342817187773
1738772341961285400,4.680285400390625,-0.0075718965590000145,-0.023280337822437287,-0.0014061153547023422
1738772341971276500,4.690276611328125,-0.021000702452659607,-0.026745383584499356,-0.0001528376327769365
1738772341981267500,4.700267333984375,-0.005696165814995766,-0.03769406310021877,0.000009617211716249585
1738772341991259400,4.71025927734375,-0.013213117316365241,-0.033932080218195916,0.0007830629693577066
1738772342001250600,4.72025048828125,-0.004870820906758308,-0.04139116405248642,0.002228346998890629
1738772342011241500,4.730241455078125,-0.0009387421548366546,-0.03857376854419708,-0.01042385192401707
1738772342021232400,4.740232421875,-0.02495323947072029,-0.018269816184043882,0.0014849938437691888
1738772342031223600,4.7502236328125,-0.03243511965870857,-0.028445173239707945,0.004993737183662597
1738772342041214500,4.76021435546875,-0.01556464887857437,-0.023483751440048217,-0.009239053453085944
1738772342051206400,4.770206298828125,-0.009712415719032287,-0.027682956695556638,-0.0031418325565289703
1738772342061197600,4.780197509765625,-0.01972819829881191,-0.023798808738589285,0.006303076491359388
1738772342071188500,4.7901884765625,-0.024331308180093762,-0.021875731721520422,-0.0119159684866725
1738772342081179400,4.800179443359375,-0.0230967979490757,-0.016062077006697654,-0.0035704240989871323
1738772342091170300,4.81017041015625,-0.015747019708156586,-0.03328092283308506,0.004850233634811593
1738772342101162500,4.82016259765625,-0.007122983747720718,-0.039922845065593716,-0.0013452874039125162
1738772342111153400,4.8301533203125,-0.026174305698275564,-0.01664133819937706,-0.0027746808862139003
1738772342121144600,4.84014453125,-0.030543606823682783,-0.03472936807572841,-0.009701173947454662
1738772342131135500,4.850135498046875,-0.015695581781864164,-0.03759294081330299,-0.0011752680241828783
1738772342141126400,4.86012646484375,0.0016886837393045423,-0.013816343906521797,-0.0014818234975042287
1738772342151117300,4.870117431640625,-0.02392272737920284,-0.011108253991603851,0.00001294053831952624
1738772342161109500,4.880109619140625,-0.028046529310941693,-0.024675007051229474,0.010859491978480946
1738772342171100400,4.890100341796875,-0.019226093995571136,-0.030357144340872763,0.0011133486614271532
1738772342181091300,4.90009130859375,-0.02374795533418655,-0.030635961282253262,-0.0032337783064343966
1738772342191082500,4.91008251953125,-0.0000602057546377182,-0.018093290573358536,-0.0055755967588047494
1738772342201073400,4.920073486328125,-0.007221183425188064,-0.025887889972329138,0.005919598165684147
1738772342211066400,4.93006640625,-0.0015963292807340621,-0.021959902873635292,0.004110991540871327
1738772342221057300,4.940057373046875,0.013740940582752227,-0.03248012784421444,-0.005804995342687471
1738772342231048200,4.950048095703125,-0.013717559707164763,-0.020554127728939057,0.005491457572730723
1738772342241039400,4.960039306640625,-0.010268880558013916,-0.020708441507816314,0.0032349793162546117
1738772342251030300,4.9700302734375,0.0018003274202346802,-0.027801030117273327,-0.006133339097775752
1738772342261022200,4.980022216796875,-0.01450549521446228,-0.027803368204832077,0.006000332968408475
1738772342271013400,4.990013427734375,-0.0076303487479686734,-0.019269348615407942,0.007163313474820461
1738772342281004300,5.00000439453125,-0.0002922609448432922,-0.011641337954998016,0.0024457731588336173
1738772342290995200,5.0099951171875,-0.01961889270544052,-0.02554360657930374,0.004582849119609454
1738772342300986400,5.019986328125,-0.004050152173638344,-0.028390228182077405,-0.009582302516361232
1738772342310978000,5.02997802734375,-0.007166238367557525,-0.03169803755581379,-0.008272834202856755
1738772342320969200,5.03996923828125,-0.024517186141014096,-0.018235329392552374,-0.006804116782097844
1738772342330960400,5.04996044921875,0.0014472761988639832,-0.021183657804131506,0.0027290014138503463
1738772342340951300,5.059951416015625,-0.020000585499405858,-0.016813772156834602,-0.00034608604940003713
1738772342350942200,5.069942138671875,-0.023279753300547597,-0.03193593796491623,0.0024320072116737717
1738772342360933400,5.079933349609375,-0.013750292932987213,-0.021880992418527603,0.0043485711479210295
1738772342370925300,5.08992529296875,-0.005237316131591796,-0.03593640577793121,0.0005729593160562217
1738772342380916200,5.099916259765625,-0.026182489004731177,-0.022921441382169724,-0.008699353660881752
1738772342390907400,5.109907470703125,-0.009552256721258163,-0.03774783911406994,-0.003227897696563741
1738772342400898300,5.119898193359375,-0.029907062485814092,-0.018891162952780722,0.010136634763760958
1738772342410889200,5.12988916015625,-0.013905775755643843,-0.019333646023273466,0.005297768481401726
1738772342420881200,5.139881103515625,-0.019856208592653274,-0.02145019978582859,0.002743607611226616
1738772342430872300,5.149872314453125,-0.04424655348360538,-0.037760698595643044,0.010882268924225355
1738772342440863200,5.15986328125,-0.008623451438546181,-0.031332126852869985,-0.0069009350699430795
1738772342450854400,5.1698544921875,-0.01253916357755661,-0.032813889843225474,-0.0005687500734638888
1738772342460845300,5.17984521484375,-0.012803367471694945,-0.035678631624579425,-0.015075082113209645
1738772342470837000,5.1898369140625,-0.018296704190969466,-0.028072832795977592,-0.013294838499778415
1738772342480828200,5.199828125,-0.02091127060353756,-0.03021569004356861,0.01010513908037683
1738772342490819300,5.2098193359375,-0.01362052907347679,-0.02519289344549179,0.0006139614716579671
1738772342500810200,5.219810302734375,-0.014319617253541946,-0.021781039175391197,-0.0025405250704672653
1738772342510801400,5.229801513671875,-0.021633739659190177,-0.03750467800796032,0.002236109038593713
1738772342520792300,5.239792236328125,-0.003977671459317207,-0.0407949517250061,-0.002045369956176728
1738772342530784300,5.2497841796875,-0.013087445110082625,-0.017612229058146477,-0.0006805307517119217
1738772342540775400,5.259775390625,0.0013145897299051284,-0.030503274813294408,-0.0025834588882513343
1738772342550766300,5.269766357421875,-0.031467735931277274,-0.021967501658201216,0.010308785593428182
1738772342560757200,5.27975732421875,-0.011674655702710151,-0.019597265395522118,0.00518839096443844
1738772342570748400,5.28974853515625,-0.00024608371555805207,-0.029807109242677685,0.006297319179074838
1738772342580740000,5.299739990234375,-0.027243980756402015,-0.02064063696861267,0.011784444211627124
1738772342590731300,5.309731201171875,0.0064472764432430265,-0.03771335232257843,-0.007662310222233645
1738772342600722400,5.319722412109375,-0.029338322687149046,-0.021539631634950637,0.0026490497791266535
1738772342610713300,5.32971337890625,-0.008185060021281242,-0.024324293917417524,-0.008450225179933477
1738772342620704300,5.339704345703125,-0.003845569512248039,-0.02821487161517143,-0.0021739647719077764
1738772342630696200,5.3496962890625,-0.025146131694316863,-0.0248918646723032,-0.0034519453935383353
1738772342640687000,5.35968701171875,-0.002599368843436241,-0.025851065093278884,0.01073554593840381
1738772342650678300,5.36967822265625,-0.03099076606929302,-0.02368891862332821,0.014328218401817139
1738772342660669400,5.37966943359375,-0.01097147586941719,-0.036837738531827924,-0.01181545697946567
1738772342670660400,5.389660400390625,-0.004540566039085388,-0.030400983482599255,-0.002254596826643683
1738772342680651300,5.3996513671875,-0.029410218879580497,-0.028378537744283675,0.008309639673953642
1738772342690643200,5.409643310546875,0.009354688322544097,-0.026737784799933433,-0.005415503976400941
1738772342700634400,5.41963427734375,-0.011088380247354507,-0.03236789964139462,-0.00780841672012466
1738772342710625300,5.429625244140625,-0.026830139258503912,-0.016788637715578078,-0.005559318052505841
1738772342720616200,5.4396162109375,-0.004492050722241401,-0.024894202759861945,-0.00005061594238504767
1738772342730607400,5.449607421875,-0.03843523685634136,-0.01952127754986286,0.0022694016701309007
1738772342740599000,5.45959912109375,-0.0014274024546146393,-0.020747604474425314,-0.010552731009182753
1738772342750590200,5.469590087890625,-0.0021148001968860626,-0.03649637774825096,-0.005778976127086207
1738772342760581400,5.479581298828125,-0.020202245551347732,-0.029924013620615003,-0.003979604263143846
1738772342770572300,5.489572265625,-0.028020810347795484,-0.025412089154124257,0.009293133144325111
1738772342780563200,5.499563232421875,-0.0223123695731163,-0.02677227159142494,0.003619502246478805
1738772342790555100,5.50955517578125,-0.017631518280506134,-0.018717559951543807,-0.00567026647204766
1738772342800546000,5.519546142578125,-0.015571078619360922,-0.0249222598105669,0.004338475587236462
1738772342810537200,5.529537109375,-0.038407764327526094,-0.026752982369065283,0.008117971293063601
1738772342820528400,5.5395283203125,0.0024175825357437134,-0.02583937465548515,-0.0018201018414285498
1738772342830519300,5.549519287109375,0.004684942945837974,-0.038572599500417706,-0.0032855712841090277
1738772342840510200,5.55951025390625,-0.03156359752118587,-0.03286415872573852,-0.012250969169766176
1738772342850502100,5.569502197265625,0.0027156886994838714,-0.02239770976901054,-0.007348566956300056
1738772342860493000,5.5794931640625,-0.02753565717935562,-0.02726151641309261,0.008370927707402734
1738772342870484200,5.589484130859375,-0.0139338328063488,-0.017824995025992392,-0.0026935739074426235
1738772342880475400,5.599475341796875,-0.007874678897857666,-0.022808044135570523,-0.007478391322959214
1738772342890466300,5.60946630859375,-0.018864859467744827,-0.0254015677601099,-0.016342541340825845
1738772342900458200,5.619458251953125,0.005665770676732063,-0.02689209857881069,-0.006730584613361861
1738772342910449200,5.62944921875,-0.002602291452884674,-0.021033435678482055,0.002284971415309701
1738772342920440300,5.6394404296875,-0.022361469411849973,-0.02910977462828159,-0.0008506414629868231
1738772342930431200,5.64943115234375,0.009468085569143294,-0.02549216865301132,-0.009701743627968244
1738772342940422400,5.65942236328125,-0.015613164195418357,-0.026724340796470642,-0.012160829501168336
1738772342950414000,5.6694140625,-0.010687982752919196,-0.031205870124697683,-0.0022837715471338014
1738772342960405000,5.679405029296875,-0.017925532791018484,-0.02982522942125797,0.00581149358213297
1738772342970396200,5.689396240234375,-0.017772972577810287,-0.032221769168972965,-0.00035977208145777695
1738772342980387300,5.69938720703125,-0.019725860211253166,-0.024286299994587895,-0.0040700761502375825
1738772342990378200,5.709378173828125,-0.01159457620382309,-0.03149930011332035,-0.0016394560364075004
1738772343000369400,5.719369384765625,-0.016428572231531144,-0.03605155659019947,0.0020251548602769616
1738772343010361000,5.729361083984375,-0.01557341670691967,-0.028395488879084586,-0.0016852393984037916
1738772343020352000,5.73935205078125,-0.011992051088809966,-0.02539630706310272,0.010948680657363728
1738772343030343200,5.74934326171875,-0.02314998944103718,-0.013673136043548584,0.009303734453441575
1738772343040334300,5.759334228515625,-0.007167991933226585,-0.030565234133601186,-0.003968080505420221
1738772343050325200,5.7693251953125,-0.010430208599567413,-0.03207856130599975,-0.00021199307464412413
1738772343060317200,5.779317138671875,-0.031089550268650054,-0.023094459861516953,-0.01605762916044332
1738772343070308000,5.78930810546875,-0.008814590096473693,-0.02592529937326908,-0.018603529092349344
1738772343080299300,5.79929931640625,-0.005967968493700027,-0.022635025656223298,0.010171038215217414
1738772343090290400,5.80929052734375,-0.015156652599573134,-0.03471884668171406,-0.002370065016031731
1738772343100281300,5.81928125,-0.008576105165481566,-0.024092238727211952,0.004258190592372557
1738772343110273000,5.82927294921875,-0.01101589953303337,-0.019965514186024665,0.003291419927938841
1738772343120264200,5.83926416015625,-0.017278467059135435,-0.03539163137674332,-0.00615683527943911
1738772343130255000,5.849255126953125,-0.010808978784084319,-0.03137245886325836,-0.0019070026651024816
1738772343140246300,5.859246337890625,-0.002291325807571411,-0.03256312995254993,-0.005231607910012826
1738772343150237400,5.869237548828125,-0.009485621225833893,-0.02791734997332096,-0.002956826811865903
1738772343160228400,5.879228271484375,-0.006259060394763946,-0.008515314888954162,0.008560889330040664
1738772343170220000,5.889219970703125,-0.016668226206302643,-0.029803017589449882,-0.0010867803149099927
1738772343180211200,5.899211181640625,-0.0049479777961969375,-0.03297463336288929,-0.003058447997347684
1738772343190202000,5.9092021484375,-0.014503157126903534,-0.02445873395204544,-0.010985830905043984
1738772343200193300,5.919193359375,-0.001132218900322914,-0.0340676892966032,-0.0008736524458159693
1738772343210183700,5.92918359375,-0.004555179086327552,-0.024801848301291465,0.011076370149152352
1738772343220175600,5.939175537109375,-0.021231588599085808,-0.03418868532776832,-0.014199263968126615
1738772343230166800,5.949166748046875,-0.00948269861638546,-0.02376023029386997,-0.01377855319638038
1738772343240157700,5.95915771484375,-0.03355857073068619,-0.042025954824686046,0.016608866410102927
1738772343250148900,5.96914892578125,-0.0029997663378715515,-0.015111059892177581,0.0078006341308238915
1738772343260139800,5.979139892578125,-0.012895721930265426,-0.03155892134606838,0.002040489426726708
1738772343270130700,5.989130615234375,-0.028743279403448105,-0.02573182262778282,0.013770984094566665
1738772343280123000,5.999122802734375,-0.0016325696378946303,-0.0073415949344635,-0.01739055141477147
1738772343290113800,6.00911376953125,-0.017324644288420676,-0.02935118216872215,-0.00043486259468481875
1738772343300104700,6.019104736328125,-0.02063362270593643,-0.02859188823401928,0.014423073061439208
1738772343310096000,6.029095947265625,-0.016991466811299323,-0.034758009648323054,-0.000322348980786046
1738772343320086800,6.039086669921875,-0.021176643541455268,-0.020545359900593755,-0.012572385427146218
1738772343330078700,6.04907861328125,-0.012491817304491996,-0.024888357540965078,-0.004088203178683762
1738772343340070000,6.05906982421875,-0.0015437223106622695,-0.0316366627573967,0.0065311850171652615
1738772343350060800,6.069060791015625,-0.02303483862876892,-0.02643383341729641,0.005040196399093838
1738772343360051700,6.0790517578125,-0.017637948021292687,-0.03347264601290226,-0.0003609799411438871
1738772343370042600,6.089042724609375,-0.01318096861243248,-0.0286649534702301,-0.0013284002011932897
1738772343380034600,6.09903466796875,-0.003556815698742866,-0.025252514678239822,-0.0005398459226766136
1738772343390025700,6.109025634765625,-0.013294365859031676,-0.014172902259230612,0.001828306839126162
1738772343400017000,6.119016845703125,-0.02011690535545349,-0.023187398841977118,0.004623334110336145
1738772343410007800,6.1290078125,0.003065232789516449,-0.020635960793495178,0.008000909368210704
1738772343419998700,6.138998779296875,-0.01129997717142105,-0.03470189554691314,-0.009998299438727553
1738772343429989600,6.14898974609375,-0.01068564466536045,-0.038003859701752664,-0.0023539860974880864
1738772343439981800,6.15898193359375,-0.020675708281993863,-0.028598902496695517,-0.010370067918655695
1738772343449972700,6.16897265625,0.012458499556779861,-0.031331542330980296,0.013014591078070225
1738772343459963600,6.178963623046875,-0.02063888340294361,-0.02517886492013931,0.01599669389508781
1738772343469954800,6.188954833984375,-0.00727320587337017,-0.03643149581849575,-0.006351903477101586
1738772343479945700,6.19894580078125,-0.012473112604022025,-0.026876316487789154,-0.020172386985912453
1738772343489937700,6.208937744140625,-0.024493805265426636,-0.02370411619246006,0.015799254502181427
1738772343499928800,6.2189287109375,-0.0009837503403425216,-0.015484569379687308,0.008712341006618225
1738772343509919700,6.228919677734375,-0.008062894946336746,-0.022339257580041884,-0.005250860599754378
1738772343519910700,6.23891064453125,0.006596914047002792,-0.015902502530813215,-0.003281804999511223
1738772343529901800,6.24890185546875,-0.001654196947813034,-0.02441898646354675,-0.01101885867509991
1738772343539892700,6.258892822265625,-0.02712649185657501,-0.02424830607175827,-0.005653155507042538
1738772343549884700,6.268884765625,-0.026167291435599326,-0.028683658170700073,-0.012113273165549616
1738772343559875800,6.278875732421875,-0.017637363499402998,-0.034221418553590774,-0.00021240406659781
1738772343569866800,6.28886669921875,-0.004948562318086624,-0.021333879929780957,-0.0011180442444980144
1738772343579857700,6.298857666015625,-0.021174305453896522,-0.0263818109691143,-0.0019495608819066546
1738772343589848800,6.308848876953125,-0.025853987702727316,-0.010795534780621528,-0.01374650153221446
1738772343599840800,6.3188408203125,-0.019285715228319168,-0.03083703681230545,-0.0011954089132021181
1738772343609831700,6.328831787109375,-0.004175824379920959,-0.030085926184058188,-0.008732564094028202
1738772343619822800,6.33882275390625,-0.01788344721496105,-0.025633038428425788,0.008137172608810942
1738772343629813800,6.348813720703125,-0.009864391410350799,-0.033468554359674454,0.0012996901299396995
1738772343639804700,6.3588046875,0.001143324816226959,-0.027832594299316404,-0.006342442670656601
1738772343649796600,6.368796630859375,-0.02404606149792671,-0.022655483922362326,0.012484154587844387
1738772343659787800,6.378787841796875,-0.006368950510025024,-0.03104746469259262,-0.0009370525212492794
1738772343669778700,6.38877880859375,-0.005252513700723648,-0.026749475237727163,-0.009397280788677744
1738772343679769900,6.398769775390625,-0.014395020577311514,-0.027638533031940457,0.0019478084578819106
1738772343689760800,6.4087607421875,-0.009081716600060463,-0.022805706048011777,-0.0019692770792404187
1738772343699751700,6.418751708984375,-0.00037760114073753353,-0.02895604537129402,-0.005657916163839399
1738772343709743600,6.42874365234375,-0.02401683540344238,-0.03210077313780785,0.002318080242112046
1738772343719734800,6.43873486328125,-0.018928572353720665,-0.02027940244078636,0.001130694805161329
1738772343729725700,6.4487255859375,-0.008880056548118591,-0.023435820645093915,-0.010349544578790663
1738772343739716900,6.458716796875,-0.007100187394022941,-0.012951836031675337,-0.006591302865190664
1738772343749707800,6.468707763671875,-0.016596914535760877,-0.025180033963918685,-0.004848306539206533
1738772343759699500,6.478699462890625,-0.0031616789013147353,-0.03653261810541153,-0.006529647222271887
1738772343769691000,6.48869091796875,-0.02458323711454868,-0.01706511656939983,-0.004507869345881045
1738772343779681800,6.498681884765625,-0.0061906713336706155,-0.02828033806681633,-6.63295347476378e-7
1738772343789672700,6.508672607421875,-0.03302431772351265,-0.021218144595623014,0.009841165798390283
1738772343799663900,6.518663818359375,-0.012414660415053368,-0.028525837260484695,-0.012243448017013724
1738772343809654800,6.52865478515625,0.009513678276538848,-0.032523966985940934,0.0003898190182051621
1738772343819646700,6.538646728515625,-0.011036942321062088,-0.025610826596617696,-0.005458194623945746
1738772343829638000,6.548637939453125,-0.0070984338283538815,-0.037759529551863666,-0.0017538796212465968
1738772343839628800,6.55862890625,-0.018879472514986992,-0.029314357289671897,-0.0068134485827351455
1738772343849619700,6.56861962890625,-0.00025426702201366424,-0.03255786925554275,-0.0006038145369791891
1738772343859610600,6.578610595703125,-0.016917232531309126,-0.018310148194432257,-0.01141636780941626
1738772343869602600,6.5886025390625,-0.002122398981451988,-0.021740122643113136,0.0004020083545648958
1738772343879593700,6.59859375,-0.009576222118735312,-0.03163257110416889,0.0034502740262600125
1738772343889585000,6.6085849609375,-0.0261900877892971,-0.01127951890528202,-0.012269609938154463
1738772343899575800,6.618575927734375,-0.0035521395236253737,-0.030758710879087447,-0.0009893672303762286
1738772343909566700,6.628566650390625,-0.026901450929045674,-0.033897593426704405,-0.002739317311887862
1738772343919558700,6.63855859375,-0.0015279402196407318,-0.03634323301315307,0.00235225878963829
1738772343929549600,6.648549560546875,-0.019505495458841324,-0.03378711878955364,-0.0027658605422300753
1738772343939540700,6.658540771484375,-0.028368016350269316,-0.03556172724664211,-0.004880760062171611
1738772343949532000,6.668531982421875,-0.013435235634446143,-0.026713819402456283,-0.0002899034493311774
1738772343959522800,6.678522705078125,-0.012108955466747283,-0.031190672555565832,-0.0015434460327378473
1738772343969513700,6.688513671875,-0.019807693275809286,-0.019418986219167707,-0.015211172965518199
1738772343979505700,6.698505615234375,-0.008423544952273368,-0.01927636287808418,-0.00147319951634272
1738772343989496800,6.708496826171875,-0.015963877329230308,-0.03220072638094425,0.010212510728277266
1738772343999487700,6.71848779296875,-0.009983049353957175,-0.029804186633229254,-0.0020818454920663496
1738772344009478700,6.728478759765625,-0.003595394143462181,-0.020348376023769377,-0.0012482270874723325
1738772344019469800,6.7384697265625,-0.01566051046848297,-0.025170097091794012,0.006625371814862592
1738772344029461500,6.74846142578125,0.0037619828820228576,-0.02649871534705162,-0.004140511037944816
1738772344039452700,6.75845263671875,0.0031651860326528548,-0.024105098208785057,0.001142860166990431
1738772344049443800,6.76844384765625,-0.02365092470049858,-0.02214168918132782,0.0038287713577854444
1738772344059434800,6.778434814453125,-0.012455576947331428,-0.028109657675027846,-0.00868834706803318
1738772344069425700,6.78842578125,-0.01395955176949501,-0.0261596926510334,0.003942509956035064
1738772344079416800,6.798416748046875,-0.024408465069532394,-0.025278818163275717,0.0040634157972992396
1738772344089408500,6.808408447265625,-0.0015139116942882538,-0.024081717333197594,-0.010120577536459313
1738772344099399700,6.818399658203125,-0.01644610788822174,-0.006891513079404831,-0.0035096566553460434
1738772344109390800,6.828390869140625,-0.024112112471461295,-0.029316695377230643,0.008009645230515162
1738772344119381800,6.8383818359375,-0.02214285822510719,-0.01736030012369156,-0.007146193376660812
1738772344129372700,6.84837255859375,-0.00033259295523166654,-0.016589315751194954,0.002369554701022571
1738772344139364600,6.858364501953125,-0.012305939343571663,-0.03200140441656112,-0.0016399766262155024
1738772344149355800,6.868355712890625,-0.008398410511016845,-0.023331775748729706,0.00041946866273065095
1738772344159346700,6.8783466796875,-0.014500819039344786,-0.017666005071997642,-0.011527674705273239
1738772344169337900,6.888337890625,-0.020413842475414275,-0.03461889343857765,0.007695657652697991
1738772344179328800,6.898328857421875,-0.010835282269120216,-0.02459375850856304,-0.0008677410115487873
1738772344189320400,6.908320556640625,-0.02110942352414131,-0.029862054300308225,-0.008638879619829821
1738772344199311600,6.9183115234375,-0.026675825479626655,-0.02819792048037052,-0.00008576602922403253
1738772344209302000,6.928302001953125,-0.011706804406642913,-0.025657588347792623,-0.00009029721551341936
1738772344219293000,6.93829296875,-0.015511457386612892,-0.026457214292883873,0.010454981139575829
1738772344229283800,6.948283935546875,-0.016868132692575453,-0.023608839124441144,0.005254073186859023
1738772344239275000,6.95827490234375,0.0028939678758382794,-0.03334054406583309,0.0014355674947611986
1738772344249267000,6.968266845703125,-0.01853402007818222,-0.02928279310762882,-0.007598905580223072
1738772344259258000,6.978258056640625,0.0005827683240175247,-0.018486673805117607,-0.011845613514067372
1738772344269249000,6.9882490234375,-0.02033084036707878,-0.014916414102911947,0.006482233592192642
1738772344279240000,6.998239990234375,-0.01956570121347904,-0.020762802043557165,-0.011863407182373338
1738772344289230800,7.00823095703125,0.004542319604754447,-0.03424070777595043,0.0011777613753685726
1738772344299223000,7.01822314453125,-0.020489245799183844,-0.02613397368788719,-0.004691233406018
1738772344309214000,7.0282138671875,-0.010332008922100067,-0.025375264275074003,0.0018140397101116831
1738772344319204900,7.038204833984375,-0.009013327538967133,-0.030894904479384422,-0.0035132368519203735
1738772344329196000,7.048196044921875,-0.01412380242049694,-0.03402326563298702,-0.0012542435530165676
1738772344339187000,7.05818701171875,-0.011532616883516311,-0.018697686207294464,-0.01594662594197434
1738772344349179100,7.06817919921875,-0.004054243826866149,-0.03216273245811462,-0.010332443888584383
1738772344359170000,7.078170166015625,-0.02344751108288765,-0.020228549036383627,-0.005658481277775717
1738772344369161000,7.088160888671875,-0.004645779979228973,-0.026630817294120788,-0.012666565374977653
1738772344379152000,7.09815185546875,-0.011904957327246665,-0.03550385957956314,-0.012522278658126015
1738772344389143000,7.10814306640625,-0.013745616757869719,-0.02844400419592857,0.0035325352074345572
1738772344399134000,7.118134033203125,-0.003456277933716774,-0.03545534426271915,0.0022898359617393
1738772344409126100,7.128126220703125,-0.027184359523653983,-0.019482699105143546,-0.008959496726188808
1738772344419117000,7.138116943359375,-0.0170621939599514,-0.03360767056941986,0.006141443630773574
1738772344429108000,7.14810791015625,-0.009779051214456557,-0.03282908741235733,-0.008158710870472714
1738772344439099000,7.158098876953125,-0.004995908591151237,-0.026092472633719443,-0.006312548714247532
1738772344449090000,7.168090087890625,-0.02003331872522831,-0.02275602168738842,-0.012213812072220024
1738772344459082000,7.17808203125,-0.013940262547135353,-0.03260638457238674,0.005769301833154167
1738772344469073000,7.188072998046875,-0.017225275567173955,-0.03680032913088798,-0.014907857478765071
1738772344479064000,7.19806396484375,-0.009758592948317527,-0.020780337700247762,0.003391838961956091
1738772344489055000,7.208054931640625,-0.015177110865712166,-0.021151509100198744,-0.004278291523840743
1738772344499046000,7.2180458984375,-0.015473463463783263,-0.02833528312444687,-0.0021438436282798646
1738772344509038000,7.2280380859375,-0.01868774933516979,-0.02404255436658859,0.009501966147503116
1738772344519029000,7.238029052734375,-0.008922726646065712,-0.031847090637683866,-0.006486147148907185
1738772344529020000,7.24802001953125,-0.03345452583432197,-0.03783785548508167,-0.011935921004379632
1738772344539011000,7.258010986328125,-0.0012286650121212004,-0.02200958723425865,0.0072414213539741465
1738772344549002000,7.268001953125,-0.009298574221134186,-0.028749709144234657,-0.0023158197863667736
1738772344558993000,7.277992919921875,-0.02388356441259384,-0.03603986615240574,-0.003963028729322832
1738772344568985000,7.287985107421875,-0.004224339696764946,-0.02829202850461006,0.0018330218301503918
1738772344578976000,7.29797607421875,-0.019756839871406553,-0.031004210072755813,0.005427595131349517
1738772344588967000,7.307966796875,-0.021818448576331136,-0.016359598648548124,0.003056631641241256
1738772344598958000,7.3179580078125,-0.008987024053931236,-0.028009119910001753,0.002557576669967966
1738772344608949000,7.327948974609375,-0.01016542018353939,-0.03176116591989994,0.00035207283219206145
1738772344618941000,7.33794091796875,-0.019440029007196425,-0.019941548788547515,-0.008307285603374475
1738772344628932000,7.34793212890625,-0.005015782335400581,-0.027159809604287145,-0.005774309085123241
1738772344638923000,7.357923095703125,-0.030960370931029317,-0.027274960416555402,-0.011319063181092496
1738772344648914000,7.367913818359375,-0.014047814574837683,-0.028174539604783055,0.005770164916256908
1738772344658905000,7.377905029296875,-0.009932780471444129,-0.023881226325035095,0.0016521362798230257
1738772344668897000,7.38789697265625,-0.010465279912948608,-0.026913725888729093,-0.0037757796535792293
1738772344678888000,7.397887939453125,-0.018729250389337537,-0.018512977290153502,0.007117312058759853
1738772344688879000,7.407879150390625,-0.006207622468471527,-0.024319617742300032,-0.0035171949327632316
1738772344698870000,7.4178701171875,-0.013768997633457182,-0.023764321947097777,-0.006161801432212815
1738772344708861000,7.42786083984375,-0.021820202142000197,-0.03290975143313408,0.009143038882839027
1738772344718853000,7.43785302734375,-0.017415245181322096,-0.02756312970817089,0.003817602651444031
1738772344728844000,7.447843994140625,-0.015624270111322402,-0.030402737048268316,-0.007364968960185069
1738772344738835000,7.4578349609375,-0.0245300456225872,-0.015242577317357063,-0.013528116391046206
1738772344748826000,7.467826171875,-0.0005833528459072112,-0.017041151171922682,0.0015917695533367805
1738772344758817000,7.477817138671875,-0.012734393888711929,-0.031029344514012337,-0.00006664577022311277
1738772344768808000,7.487807861328125,-0.008158756536245346,-0.03317687793672085,0.009999716219323454
1738772344778800000,7.497800048828125,-0.00720832394361496,-0.017107202145457266,-0.003670460682158591
1738772344788791000,7.507791015625,-0.010387538501620292,-0.032795769664645195,0.0015346188388881273
1738772344798782000,7.517781982421875,-0.008891162464022636,-0.03070142773389816,-0.01845812013913528
1738772344808773000,7.527773193359375,-0.001703296786546707,-0.023521745362877846,0.0019136595931078771
1738772344818764000,7.537763916015625,-0.013019640570878982,-0.02370586975812912,-0.002496859458676772
1738772344828756000,7.547755859375,-0.023322423398494718,-0.021233926686644554,-0.00845631242742529
1738772344838747100,7.5577470703125,-0.010769231295585631,-0.022720365852117536,-0.0046017958486743735
1738772344848738000,7.567738037109375,-0.01513853242099285,-0.03676818042695522,0.002605583955091424
1738772344858729000,7.57772900390625,-0.0026110592812299727,-0.023666706791520116,0.008558187057945178
1738772344868719900,7.587719970703125,-0.026481179690361022,-0.030293431454896925,0.015387582128483335
1738772344878712000,7.597712158203125,-0.034714170506596566,-0.02295943530499935,-0.007160744775109924
1738772344888703000,7.607702880859375,0.012922025415301323,-0.023738602983951567,0.00041148628567461853
1738772344898694100,7.617694091796875,-0.01596738446056843,-0.020141455274820325,-0.0010933230784838086
1738772344908685000,7.62768505859375,-0.010134440523386001,-0.027322306689620015,-0.0005361880942888092
1738772344918676000,7.637676025390625,-0.026782208463549614,-0.03448269983828067,-0.006337892076413845
1738772344928667000,7.6476669921875,-0.007092588609457016,-0.033546880292892454,0.003771861530287424
1738772344938659000,7.6576591796875,-0.00859948604106903,-0.024113281515240666,0.005082001130649587
1738772344948650000,7.66764990234375,-0.006167874979972839,-0.020095278045535087,-0.006130735007091425
1738772344958641000,7.677640869140625,-0.012448562684655188,-0.01710486405789852,0.0053208217050705565
1738772344968632000,7.687632080078125,-0.0139817636013031,-0.02426525720655918,0.015236504911241353
1738772344978623000,7.697623046875,-0.01685118155777454,-0.025296353819966314,0.0009399557227443438
1738772344988615000,7.707614990234375,0.002568389183282852,-0.03709843529462814,-0.009770211462519364
1738772344998606000,7.717606201171875,-0.029800094980001447,-0.02210544882416725,-0.007669934122974518
1738772345008597000,7.727596923828125,-0.02277823351919651,-0.02883271125257015,0.002216624595056055
1738772345018588000,7.737587890625,-0.02203004550039768,-0.032274960660934444,0.008750281272165011
1738772345028579000,7.7475791015625,-0.01521393574476242,-0.02499240243732929,0.0013049599601014051
1738772345038571000,7.757571044921875,-0.010391045632958411,-0.02606032392978668,-0.009503908084484283
1738772345048562000,7.76756201171875,-0.003663198682665825,-0.043265141230821605,-0.003573822774115251
1738772345058553000,7.777552978515625,-0.006343231546878814,-0.03324818960726261,0.00403997669785167
1738772345068544000,7.7875439453125,-0.016409283009171483,-0.02373801846206188,-0.002218203489144798
1738772345078535000,7.797534912109375,-0.011375965017080306,-0.030229718568921086,-0.0038166870527027636
1738772345088526000,7.807526123046875,-0.012887538623809813,-0.030220366218686102,0.00033449607630609533
1738772345098518000,7.81751806640625,-0.01405365979373455,-0.02545066759884357,-0.0022614638172031845
1738772345108509000,7.827509033203125,-0.00002221183180809021,-0.025670447829365728,-0.006494204874488059
1738772345118500000,7.8375,-0.027790508723258972,-0.027654315122961997,0.0014572427537408656
1738772345128491000,7.847490966796875,0.003133037328720093,-0.025229718324542044,-0.003943076211615698
1738772345138482000,7.85748193359375,-0.004704816690087319,-0.026540800923109054,-0.010583795151015511
1738772345148473900,7.867473876953125,-0.017682956206798554,-0.030755203747749326,-0.016215869054122593
1738772345158465000,7.877465087890625,0.0039028526574373243,-0.02359597964286804,-0.00004988985660020262
1738772345168456000,7.8874560546875,-0.012038228318095206,-0.0323772519916296,-0.002146947759174509
1738772345178447000,7.897447021484375,-0.0020095862567424774,-0.023998715224862098,-0.004398234958946705
1738772345188438000,7.90743798828125,-0.029109190106391906,-0.02473755089342594,-0.009062243572965962
1738772345198429000,7.917428955078125,0.0013034838140010834,-0.02850070281922817,-0.003773658478440484
1738772345208420900,7.9274208984375,-0.011789221993088721,-0.030640637457370758,-0.002425969054887537
1738772345218412000,7.937412109375,-0.028948446586728096,-0.034711832419037816,0.010700844517780934
1738772345228403000,7.94740283203125,0.0065688569962978356,-0.028459201765060425,-0.0027979978297196792
1738772345238394000,7.95739404296875,-0.020115736311674116,-0.032169746720790864,-0.001379922609165078
1738772345248385000,7.967385009765625,0.010599719947576523,-0.03324175986647606,-0.0009007539402286056
1738772345258377000,7.977376953125,-0.015827099207043647,-0.031032851645350454,0.0010338856504706199
1738772345268368100,7.9873681640625,-0.012687632137537002,-0.023100889602303505,-0.005291496287530753
1738772345278359000,7.997359130859375,0.0008650923967361449,-0.0326385332763195,-0.001615954146522563
1738772345288350000,8.007349853515626,-0.013358078745007515,-0.04819558337032795,0.003870022391848033
1738772345298341000,8.017341064453126,-0.008497779232263565,-0.028787118545174597,-0.0013710269166564103
1738772345308332800,8.027332763671875,-0.009747487032413482,-0.0306996741682291,-0.011811464649293339
1738772345318324000,8.037323974609375,-0.01914659901857376,-0.02607785958647728,-0.0035255472025775814
1738772345328315100,8.047315185546875,-0.00601531476676464,-0.034734628772735594,0.0011476425150292926
1738772345338306000,8.05730615234375,-0.02427344051301479,-0.028748540100455282,-0.0006307984420272987
1738772345348297000,8.067296875,0.00010989011526107787,-0.025900164932012557,0.004734532549983123
1738772345358288000,8.077287841796876,-0.01372340492606163,-0.03453881393969059,-0.008769465463247614
1738772345368279800,8.08727978515625,-0.021392332118749618,-0.03436696450412273,-0.002088630284235114
1738772345378271000,8.09727099609375,-0.013539865052700042,-0.023037761238217352,-0.01078693477399065
1738772345388262100,8.10726220703125,-0.01696808593571186,-0.024692542707920075,-0.0007448909500148147
1738772345398253000,8.117253173828125,-0.009623568391799927,-0.018863690423965452,-0.01020064790219185
1738772345408244000,8.127243896484375,-0.01148819321990013,-0.037376667714118954,0.003112031073309481
1738772345418236000,8.13723583984375,-0.013476736688613891,-0.0219376910418272,0.005932683692831778
1738772345428227000,8.14722705078125,-0.012439210334420204,-0.0268698867470026,-0.014960282927390652
1738772345438218000,8.157218017578124,-0.007992752319574355,-0.03208148391544818,0.004358037662587594
1738772345448209000,8.167208984375,-0.01966857706606388,-0.031929508224129675,0.005969320200569927
1738772345458200000,8.177199951171875,-0.015178279909491539,-0.03372574399113655,-0.01485594234514865
1738772345468191700,8.187191650390625,-0.005981997019052505,-0.02583645204603672,0.002795792172901565
1738772345478183000,8.197182861328125,-0.023336451923847198,-0.04095160359144211,0.009858095241949194
1738772345488174000,8.207174072265625,-0.016419804403185842,-0.029957915890216825,0.004824391374079277
1738772345498165000,8.2171650390625,-0.004423661661148071,-0.020156652843952176,-0.003234916525817243
1738772345508156000,8.227156005859374,-0.022764789515733717,-0.030579262658953665,-0.012669300754758295
1738772345518147000,8.23714697265625,0.0022165070056915284,-0.0169575645416975,-0.008937993855500826
1738772345528138800,8.247138671875,-0.020728899773955343,-0.02635316939651966,-0.006051168106502154
1738772345538130000,8.2571298828125,-0.014212649747729301,-0.035440146693587304,-0.004840392660809448
1738772345548121000,8.26712109375,-0.009870821151137351,-0.029006898775696753,-0.00008284684470854699
1738772345558112000,8.277112060546875,-0.02502864279448986,-0.030476386806368827,0.014411892938654636
1738772345568103000,8.28710302734375,-0.004101005578041076,-0.021036942809820176,0.008359348009107634
1738772345578094000,8.297093994140624,-0.02029460000991821,-0.0207177938580513,0.0034678895980527155
1738772345588085000,8.3070849609375,0.0009013327538967132,-0.01688625287115574,-0.003283612222463125
1738772345598077000,8.317076904296876,0.007971125009655952,-0.03127309014201164,-0.002507584065379342
1738772345608068000,8.327068115234376,-0.032165655067563054,-0.03454524368047714,-0.007251946172921452
1738772345618059000,8.33705908203125,-0.005546528211235999,-0.03154313925504684,0.0031356927933986296
1738772345628050000,8.3470498046875,-0.013772504764795303,-0.026756489500403404,0.001451025358797051
1738772345638041000,8.357041015625,-0.010908347505331038,-0.030360651472210884,-0.009552877775765954
1738772345648033000,8.367032958984375,-0.014049568140506744,-0.03350362567305565,0.013675608845136593
1738772345658024000,8.37702392578125,0.006862871506810188,-0.018368600383400917,0.003267110895522637
1738772345668015000,8.38701513671875,-0.010672200661897658,-0.03944996685683727,-0.005790134558628778
1738772345678006000,8.397006103515626,-0.02493745737969875,-0.025503274568915366,-0.011582117439404828
1738772345687997000,8.406996826171875,0.015042086309194564,-0.02656710440814495,-0.0001756122952327132
1738772345697988900,8.41698876953125,-0.026785131072998045,-0.027267946153879164,-0.00932861316637136
1738772345707980000,8.42697998046875,-0.019159458500146866,-0.031005379116535184,0.010134679127048001
1738772345717971000,8.436970947265625,-0.017708675169944763,-0.026937106764316557,-0.01218114049519063
1738772345727962000,8.446962158203124,-0.0076005381315946575,-0.03737140701711177,-0.014016457030415767
1738772345737953000,8.456953125,0.006761749219894409,-0.03512567391693592,0.006591841721307719
1738772345747944000,8.46694384765625,-0.01547404798567295,-0.023100889602303505,0.010633416721201501
1738772345757936000,8.47693603515625,-0.011036942321062088,-0.027706922093033787,-0.006019061643409077
1738772345767927000,8.486927001953125,-0.018927987831830976,-0.03467383849620819,-0.0023836905409407336
1738772345777918000,8.49691796875,-0.02540682845711708,-0.0264168822824955,0.0032759517891041466
1738772345787909000,8.5069091796875,-0.010980828219652175,-0.032439211311936375,-0.007689868374372599
1738772345797900000,8.516900146484375,-0.0024848025530576703,-0.025834113958477973,0.0041840339441958346
1738772345807892000,8.52689208984375,-0.02913257098197937,-0.024331308180093762,-0.011102074270922456
1738772345817883100,8.536883056640624,-0.01478957285284996,-0.023120763346552848,-0.004099476916302228
1738772345827874000,8.5468740234375,-0.0026712650358676907,-0.02596153973042965,0.004751350112399086
1738772345837865000,8.556864990234375,-0.030848142728209495,-0.02743102776110172,-0.013914225065225036
1738772345847856000,8.566856201171875,-0.009829320096969603,-0.03480535592138767,-0.006197485808591591
1738772345857847800,8.576847900390625,-0.022114801174402236,-0.028211949005723,0.012546943883568746
1738772345867839000,8.5868388671875,-0.010696750581264495,-0.022403554987907408,-0.014812600960343843
1738772345877830100,8.596830078125,-0.012452069815993309,-0.03439911320805549,-0.006999014874757267
1738772345887821000,8.606821044921874,-0.018447510838508607,-0.031401100435853,-0.001640407026122557
1738772345897812000,8.61681201171875,-0.0036368951976299283,-0.023168694141507146,-0.005111857412796235
1738772345907804000,8.626803955078126,-0.02339256602525711,-0.026009470525383948,0.009098833273287164
1738772345917794800,8.636794921875,-0.021510990062355993,-0.03509820138812065,-0.002053415123670129
1738772345927786000,8.646785888671875,-0.0029319617986679077,-0.021945874348282813,-0.003113040286884643
1738772345937777200,8.656777099609375,-0.032598201265931125,-0.03553951541483402,0.0013945208150311372
1738772345947768000,8.66676806640625,-0.003617605975270271,-0.026830139258503912,-0.0005076458447496406
1738772345957759000,8.676759033203124,-0.0025870938837528226,-0.027568974927067755,0.00048799243785324506
1738772345967751000,8.6867509765625,-0.019455226576328276,-0.020918869388103483,-0.010311531248007667
1738772345977742000,8.6967421875,0.0058043023645877835,-0.020302783316373824,-0.007614066616736818
1738772345987733000,8.70673291015625,-0.03918167130947113,-0.021533201894164085,0.0017207376867590938
1738772345997724000,8.716723876953125,-0.01846037032008171,-0.020737083080410956,-0.008894056532363174
1738772346007715000,8.726715087890625,-0.006667056673765182,-0.02835164973735809,-0.014063660597940906
1738772346017706800,8.736706787109375,-0.01311433311700821,-0.025201076751947403,-0.004992127465177327
1738772346027698000,8.746697998046875,-0.008553893333673476,-0.024255904856324194,-0.003662482871679822
1738772346037689000,8.756689208984374,0.0018511808246374128,-0.02900222260057926,0.004327069418877363
1738772346047680000,8.766679931640626,-0.0120820674598217,-0.0258504805713892,-0.0028109657675027848
1738772346057671000,8.7766708984375,-0.01989595608115196,-0.03690320498347282,0.005459706161019858
1738772346067662800,8.786662841796876,-0.008317746490240096,-0.026162615260481834,0.0012227809773175976
1738772346077653800,8.79665380859375,-0.02450608022511005,-0.029587913534045218,0.011129626714839832
1738772346087645000,8.80664501953125,0.0026712650358676907,-0.02371756019592285,-0.012645571677654515
1738772346097636000,8.816635986328125,-0.010262450817227363,-0.03145955262482166,-0.01639807092034607
1738772346107627000,8.826626953125,0.005520224726200103,-0.029615970584750174,0.0017572634549986104
1738772346117619000,8.836618896484374,0.004608955100178718,-0.03275076147913933,-0.0023989063763816374
1738772346127609900,8.84660986328125,-0.01859364131093025,-0.03124912474453449,0.01034450536078075
1738772346137601000,8.85660107421875,-0.014463409638404845,-0.03076338705420494,-0.005684989117144141
1738772346147592000,8.866592041015625,-0.0037555531412363052,-0.02249357135891914,0.005517981395119568
1738772346157583000,8.8765830078125,0.005913023436069489,-0.02649871534705162,-0.001342062258720398
1738772346167574800,8.88657470703125,-0.008444587740302085,-0.030543606823682783,0.003092048872850137
1738772346177565700,8.896565673828125,-0.01523439401090145,-0.020184709894657135,-0.00225441302190884
1738772346187556900,8.906556884765624,-0.010782675299048423,-0.02988835778534412,0.00656936616966268
1738772346197548000,8.916548095703124,-0.0022813889354467392,-0.018050035953521726,-0.014013675984862493
1738772346207539500,8.92653955078125,0.001889174747467041,-0.025819500911235808,0.00020766738433158024
1738772346217530400,8.9365302734375,-0.02168283949792385,-0.028016718694567677,0.0031950685726187655
1738772346227522600,8.9465224609375,-0.01310731885433197,-0.025201076751947403,0.0048855892176274205
1738772346237513500,8.956513427734375,-0.004008651119470596,-0.032066870868206025,0.005282939663383877
1738772346247504400,8.96650439453125,-0.005290507623553276,-0.024923428854346275,0.007439127891650423
1738772346257495600,8.97649560546875,-0.02201134079992771,-0.03183072402477264,-0.0015238679743662942
1738772346267486500,8.986486572265624,-0.032740824607014656,-0.03296411196887493,0.008647566391428699
1738772346277478400,8.996478515625,0.004922843354940414,-0.033684242936968804,0.002769714733440196
1738772346287469600,9.006469482421876,-0.02354161910712719,-0.030372341910004614,-0.0021719429198245052
1738772346297460500,9.01646044921875,-0.01708615935742855,-0.03382686627805233,0.012233258841495261
1738772346307451400,9.026451416015625,-0.008928571864962577,-0.020016367590427398,0.01690209889425896
1738772346317442600,9.036442626953125,-0.01057633907198906,-0.017829671201109884,-0.0029735930002876554
1738772346327434500,9.0464345703125,-0.010298106652498244,-0.025897242322564122,0.006039821303647477
1738772346337425400,9.05642529296875,-0.02686813318133354,-0.03226502378880977,0.004415762624127091
1738772346347416600,9.06641650390625,0.00017068039178848266,-0.028048282876610754,0.012303892375313444
1738772346357407500,9.076407470703124,-0.0024140754044055935,-0.03625380116403103,0.008300057853211182
1738772346367398400,9.0863984375,-0.019321955585479736,-0.029371640434861183,0.0008572093427355866
1738772346377390600,9.096390625,-0.0022609306693077086,-0.03027005057930946,-0.008171821513795294
1738772346387381500,9.106381591796875,-0.020383447337150574,-0.02786591204702854,0.002340682516276138
1738772346397372400,9.116372314453125,-0.014928689062595367,-0.020783844831585883,-0.0017869941562705207
1738772346407363600,9.126363525390625,0.0011404022067785262,-0.016778700843453405,-0.00777715507382527
1738772346417354500,9.1363544921875,-0.03351063993573188,-0.020468203011155126,0.0025218865853676104
1738772346427346400,9.146346435546874,-0.007006079369783401,-0.026224574580788612,0.013663014225044753
1738772346437337600,9.156337646484374,-0.012673019090294836,-0.03356850760281086,0.01939528111659456
1738772346447328500,9.16632861328125,-0.01520692148208618,-0.024596681118011474,-0.012895688822580268
1738772346457319400,9.1763193359375,-0.009307342049479484,-0.031577041524648665,-0.008827010044985217
1738772346467310600,9.186310546875,-0.022766543081402777,-0.023652093744277954,0.00316425901746843
1738772346477301500,9.196301513671875,-0.008106149566173552,-0.013622867161035538,0.008115419718017802
1738772346487293400,9.20629345703125,-0.013472060513496397,-0.019472762233018873,0.0014833555841760244
1738772346497284600,9.21628466796875,-0.017377835780382156,-0.02844108158648014,-0.001512418423523195
1738772346507275500,9.226275634765624,-0.0127922615557909,-0.02257306633591652,-0.004233404352632351
1738772346517266400,9.236266357421876,0.0036111762344837187,-0.03256371447443962,0.0042028254096338055
1738772346527257300,9.24625732421875,-0.030258944663405417,-0.02759410936832428,0.008454299708496546
1738772346537249500,9.25624951171875,-0.026898528319597242,-0.030688568252325056,0.0030402410537993998
1738772346547240400,9.266240478515625,-0.026954057899117468,-0.01913140144944191,0.0007551303578831721
1738772346557231600,9.276231689453125,-0.029177579167485236,-0.008519991064071655,0.00252024718413013
1738772346567222500,9.286222412109375,0.008294365614652632,-0.03040565965771675,0.006596398023772053
1738772346577213400,9.29621337890625,-0.003440495842695236,-0.020881459987163543,0.0020077961584553123
1738772346587205600,9.30620556640625,-0.016119944673776625,-0.021353169152140618,-0.003729543058789568
1738772346597196500,9.316196533203126,-0.01727788253724575,-0.018683657681941985,-0.005449539818387711
1738772346607187500,9.3261875,-0.019472177711129187,-0.024700726014375684,-0.0021077025941747705
1738772346617178400,9.336178466796875,-0.017901567393541335,-0.03477028460800648,-0.0002286485235672444
1738772346627169500,9.34616943359375,-0.007774141132831573,-0.020824761363863943,0.0031344837920682035
1738772346637161500,9.356161376953125,-0.020610826352238654,-0.03027180414497852,-0.002994662046135636
1738772346647152600,9.366152587890625,-0.020803718575835226,-0.03234042711257935,-0.00591484435875318
1738772346657143600,9.3761435546875,-0.011128712257742882,-0.022584172251820564,-0.011407790635671699
1738772346667134500,9.386134521484376,-0.014091653716564177,-0.013623451682925223,-0.012631828563380985
1738772346677125400,9.39612548828125,-0.022494740402698516,-0.02722586057782173,-0.004682016911456594
1738772346687116500,9.406116455078125,-0.008911620730161666,-0.029150106638669966,-0.005680592644884018
1738772346697108500,9.4161083984375,-0.018043021690845488,-0.016578794357180595,0.001682647865806939
1738772346707099400,9.426099365234375,0.0001607435196638107,-0.02956511718034744,0.007441537902801065
1738772346717090600,9.436090576171875,0.0025736498802900313,-0.013116086682677268,-0.0019159588647598865
1738772346727081500,9.44608154296875,-0.02813654568195343,-0.01638765569925308,-0.006238224244356388
1738772346737072400,9.456072265625,-0.007210662031173706,-0.019216157123446462,-0.003130954969488084
1738772346747064600,9.466064697265624,-0.016635492980480192,-0.011436755293607711,0.0061957973166485315
1738772346757055500,9.476055419921876,-0.019749825608730315,-0.023275077125430105,0.013040186743630328
1738772346767046400,9.48604638671875,-0.01949731215238571,-0.02459375850856304,0.007776456387504004
1738772346777037600,9.49603759765625,-0.001993219643831253,-0.030427286967635154,0.00474554028447601
1738772346787028500,9.506028564453125,-0.011473580172657967,-0.034136662879586215,-0.00663282332731178
1738772346797020400,9.5160205078125,-0.01464051977097988,-0.018558569997549054,-0.012789040977176045
1738772346807011600,9.526011474609374,0.0005441898792982101,-0.015609657064080237,-0.00020481441518641075
1738772346817002500,9.53600244140625,-0.02358253563940525,-0.017084405791759488,-0.014752848438499494
1738772346826993400,9.545993408203126,-0.020595628783106803,-0.03114683341383934,-0.004138517726969439
1738772346836984600,9.555984619140625,-0.00894201586842537,-0.03891746741533279,0.011439739551849197
1738772346846975500,9.5659755859375,-0.041003041517734526,-0.01569967343509197,-0.004913058321509743
1738772346856967400,9.575967529296875,-0.0034510172367095944,-0.02317687744796276,-0.012340018568042432
1738772346866958600,9.58595849609375,-0.0272837282449007,-0.02315291205048561,0.0069381732242356515
1738772346876949500,9.595949462890625,-0.026848259437084198,-0.03122515934705734,0.005443076969916001
1738772346886940400,9.6059404296875,-0.014244798451662063,-0.03444762852489948,0.002111359280918259
1738772346896931600,9.615931640625,-0.015396306574344635,-0.029595512318611142,0.008866617111233063
1738772346906923500,9.625923583984376,-0.001911386579275131,-0.017336334726214406,-0.0037657879825273993
1738772346916914400,9.63591455078125,-0.014531798699498175,-0.02867722842991352,-0.00025075646574259736
1738772346926905600,9.645905517578125,-0.02531564304232597,-0.02687514744400978,-0.002636181164399022
1738772346936896500,9.655896484375,-0.0021598083823919294,-0.03277881852984428,-0.01266413709751796
1738772346946887400,9.665887451171875,-0.014227262794971465,-0.02532967156767845,-0.0027664188063004982
1738772346956879600,9.675879638671875,-0.008942600390315055,-0.027303601989150047,-0.006501061590248719
1738772346966870500,9.68587060546875,-0.0062754270076751705,-0.016364274823665616,-0.009515867950336541
1738772346976861400,9.695861328125,-0.02603811209797859,-0.033416531911492346,0.004521660409215838
1738772346986852600,9.7058525390625,-0.009846271231770514,-0.022660744619369507,0.005126048051641555
1738772346996843500,9.715843505859375,-0.010125088173151015,-0.041378889092802996,-0.0032483217133732977
1738772347006835500,9.72583544921875,-0.018564999738335607,-0.03161561996936798,-0.010866161464573814
1738772347016826600,9.73582666015625,-0.01130173073709011,-0.03561491873860359,-0.001663284436566755
1738772347026817500,9.745817626953125,-0.025416180807352064,-0.03618307401537895,-0.01479818541756831
1738772347036808400,9.755808349609374,-0.027667174604535102,-0.032737317475676535,-0.003972384504490765
1738772347046799600,9.765799560546874,-0.0007288987964391708,-0.013138298514485358,0.011826219260430662
1738772347056790500,9.77579052734375,-0.00834288093149662,-0.033948446831107135,-0.01280601266157464
1738772347066782500,9.785782470703126,-0.001685176607966423,-0.021332710886001586,0.00927952017750358
1738772347076773600,9.795773681640625,-0.026033435922861097,-0.030785014364123342,0.011172722646116745
1738772347086764500,9.8057646484375,-0.02841536262333393,-0.023160510835051534,0.005248329574306263
1738772347096755500,9.81575537109375,-0.019054244560003278,-0.024766776987910268,-0.0065302454438933635
1738772347106746400,9.825746337890624,-0.02030687496960163,-0.02144143195748329,-0.0008573691729397978
1738772347116738600,9.835738525390624,-0.006741290953755378,-0.03113631201982498,-0.007776970127446111
1738772347126729500,9.8457294921875,-0.018694179075956344,-0.030607904231548307,-0.004958242320240242
1738772347136720600,9.855720703125,-0.029090485405921934,-0.030864509341120717,0.0037761472630489148
1738772347146711600,9.865711669921875,-0.0025128596037626264,-0.017511106771230696,0.016427803904906613
1738772347156702500,9.875702392578125,-0.014754501539468765,-0.022317045748233795,-0.0031254419690871144
1738772347166693400,9.885693359375,-0.021639000356197355,-0.022615736433863637,-0.005669953661505133
1738772347176685600,9.895685546875,-0.018685411247611045,-0.01002162779867649,-0.00840095523619675
1738772347186676500,9.905676513671875,-0.0002758943319320679,-0.028580197796225545,0.0010425872634456028
1738772347196667400,9.91566748046875,-0.019241291564702986,-0.031147417935729026,0.009700312005996237
1738772347206658300,9.925658203125,-0.020345453414320945,-0.02991583031415939,-0.002458555008593248
1738772347216649500,9.9356494140625,-0.020355390286445618,-0.029161797076463696,0.0068477652692236005
1738772347226641400,9.945641357421875,-0.015763970842957494,-0.03721300158500671,0.0032500741373980417
1738772347236632600,9.955632568359375,-0.012049334233999252,-0.02058744547665119,-0.006842976071318844
1738772347246623500,9.96562353515625,-0.015748188751935958,-0.02240881568491459,0.008458744129817933
1738772347256614400,9.975614501953125,0.005852233159542084,-0.03156827369630336,0.0001589831041288562
1738772347266605300,9.985605224609374,-0.01777589518725872,-0.024095161336660384,0.004743745619611581
1738772347276597500,9.995597412109374,-0.028520576563477514,-0.023663784182071684,-0.004092837112961569
1738772347286588400,10.00558837890625,-0.010116904866695404,-0.02905015339553356,-0.006346952165703987
1738772347296579300,10.015579345703125,-0.02878653402328491,-0.03161503544747829,-0.004512991903926013
1738772347306570500,10.025570556640625,-0.006576455780863762,-0.015642974811792373,0.007234651403181487
1738772347316561400,10.0355615234375,-0.005669862329959869,-0.019538813206553457,0.001087870585231576
1738772347326553600,10.0455537109375,-0.0396013580262661,-0.023899931025505066,0.0023122327399265484
1738772347336544500,10.05554443359375,0.0000865092396736145,-0.017635609933733937,-0.002358939692174317
1738772347346535400,10.065535400390624,-0.011927753680944442,-0.025782091510295868,0.008661804979335283
1738772347356526300,10.0755263671875,-0.032630934491753576,-0.026347324177622793,-0.012114305212011095
1738772347366517500,10.085517578125,-0.014533552265167235,-0.019907646518945693,-0.0006621731111139524
1738772347376508400,10.09550830078125,-0.00039747488498687744,-0.03730827865302563,0.007354058265459025
1738772347386500400,10.105500244140625,-0.015616086804866789,-0.03179857532083988,-0.010399376211530762
1738772347396491500,10.115491455078125,-0.004793079495429993,-0.028686580780148505,0.005030594028753694
1738772347406482400,10.125482421875,0.006344400590658187,-0.020345453414320945,-0.0008376963580900337
1738772347416473300,10.135473388671874,-0.01563011533021927,-0.024848025530576703,-0.0035984434754296668
1738772347426464500,10.145464599609374,-0.004269932404160499,-0.02678630011677742,-0.01018613075307221
1738772347436456400,10.15545654296875,-0.030290508845448493,-0.02963876693844795,-0.005280547918542288
1738772347446447400,10.165447265625,-0.021861118674278257,-0.0325122765481472,0.004821514430403477
1738772347456438500,10.1754384765625,-0.019931027394533157,-0.02427344051301479,-0.014841037036961642
1738772347466429400,10.185429443359375,-0.01210427929162979,-0.028490765947103498,-0.020882660996983757
1738772347476420400,10.19542041015625,-0.017810966500639916,-0.022043489503860474,-0.0023080680214625318
1738772347486412500,10.20541259765625,-0.020379940205812453,-0.02172901672720909,-0.0029288336932426317
1738772347496403500,10.215403564453124,-0.007491232538223266,-0.017701076385378836,0.002770574391609989
1738772347506394400,10.225394287109374,-0.020812486404180524,-0.01605272465646267,0.008306089160131523
1738772347516385500,10.235385498046876,-0.008977087181806565,-0.022796353697776793,-0.010300654802611097
1738772347526376400,10.24537646484375,-0.00998246483206749,-0.02611351542174816,0.005445295184821589
1738772347536367400,10.255367431640625,-0.019531214421987533,-0.021341478714346884,0.00007703130856389179
1738772347546359600,10.265359619140625,0.01714402702450752,-0.021649521750211714,-0.014637201010953867
1738772347556350500,10.2753505859375,-0.026397008538246152,-0.027487141862511635,0.005737734226178144
1738772347566341400,10.28534130859375,-0.004307926326990127,-0.023054127851128578,0.0033807513123610988
1738772347576332500,10.29533251953125,-0.008089198431372641,-0.03604921850264072,0.0157827645916841
1738772347586323500,10.305323486328126,-0.035060791987180706,-0.029442952105402945,0.0015605798306292853
1738772347596315400,10.3153154296875,0.0006523264288902282,-0.02187105554640293,-0.009289830367319517
1738772347606306600,10.325306640625,-0.024497312396764753,-0.033685411980748176,-0.0029753134582715573
1738772347616297500,10.33529736328125,-0.006061491996049881,-0.031160861939191816,-0.008161922315933042
1738772347626288400,10.345288330078125,-0.0007867664635181426,-0.01277706398665905,-0.001644930220901733
1738772347636279600,10.355279541015625,-0.030065467917919156,-0.02567687757015228,-0.007788942551385843
1738772347646271500,10.365271484375,-0.010727730241417884,-0.02809153749644756,0.01060230463030748
1738772347656262400,10.375262451171874,-0.026042788273096085,-0.030154899767041204,-0.0005187266444787382
1738772347666253600,10.385253662109376,-0.008946692043542861,-0.017458499801158905,0.014498689872695831
1738772347676244500,10.395244384765626,-0.003964227455854416,-0.02436930210292339,0.001416968967212597
1738772347686235400,10.4052353515625,-0.0038069910675287244,-0.023026655322313308,0.013792897957208334
1738772347696226300,10.415226318359375,-0.027224691534042358,-0.023131869262456892,-0.006786422436847351
1738772347706218500,10.425218505859375,0.002425181320309639,-0.019703063857555388,0.0006576727492210921
1738772347716209400,10.43520947265625,-0.009726444244384765,-0.01893617113828659,-0.0036275451306835745
1738772347726200600,10.44520068359375,-0.012131167298555373,-0.018331190982460974,0.0034972115906595717
1738772347736191500,10.45519140625,-0.012646715605258941,-0.022929624688625333,0.015537994908733525
1738772347746182400,10.465182373046876,-0.029297406154870986,-0.04071194961667061,0.008491416848491643
1738772347756174600,10.475174560546876,-0.005956278055906296,-0.017666589593887328,-0.004274908831733046
1738772347766165500,10.48516552734375,-0.0029372224956750867,-0.023667291313409805,0.006136275406955974
1738772347776156400,10.495156494140625,-0.018324761241674422,-0.01949380502104759,-0.00725033987936913
1738772347786147300,10.505147216796875,-0.008602993172407149,-0.007519289588928222,0.0003370179685996845
1738772347796138500,10.515138427734374,-0.022333412361145017,-0.019063596910238265,0.0011305600911320653
1738772347806130400,10.52513037109375,-0.0077729720890522,-0.022532734325528145,-0.007811685247800778
1738772347816121600,10.53512158203125,-0.0189443544447422,-0.028549802657961844,0.00025160470746923234
1738772347826112500,10.545112548828126,-0.02920388265252113,-0.0275409178763628,0.00023540819956106133
1738772347836103400,10.555103515625,0.0019908815562725067,-0.030726562175154685,-0.0029964064786501695
1738772347846094300,10.56509423828125,-0.009684943190217017,-0.018154665371775625,0.0062281617913569785
1738772347856085500,10.57508544921875,-0.014287468549609184,-0.021468319964408872,0.0038177933060447684
1738772347866077400,10.585077392578125,-0.0007253916651010513,-0.033197920724749565,-0.008258196039439645
1738772347876068400,10.595068359375,-0.013183891221880913,-0.01895838297009468,-0.011834981380554381
1738772347886059500,10.6050595703125,-0.020348376023769377,-0.021812603357434273,0.011646283558174035
1738772347896050400,10.615050537109376,-0.006547814208269119,-0.018990531674027443,0.01747302608343307
1738772347906041300,10.625041259765625,-0.008644494226574897,-0.023629297390580176,0.00325497407480143
1738772347916033500,10.635033447265625,-0.021260814693570135,-0.017166238856315612,-0.005667147499776911
1738772347926024400,10.6450244140625,-0.008218962290883064,-0.02765373060107231,0.0052451078540470914
1738772347936015400,10.655015380859375,-0.024865561187267304,-0.02583645204603672,0.0025940818886097984
1738772347946006500,10.665006591796875,0.005771569138765335,-0.03209668148458004,-0.0017915013680292757
1738772347955997400,10.67499755859375,-0.011480594435334205,-0.022792846566438672,-0.010353718430409208
1738772347965989400,10.6849892578125,-0.020832944670319556,-0.0216413384437561,-0.0028750142969074656
1738772347975980500,10.69498046875,-0.01260404550731182,-0.030559973436594008,-0.0011017621132661589
1738772347985971500,10.704971435546875,-0.03736030110120773,-0.029023849910497664,-0.0032009959899063686
1738772347995962400,10.71496240234375,0.013430559459328651,-0.03893792568147182,-0.009115319758851546
1738772348005953500,10.72495361328125,-0.0006102408528327941,-0.03147182758450508,-0.0003228113467339426
1738772348015944400,10.7349443359375,-0.028527006304264066,-0.024687282010912893,0.00235315726371482
1738772348025936400,10.744936279296875,0.009873743760585784,-0.027046996879577637,0.005029089341545477
1738772348035927600,10.754927490234374,-0.021413374906778335,-0.026590485283732413,-0.004605118033633334
1738772348045918500,10.76491845703125,-0.005701426512002944,-0.032874680119752885,0.011766416506236419
1738772348055909400,10.774909423828126,-0.011905541849136352,-0.033223639687895774,0.005063660614716354
1738772348065900500,10.784900634765625,-0.025556466060876845,-0.033203181421756746,0.0070800145389628595
1738772348075892500,10.794892578125,-0.00019464578926563263,-0.019540566772222517,-0.0012961750070913695
1738772348085883400,10.80488330078125,-0.004694879817962646,-0.024320786786079407,0.00498056603319128
1738772348095874600,10.81487451171875,-0.030863340297341346,-0.025828268739581106,0.007825882736511993
1738772348105865500,10.824865478515624,-0.022930793732404708,-0.018797054928541182,0.01346074681832688
1738772348115856400,10.8348564453125,-0.010928221249580383,-0.016571195572614668,0.00007106507536955177
1738772348125848600,10.8448486328125,-0.024701310536265373,-0.016867548170685767,-0.013980142466374672
1738772348135839500,10.854839599609376,-0.01072656119763851,-0.01830781010687351,0.005603108103526756
1738772348145830400,10.864830322265625,-0.015072481447458267,-0.039702480313181875,0.00711635193589027
1738772348155821600,10.874821533203125,-0.011896774020791053,-0.03598141396343708,-0.002071019279019674
1738772348165812500,10.8848125,-0.00798690710067749,-0.029858547168970108,-0.0004718153378984425
1738772348175803400,10.894803466796875,-0.020434300741553304,-0.015476386073231697,-0.0017872887005039955
1738772348185795600,10.904795654296874,0.0002887538135051727,-0.023451018214225766,0.006607438865950098
1738772348195786500,10.914786376953124,-0.03951309522092342,-0.03033668607473373,0.002219757267058594
1738772348205777200,10.924777099609376,-0.010210428369045257,-0.028823358902335165,0.02130957203900907
1738772348215768000,10.93476806640625,-0.008088029387593268,-0.027942484414577484,-0.010014837298286146
1738772348225759000,10.944759033203125,-0.008701192849874495,-0.03526654369235038,0.003904834551969543
1738772348235751200,10.954751220703125,-0.016323358291387556,-0.026143326038122177,-0.000272843858320266
1738772348245742000,10.9647421875,-0.01819675094783306,-0.019902385821938512,-0.007621245276194531
1738772348255733000,10.97473291015625,-0.014195114091038703,-0.031401100435853,0.002559810867893975
1738772348265724000,10.984723876953124,-0.005772738182544708,-0.021700375154614447,0.011976995083573274
1738772348275715000,10.994715087890626,-0.021973346877098083,-0.028859014737606048,0.009536938137828837
1738772348285707000,11.00470703125,0.0035229134291410442,-0.04137304387390613,-0.0017335092617198824
1738772348295698200,11.0146982421875,-0.017504092508554458,-0.025164836394786835,-0.0002598005720123183
1738772348305689000,11.024689208984375,-0.027604630762338638,-0.04083119208216667,0.012103159338555996
1738772348315680000,11.034679931640625,-0.006259644916653633,-0.030324411115050316,-0.0015188241897791158
1738772348325671000,11.0446708984375,-0.023753216031193732,-0.01970832455456257,0.012738194422639208
1738772348335662000,11.054662109375,-0.01331248603761196,-0.01579728859066963,-0.012494766171759692
1738772348345654000,11.064654052734374,-0.018575521132349965,-0.031045126605033873,-0.0016066611617919987
1738772348355645000,11.07464501953125,-0.0013753800064325332,-0.03074059070050716,0.008991731053445255
1738772348365636000,11.084635986328125,-0.013192074528336524,-0.019969021317362785,0.00392853737125406
1738772348375627000,11.094626953125,-0.0031429742008447646,-0.03809036894142628,-0.005254312932165339
1738772348385618000,11.104617919921875,-0.012526304095983504,-0.03213058375418186,-0.020594770266581325
1738772348395610000,11.114610107421875,-0.028143559944629668,-0.032995676150918,-0.0033832069892843716
1738772348405601000,11.12460107421875,-0.015296937853097915,-0.016671148815751075,0.009797922594996634
1738772348415592000,11.134592041015624,-0.010182371318340301,-0.026114684465527532,0.009462251766689586
1738772348425583000,11.1445830078125,-0.01502571969628334,-0.0304208572268486,0.008133353808574611
1738772348435574000,11.154573974609375,-0.01655015278458595,-0.02172550959587097,0.003093084344244562
1738772348445566000,11.16456591796875,-0.020444822135567663,-0.030401568004488944,0.007420751984743401
1738772348455557000,11.17455712890625,0.00023614684343338012,-0.023387889850139617,-0.006669037426653085
1738772348465548000,11.184548095703125,-0.026869302225112912,-0.026817279776930807,-0.015954344599193426
1738772348475539000,11.1945390625,-0.02445347325503826,-0.021292963397502897,-0.0013911826470517552
1738772348485530000,11.204530029296874,-0.011885668104887007,-0.028923312145471572,0.013913920246192719
1738772348495521000,11.21452099609375,-0.02207096203267574,-0.024428338813781737,0.013588746837369398
1738772348505513000,11.224512939453126,-0.013217793491482733,-0.023994039049744606,-0.004575069955241633
1738772348515504000,11.234504150390626,-0.036325697356462475,-0.045353637942671776,0.0032086975224607157
1738772348525495000,11.2444951171875,-0.010258943685889244,-0.020232640689611434,-0.001670049820782151
1738772348535486000,11.25448583984375,0.00013677812218666077,-0.022968787655234336,-0.00508736115071224
1738772348545477000,11.26447705078125,-0.03283259454369545,-0.03206745539009571,0.016111361791810486
1738772348555469000,11.274468994140625,-0.0018120178580284117,-0.029102175843715668,0.011738649433187674
1738772348565460000,11.2844599609375,-0.026545477098226546,-0.015998364120721816,0.004005383733438794
1738772348575451100,11.294451171875,-0.002181435692310333,-0.02346446221768856,-0.0007379166448896285
1738772348585442000,11.304442138671876,-0.008936170649528502,-0.03437514781057834,0.007272074503853219
1738772348595433000,11.314432861328125,-0.0315711963057518,-0.01729191106259823,0.018196186975541057
1738772348605424000,11.324424072265625,-0.011220482194423675,-0.028215456137061116,-0.001714531708258437
1738772348615416000,11.334416015625,-0.010491583397984503,-0.030748189485073088,-0.008953106942953308
1738772348625407000,11.344406982421875,-0.01857493661046028,-0.015632453417778015,-0.014950594933726824
1738772348635398100,11.354398193359375,0.004504910203814506,-0.02223871981501579,-0.012163456424738978
1738772348645389000,11.36438916015625,-0.01619768608510494,-0.024451135167479515,0.0086142657683813
1738772348655380000,11.3743798828125,-0.01787818651795387,-0.022335165926814077,0.00710235651822295
1738772348665372200,11.3843720703125,-0.008174538627266883,-0.02905541409254074,0.003118036122410558
1738772348675363000,11.394363037109375,-0.01527531054317951,-0.03434183006286621,-0.009292832891870056
1738772348685354000,11.40435400390625,-0.01326806237399578,-0.02905190696120262,-0.0016801830557291394
1738772348695345200,11.41434521484375,-0.00892974090874195,-0.021868717458844184,0.005310473840992199
1738772348705336000,11.424336181640625,-0.014864976176619528,-0.031684593552350995,0.020735612642532212
1738772348715328000,11.434327880859374,-0.005358896684646606,-0.0371785147935152,-0.00040884337908355517
1738772348725319200,11.444319091796874,-0.028475568377971647,-0.0306996741682291,-0.0022566677694325333
1738772348735310000,11.45431005859375,-0.010717793369293212,-0.03680558982789516,-0.0015280623755825216
1738772348745301000,11.464301025390625,-0.002799275329709053,-0.016596914535760877,0.004678944746602792
1738772348755292000,11.4742919921875,-0.004279284754395485,-0.029475100809335707,0.007970211694203316
1738772348765283000,11.484282958984375,-0.017612813580036163,-0.021983283749222753,0.000045552749844500796
1738772348775275000,11.49427490234375,-0.007575403690338134,-0.022739070552587507,0.0003571029170474503
1738772348785266200,11.50426611328125,-0.019642273581027984,-0.022831425011157987,-0.0022042879865795837
1738772348795257000,11.514257080078124,-0.009088730862736701,-0.026827801170945166,0.0024390134828398
1738772348805248000,11.524248046875,-0.018570260435342788,-0.030236732831597328,0.014581139425182481
1738772348815239000,11.534239013671876,-0.012336334481835364,-0.030056700089573857,-0.006160817334812599
1738772348825231000,11.544231201171876,-0.015243746361136436,-0.029957915890216825,-0.003070678432902787
1738772348835222000,11.554221923828125,-0.01976093152463436,-0.035627193698287006,0.0013969559423567261
1738772348845213000,11.564212890625,-0.004761515313386917,-0.02203179906606674,0.012505844688200159
1738772348855204000,11.5742041015625,-0.017484218764305115,-0.03220598707795143,0.0005825571198191028
1738772348865195000,11.584195068359374,-0.007739069819450378,-0.016953472888469694,-0.003699813499161973
1738772348875187200,11.594187255859374,-0.011540215668082237,-0.025986089649796484,0.0035683908304607027
1738772348885178000,11.60417822265625,-0.01931786393225193,-0.025688568007946014,0.009192201512010069
1738772348895169000,11.6141689453125,-0.01698152993917465,-0.028347558084130284,0.001054912455478916
1738772348905160000,11.624159912109375,-0.018469722670316695,-0.024760931769013405,0.005536332185851643
1738772348915151000,11.634151123046875,-0.005434300008416175,-0.016092472144961355,0.005621034202573355
1738772348925142000,11.64414208984375,0.006010054069757461,-0.02107376768887043,-0.0031979706324695143
1738772348935134000,11.654134033203125,-0.0219943896651268,-0.021658289578557012,-0.002234978810721077
1738772348945125000,11.664125,-0.020420272216200828,-0.025655834782123563,0.0008075900558382272
1738772348955116000,11.674115966796874,-0.006855272722244263,-0.009613631519675253,-0.0006009079105511773
1738772348965107000,11.68410693359375,-0.005485737934708595,-0.029529461345076558,-0.007342967190931085
1738772348975098000,11.69409814453125,-0.01203939736187458,-0.027601123631000517,-0.003195261510508135
1738772348985090000,11.704090087890625,-0.018326514807343482,-0.01952010850608349,-0.0018071167789807077
1738772348995081000,11.7140810546875,-0.015037994655966757,-0.031339141115546226,0.004325004184310091
1738772349005072100,11.724072021484375,-0.01838379795253277,-0.024423078116774556,0.0005068409855070058
1738772349015063000,11.73406298828125,-0.017600538620352744,-0.020703765332698822,-0.009263202655297936
