time,seconds_elapsed,z,y,x
1738772337304144000,0.023143798828125,-0.0008886198047548532,0.0010957762133330107,0.0005143291200511158
1738772337314134800,0.033134765625,0.0005147503688931465,0.000659754266962409,-0.000835040642414242
1738772337324126000,0.0431259765625,0.0004692103248089552,-0.0006779516115784645,0.0004113187314942479
1738772337334116900,0.053116943359375,-0.000240647466853261,-0.0009881432633846998,0.0007340270094573498
1738772337344108800,0.06310888671875,-0.0017437355127185583,-0.0008368755225092173,0.00030073069501668215
1738772337354100000,0.073099853515625,-0.0017212301027029753,-0.0005171722732484341,-0.00012429003254510462
1738772337364091000,0.0830908203125,-0.0018567850347608328,0.0005310480482876301,-0.0003884756297338754
1738772337374081800,0.093081787109375,0.00012000894639641047,0.00025416561402380466,-0.0008497493108734488
1738772337384073000,0.103072998046875,0.00028592394664883614,-0.0007578355725854635,0.0006597304018214345
1738772337394064000,0.11306396484375,0.002032498363405466,-0.0007517419289797544,-0.0009882377926260233
1738772337404055800,0.123055908203125,0.0006151640554890037,-0.0005464120768010616,-0.00004627776797860861
1738772337414047000,0.133046875,0.00003749364987015724,-0.002281819237396121,-0.00019252292986493558
1738772337424038000,0.143037841796875,-0.0003364142030477524,0.001078024972230196,0.00008684265776537359
1738772337434028800,0.15302880859375,0.0006740995449945331,0.0010597258806228638,-0.0004336985875852406
1738772337444020000,0.16302001953125,-0.00017598154954612255,-0.00048357597552239895,0.0020273285917937756
1738772337454012000,0.173011962890625,-0.001302801538258791,0.00040115974843502045,0.00020647590281441808
1738772337464002800,0.1830029296875,-0.00009132968261837959,-0.0009048546198755503,-0.0009725054842419922
1738772337473994000,0.192993896484375,0.00015671353321522474,-0.0008751722052693367,-0.00044524093391373754
1738772337483985000,0.20298486328125,0.0007274289382621646,-0.0011361618526279926,0.00010150604066438973
1738772337493975800,0.212975830078125,0.0007694173837080598,-0.0024893369991332293,0.0009534559212625027
1738772337503968000,0.222968017578125,0.0022485372610390186,-0.0003990218974649906,0.0005459922249428928
1738772337513959000,0.232958984375,0.001076984335668385,-0.0006297859363257885,0.0009196322644129395
1738772337523949800,0.24294970703125,-0.0008687210502102971,-0.0013115552719682455,-0.000389577733585611
1738772337533941000,0.25294091796875,-0.0003360467962920666,0.0006196307949721813,0.0014277941081672907
1738772337543932000,0.262931884765625,0.0015302965184673667,-0.00023364578373730183,-0.0010026067029684782
1738772337553922800,0.2729228515625,0.0019740983843803406,-0.0007492296863347292,-0.0017671609530225396
1738772337563915000,0.2829150390625,0.001284339465200901,-0.0008895783685147762,-0.0008252009283751249
1738772337573906000,0.292906005859375,-0.00008450145833194256,0.000443480908870697,0.0003255497431382537
1738772337583896800,0.302896728515625,-0.00015587417874485254,-0.001154682133346796,0.0016347597120329738
1738772337593888000,0.312887939453125,-0.000566684000659734,-0.00013066455721855164,-0.0005007997970096767
1738772337603879000,0.32287890625,0.0001246726606041193,-0.0007040433119982481,0.0006105373031459749
1738772337613870800,0.332870849609375,-0.0004661852726712823,-0.0015038480050861835,-0.00022939039627090096
1738772337623862000,0.342862060546875,0.00007709953933954239,-0.00038958131335675716,0.00047128729056566954
1738772337633853000,0.35285302734375,-0.0013277630787342787,-0.0011386964470148087,-0.0007643973222002387
1738772337643843800,0.36284375,-0.0001897943438962102,0.0004714508540928364,-0.0008927617454901338
1738772337653834800,0.372834716796875,0.0007181589026004076,-0.00013649300672113895,0.000784347066655755
1738772337663827000,0.382826904296875,-0.0007068985723890364,0.0005178456194698811,0.0011840875959023833
1738772337673817900,0.39281787109375,-0.00023179547861218452,0.0008842563256621361,-0.00022586362319998443
1738772337683809000,0.40280908203125,0.0010422606719657779,0.00006347009912133217,-0.0010895268060266972
1738772337693800000,0.412800048828125,0.0003572251880541444,-0.0003067681100219488,0.0006668925634585321
1738772337703790800,0.422790771484375,0.0006283349357545376,-0.0006212873850017786,0.0008692928240634501
1738772337713783000,0.432782958984375,-0.0014674481935799122,-0.00037070363759994507,-0.000550373806618154
1738772337723774000,0.44277392578125,-0.000675690418574959,-0.00010891491547226906,-0.0006912550306878984
1738772337733764900,0.452764892578125,-0.002095247618854046,-0.000009653158485889435,-0.0007621206459589303
1738772337743755800,0.462755859375,0.0006158504402264953,-0.0015345788560807705,0.0018826646264642477
1738772337753747000,0.472746826171875,0.0009180041961371899,0.0009137815795838833,-0.00010433033457957208
1738772337763739000,0.48273876953125,0.00004608521703630686,0.000707120168954134,0.0010781132150441408
1738772337773730000,0.49272998046875,-0.002198857720941305,0.00023120269179344177,-0.0011634246911853552
1738772337783721000,0.502720947265625,-0.0014915221836417913,0.0005395966582000256,-0.00036767212441191077
1738772337793711900,0.5127119140625,0.0007367698708549142,-0.0001610333565622568,-0.0014182021841406822
1738772337803702800,0.522702880859375,-0.0015021497383713722,-0.00024918396957218647,0.0005663855117745697
1738772337813694000,0.53269384765625,0.0013037514872848988,0.0004861881025135517,-0.001998673425987363
1738772337823686000,0.542685791015625,-0.0005982781294733286,-0.000016350531950592995,-0.00040636947960592806
1738772337833676800,0.5526767578125,0.001759220496751368,-0.0005992227233946323,-0.0007122618262656033
1738772337843668000,0.56266796875,-0.0003017998533323407,-0.0012485012412071228,0.00015459710266441107
1738772337853659000,0.572658935546875,0.0002084827283397317,0.0007631327025592327,-0.0008258275338448584
1738772337863649800,0.58264990234375,-0.001944150310009718,-0.0002994684036821127,-0.00009159401815850288
1738772337873642000,0.59264208984375,-0.00018580653704702854,-0.0010017824824899435,-0.0019648896995931864
1738772337883633000,0.6026328125,0.0012392509961500764,0.0004501731600612402,0.0010490098502486944
1738772337893623800,0.612623779296875,-0.0005237692384980619,0.000052227871492505074,0.0008003938128240407
1738772337903615000,0.622614990234375,0.0012171390699222684,-0.0011869410518556833,-0.00021506944904103875
1738772337913606000,0.63260595703125,0.000861983047798276,0.001673209946602583,0.00026623893063515425
1738772337923597800,0.642597900390625,-0.0004964954569004476,0.0007911710999906063,0.00037676014471799135
1738772337933589000,0.652589111328125,-0.001663299510255456,-0.00044478406198322773,0.0010365995112806559
1738772337943580000,0.662579833984375,0.0023404969833791256,0.0007302023004740477,-0.0012670349096879363
1738772337953570800,0.67257080078125,-0.00005567155312746763,0.0005108958575874567,0.00012859533308073878
1738772337963562000,0.68256201171875,0.0001967961434274912,-0.0002310606651008129,-0.0024123266339302063
1738772337973554000,0.692553955078125,0.0009692775784060359,-0.00012570805847644806,0.001423656358383596
1738772337983544800,0.702544921875,0.0005698032910004258,-0.00006765127182006836,-0.000664528226479888
1738772337993536000,0.712535888671875,-0.0012828782200813293,0.00044027436524629593,0.000691911147441715
1738772338003527000,0.72252685546875,0.00047081324737519026,0.00037928810343146324,-0.00020370993297547102
1738772338013517800,0.732517822265625,-0.0000026405323296785355,0.0008540090639144182,-0.0006152407731860876
1738772338023510000,0.742510009765625,0.001296449452638626,0.00007902923971414566,0.0004433657741174102
1738772338033501000,0.7525009765625,-0.0010200929827988148,-0.00017594406381249428,-0.001053372398018837
1738772338043491800,0.762491943359375,-0.0018936097621917725,0.0009875909890979528,-0.00010768383799586445
1738772338053483000,0.77248291015625,-0.0000898982398211956,0.00037380680441856384,-0.00035524601116776466
1738772338063474000,0.782473876953125,0.00017082528211176395,-0.0007311387453228235,-0.00025990483118221164
1738772338073465900,0.7924658203125,0.0004954662872478366,-0.0005716001614928246,0.0000486522912979126
1738772338083457000,0.80245703125,-0.0009383796132169664,-0.00006852904334664345,-0.00039210086106322706
1738772338093448000,0.812447998046875,0.00097314128652215,0.00018586358055472374,0.000732355285435915
1738772338103438800,0.82243896484375,0.0013718162663280964,0.0013288920745253563,-0.00003170565469190478
1738772338113430000,0.832429931640625,-0.0008024853304959834,-0.0006905307527631521,-0.0008662178297527134
1738772338123421000,0.8424208984375,-0.00025094463489949703,0.0004959073849022388,-0.000814552535302937
1738772338133412900,0.852412841796875,0.0012826652964577079,-0.0005488251335918903,-0.000655762676615268
1738772338143404000,0.862404052734375,0.0009460417786613107,0.0015638608019798994,0.0011850142618641257
1738772338153395000,0.87239501953125,0.0003641109215095639,-0.0004430399276316166,0.0007991192396730185
1738772338163385900,0.8823857421875,0.0004543920513242483,0.00044565671123564243,-0.00008451758185401559
1738772338173377000,0.892376953125,0.0005915509536862373,0.0003092095721513033,-0.00022108542907517403
1738772338183369000,0.902368896484375,-0.0018830583430826664,-0.0006889430806040764,0.00018664452363736928
1738772338193360000,0.91235986328125,0.0017601082799956203,-0.0007770434021949768,0.0007287957705557346
1738772338203350800,0.922350830078125,-0.0008388707065023482,-0.000012982403859496117,-0.00006748941086698323
1738772338213341700,0.932341796875,0.000010067829862236977,0.0010444545187056065,-0.0010846982477232814
1738772338223332600,0.94233251953125,0.00006120046600699425,-0.0013478631153702736,0.0007691281498409808
1738772338233324800,0.95232470703125,0.0009934967383742332,-0.0014348623808473349,-0.0004913798766210675
1738772338243315700,0.962315673828125,0.001081647351384163,-0.00047639082185924053,0.0010849451646208763
1738772338253306600,0.972306640625,0.00009452435187995434,0.0003439909778535366,0.00007572676986455917
1738772338263297500,0.982297607421875,0.0014239744050428271,0.0001453193835914135,0.00008052046177908778
1738772338273288700,0.992288818359375,0.001342281699180603,0.000213962746784091,0.0010008884128183126
1738772338283280600,1.00228076171875,-0.0008252650732174516,0.0009734963532537222,-0.0005224397173151374
1738772338293271800,1.012271728515625,-0.0008019854431040585,0.00012641935609281063,-0.0006070873350836337
1738772338303262700,1.0222626953125,-0.00044432288268581033,0.0002750235144048929,0.00024192838463932276
1738772338313253600,1.032253662109375,0.0014532535569742322,0.000162819167599082,0.0017988351173698902
1738772338323244500,1.04224462890625,-0.0007861985359340906,0.00023978459648787975,-0.0009309051092714071
1738772338333236700,1.05223681640625,-0.0007347468053922057,-0.0006749695166945457,0.0011332753347232938
1738772338343227600,1.0622275390625,-0.00044579384848475456,0.0006036139093339443,-0.0005210803356021643
1738772338353218800,1.07221875,0.0002604448236525059,-0.0012602126225829124,-0.0006674730102531612
1738772338363209700,1.082209716796875,0.0001299499999731779,-0.0008684617932885885,0.0009221677901223302
1738772338373200600,1.09220068359375,-0.0010926786344498396,-0.0008449722081422806,0.0004426501109264791
1738772338383192800,1.10219287109375,-0.0008974689990282059,0.00008473708294332027,0.00042267644312232733
1738772338393183700,1.112183837890625,0.0013366359053179622,-0.00016777729615569115,-0.00029874028405174613
1738772338403174700,1.122174560546875,0.0012884325115010142,-0.0007472813595086336,0.0005297691095620394
1738772338413165600,1.13216552734375,-0.0008460754179395735,-0.000524402828887105,-0.0017176594119518995
1738772338423156700,1.14215673828125,-0.0002697673626244068,-0.00036993948742747307,0.0009132773848250508
1738772338433147600,1.152147705078125,0.0010053449077531695,-0.0007149965967983007,-0.0018354792846366763
1738772338443139800,1.162139892578125,-0.0017606141045689583,-0.0010875728912651539,-0.0011678248411044478
1738772338453130800,1.172130859375,0.00015048193745315075,-0.000758820679038763,0.00006446140469051898
1738772338463121700,1.18212158203125,0.00020534300711005926,-0.0003191328141838312,0.0003536806907504797
1738772338473112600,1.192112548828125,0.0008521488634869456,-0.0006200822535902262,0.0004900664207525551
1738772338483103700,1.202103759765625,-0.0009689206490293145,-0.0006573663558810949,-0.0015677581541240215
1738772338493095700,1.212095703125,-0.0008540041162632406,-0.00061205611564219,0.00039339676732197404
1738772338503086600,1.222086669921875,-0.0015261858934536576,-0.00004293839447200298,0.0008783583762124181
1738772338513077800,1.232077880859375,0.00016404176130890846,0.00023207045160233974,-0.0011166890617460012
1738772338523068700,1.242068603515625,-0.0017872563330456614,0.0004645644221454859,-0.00018644685042090714
1738772338533059600,1.2520595703125,-0.0012077675200998783,0.000058466801419854164,-0.0005888163577765226
1738772338543051800,1.2620517578125,0.0009073150577023625,0.00016126479022204876,-0.00041171617340296507
1738772338553042700,1.272042724609375,-0.0008884142152965069,-0.0009516633581370115,0.0009582795319147408
1738772338563033600,1.28203369140625,0.000747832003980875,-0.0002041140105575323,-0.0016372371464967728
1738772338573024800,1.292024658203125,-0.0009388080216012895,0.00017456780187785625,-0.00045718601904809475
1738772338583015700,1.302015625,-0.0019856966100633144,0.00015326240099966526,-0.00005211919778957963
1738772338593007600,1.312007568359375,-0.00023011351004242897,-0.00027122534811496735,0.000616147241089493
1738772338602998800,1.321998779296875,-0.0005768570699729025,0.00014076544903218746,0.0016047125682234764
1738772338612989700,1.33198974609375,0.00039703468792140484,-0.00024237134493887424,-0.0008356639882549644
1738772338622980600,1.341980712890625,0.0008625551126897335,-0.0009121564216911793,-0.0010079704225063324
1738772338632971800,1.3519716796875,0.00010946323163807392,-0.0006728041917085648,-0.0008288754615932703
1738772338642962700,1.361962646484375,-0.000866319052875042,-0.0006943759508430958,-0.00014337785250972956
1738772338652954600,1.37195458984375,-0.0003340791445225477,-0.00003574206493794918,-0.0005720905610360205
1738772338662945800,1.38194580078125,0.0012995039578527212,0.0007104757241904736,0.000012473290553316474
1738772338672936700,1.391936767578125,0.002070687711238861,-0.00029120733961462975,-0.0004229001060593873
1738772338682927600,1.401927734375,-0.00010165281128138304,0.0014797949697822332,0.000275647034868598
1738772338692918800,1.411918701171875,0.000017720507457852364,-0.000008165370672941208,0.00024172477424144745
1738772338702910700,1.42191064453125,-0.000771906808950007,-0.0004707563202828169,0.0006968590314500034
1738772338712901600,1.431901611328125,-0.0006989792454987764,0.0005391200538724661,0.00010182303958572447
1738772338722892800,1.441892822265625,-0.0003000376746058464,-0.0006824720185250044,0.00019876210717484355
1738772338732883700,1.4518837890625,-0.00024717277847230434,-0.00013756542466580868,0.0002776282490231097
1738772338742874600,1.46187451171875,-0.0007020407356321812,-0.0006278534419834614,-0.0014494317583739758
1738772338752866800,1.47186669921875,-0.0007537599303759634,0.00047880178317427635,-0.0004262063594069332
1738772338762857700,1.481857666015625,0.00014798634219914675,0.00043725641444325447,-0.00044484849786385894
1738772338772848600,1.4918486328125,0.00038661714643239975,0.001041078707203269,-0.00019318275735713542
1738772338782839800,1.50183984375,0.0008569314377382398,-0.0010263333097100258,0.00023292304831556976
1738772338792830700,1.511830810546875,0.00007727439515292645,0.00003797607496380806,-0.0005582543672062457
1738772338802822700,1.52182275390625,-0.0003078187583014369,-0.0005109014455229044,0.00038636886165477335
1738772338812813800,1.531813720703125,-0.002546942327171564,-0.0004628528840839863,-0.000028735725209116936
1738772338822804700,1.5418046875,0.0006784121505916119,0.001865549013018608,-0.0015587217640131712
1738772338832795600,1.551795654296875,0.00040807167533785105,-0.0012592056300491095,0.0025488974060863256
1738772338842786800,1.561786865234375,0.00003416393883526325,0.00036878488026559353,-0.001570213818922639
1738772338852777700,1.57177783203125,0.0006611202843487263,0.0003548071254044771,0.0015637502074241638
1738772338862769700,1.581769775390625,-0.0005636675050482154,-0.00010884925723075867,-0.0005593218374997377
1738772338872760800,1.5917607421875,-0.00008472905028611422,0.00011271564289927483,-0.0012980008032172918
1738772338882751700,1.601751708984375,0.00031021772883832455,-0.0019672131165862083,0.0013742150040343404
1738772338892742700,1.61174267578125,-0.0020214091055095196,0.0004301704466342926,-0.002746263053268194
1738772338902733600,1.621733642578125,-0.0001848931424319744,-0.00012057111598551273,0.0007419452304020524
1738772338912725800,1.631725830078125,0.0006101746112108231,0.001074683154001832,-0.00041581265395507216
1738772338922716700,1.641716552734375,-0.000964019913226366,0.0006299356464296579,-0.000266675662714988
1738772338932707800,1.651707763671875,-0.00005959812551736832,0.0007910721469670534,-0.0005825915723107755
1738772338942698800,1.66169873046875,-0.0005711913690902293,-0.00024276715703308582,-0.000560221029445529
1738772338952689700,1.671689697265625,0.00033704086672514677,0.00011407327838242054,-0.0004984287079423666
1738772338962681900,1.681681884765625,-0.001334092696197331,0.0007143497932702303,-0.00005234926356934011
1738772338972672800,1.6916728515625,-0.0004902016371488571,0.0005513450596481562,0.0018131962278857827
1738772338982663700,1.70166357421875,-0.0002422613324597478,0.0008924959693104029,-0.0008401110535487533
1738772338992654600,1.711654541015625,0.0005397358909249306,-0.0002308017574250698,0.0012667190749198198
1738772339002645800,1.721645751953125,-0.0005705360090360045,0.00022885971702635288,0.0007940080249682069
1738772339012636700,1.73163671875,0.0004889531992375851,-0.00029400596395134926,-0.00006357651727739722
1738772339022628900,1.74162890625,0.0012815099908038974,-0.00028575025498867035,-0.0006792993517592549
1738772339032619800,1.751619873046875,0.0006035515107214451,0.0005301237106323242,0.0009426545584574342
1738772339042610700,1.761610595703125,0.0006200631614774466,-0.0005314124282449484,0.0014856731286272407
1738772339052601600,1.7716015625,0.00005092180799692869,0.0016691749915480614,-0.0008862736285664141
1738772339062592800,1.7815927734375,0.00025065895169973373,-0.0010256776586174965,0.00002825586125254631
1738772339072584700,1.791584716796875,0.001804265077225864,-0.00017593102529644966,0.0013697438407689333
1738772339082575600,1.80157568359375,-0.0003603522200137377,0.0007857363671064377,0.00017718039453029633
1738772339092566800,1.81156689453125,-0.0008174737449735403,0.0006792061030864716,-0.001375936670228839
1738772339102557700,1.8215576171875,0.0005961322458460927,-0.00004037981852889061,-0.00038737134309485555
1738772339112548600,1.831548583984375,0.0017157860565930605,-0.0009246482513844967,0.0014053834602236748
1738772339122540800,1.841540771484375,-0.00046773976646363735,0.0003225100226700306,-0.0009352687047794461
1738772339132531700,1.85153173828125,0.00015092769172042608,-0.001408901996910572,-0.00007995852502062917
1738772339142522600,1.861522705078125,-0.001038972637616098,-0.0005271292757242918,0.00028276402736082673
1738772339152513800,1.871513671875,-0.00019500043708831072,0.00042425747960805893,-0.0004464398371055722
1738772339162504700,1.881504638671875,0.0022942563518881798,-0.00015711039304733276,-0.0005130188656039536
1738772339172495600,1.89149560546875,0.0009923409670591354,-0.0004443477373570204,0.00017401919467374682
1738772339182487800,1.90148779296875,0.0013947447296231985,-0.00011944212019443512,0.0006392734358087182
1738772339192478700,1.911478759765625,0.0005468109156936407,0.00018334388732910156,-0.00024533114628866315
1738772339202469600,1.9214697265625,-0.0008795781759545207,-0.00004408997483551502,-0.0005015272181481123
1738772339212460500,1.93146044921875,-0.0010998330544680357,0.0003746813163161278,0.00000861790613271296
1738772339222451500,1.941451416015625,0.0015758448280394077,0.0003435220569372177,-0.0008931284537538886
1738772339232443600,1.951443603515625,0.00181352230720222,0.00019405782222747803,0.000024278939235955477
1738772339242434600,1.9614345703125,-0.001102106412872672,0.0004563792608678341,0.0005055121146142483
1738772339252425700,1.97142578125,-0.0007711790967732668,-0.00022544153034687042,0.0000791964412201196
1738772339262416600,1.981416748046875,0.0022174203768372536,-0.0014547568280249834,0.0005721475463360548
1738772339272407600,1.991407470703125,-0.0013547843554988503,-0.001382577931508422,-0.0004013502039015293
1738772339282399700,2.001399658203125,0.00133607373572886,-0.0007388920057564974,-0.0007273211376741529
1738772339292390700,2.011390625,-0.0010297185508534312,-0.00165883032605052,0.0019776567351073027
1738772339302381600,2.021381591796875,0.0005492697237059474,-0.00042898254469037056,0.0002154431422241032
1738772339312372500,2.03137255859375,0.0008577870903536677,-0.000710813095793128,0.0004736081464216113
1738772339322363600,2.04136376953125,-0.0006239957292564213,0.0005430029705166817,-0.0005735467420890927
1738772339332354600,2.0513544921875,0.0003113195998594165,-0.000610411399975419,0.0002323233347851783
1738772339342346800,2.0613466796875,0.000160850933752954,-0.00039948918856680393,0.000708762789145112
1738772339352337700,2.071337646484375,-0.0003269017906859517,0.0002535623498260975,-0.00031180476071313024
1738772339362328600,2.08132861328125,0.0011261189356446266,0.0010067042894661427,-0.0002601394662633538
1738772339372319500,2.091319580078125,-0.0005981167196296155,-0.000650712288916111,-0.0016613593325018883
1738772339382310700,2.101310546875,0.0009212166769430041,-0.0008533787913620472,0.00120207155123353
1738772339392302600,2.111302490234375,-0.00019442802295088768,-0.00010105432011187077,0.0007849317044019699
1738772339402293500,2.12129345703125,0.0008495310321450233,-0.0004067851696163416,0.0005939829861745238
1738772339412284700,2.13128466796875,-0.0002270466648042202,-0.0006984735373407602,0.0016406889772042632
1738772339422275600,2.141275634765625,-0.0009687370620667934,-0.0021174056455492973,-0.0004901062347926199
1738772339432266500,2.1512666015625,0.00011038000229746103,0.00045028841122984886,0.0013403198681771755
1738772339442257700,2.161257568359375,-0.0005016144714318216,0.0010018288157880306,0.0002798491041176021
1738772339452249600,2.17124951171875,-0.0021451939828693867,-0.000010881107300519943,-0.0006040384760126472
1738772339462240500,2.181240478515625,0.0006122431950643659,-0.000352298142388463,0.0001669466437306255
1738772339472231700,2.191231689453125,-0.0007875650771893561,-0.0014624260365962982,-0.0000551324337720871
1738772339482222600,2.20122265625,-0.001715410384349525,0.0002177623100578785,-0.0003387590986676514
1738772339492213500,2.211213623046875,0.0014853304019197822,0.000014920253306627274,0.00028510441188700497
1738772339502205700,2.221205810546875,0.000058674952015280724,-0.0011739146430045366,0.0005588773638010025
1738772339512196600,2.231196533203125,-0.0008092843345366418,0.00025908974930644035,-0.0009502811008132994
1738772339522187500,2.2411875,0.0011326927924528718,-0.0006636953912675381,0.0011267182417213917
1738772339532178700,2.2511787109375,0.0013753004604950547,0.0010150386951863766,-0.0018877078546211123
1738772339542169600,2.261169677734375,0.0015193776926025748,-0.0011136257089674473,-0.00018701315275393426
1738772339552160500,2.271160400390625,-0.00010056968312710524,0.000023995991796255112,-0.00017902787658385932
1738772339562152700,2.281152587890625,-0.0021008700132369995,0.00092654163017869,0.000680374214425683
1738772339572143600,2.2911435546875,0.0003312308108434081,0.0008475140202790499,-0.0002995211980305612
1738772339582134500,2.301134521484375,0.00048116676043719053,0.0006552336271852255,-0.00006542933988384902
1738772339592125700,2.311125732421875,0.0009358135284855962,-0.0007068640552461147,0.00035861122887581587
1738772339602116600,2.32111669921875,0.0000537744490429759,-0.00035239732824265957,0.00007019087206572294
1738772339612108500,2.331108642578125,-0.00005295802839100361,-0.0005978501867502928,0.000021067069610580802
1738772339622099700,2.341099609375,-0.0002510971389710903,-0.0009440609719604254,0.00036860955879092216
1738772339632090600,2.351090576171875,-0.000006425892934203148,0.0004559215158224106,0.0015676746843382716
1738772339642081500,2.36108154296875,0.0003349913749843836,-0.00010174443013966084,-0.0008435513591393828
1738772339652072700,2.37107275390625,-0.0018498043064028025,0.0004950268194079399,-0.000797575106844306
1738772339662064600,2.381064697265625,0.0004639499820768833,0.00040474534034729004,-0.0000612110598012805
1738772339672055600,2.3910556640625,-0.00015371351037174463,0.0003942330367863178,-0.00135996553581208
1738772339682046700,2.401046630859375,-0.0009494660189375281,-0.0006329482421278954,0.00010557202040217817
1738772339692037600,2.41103759765625,-0.0008362947846762836,-0.0023433996830135584,0.0002557179541327059
1738772339702028500,2.421028564453125,-0.0008469474851153791,0.00032375589944422245,-0.0006585452356375754
1738772339712019500,2.43101953125,0.00020078197121620178,-0.0003873663954436779,-0.00007680025009904057
1738772339722011600,2.44101171875,-0.0009134846040979028,0.0007514010649174452,-0.0008488506427966058
1738772339732002600,2.45100244140625,0.0011969285551458597,-0.0018136019352823496,0.00033427425660192966
1738772339741993700,2.46099365234375,-0.0001719362335279584,0.0005712585989385843,-0.00010594626655802131
1738772339751984600,2.470984619140625,0.000649617868475616,0.0005807850975543261,-0.0009053444373421371
1738772339761975600,2.4809755859375,-0.0008326976094394922,-0.0006197679322212934,0.0008302375790663064
1738772339771967700,2.4909677734375,-0.00027426250744611025,0.00035627977922558784,0.0006155376322567463
1738772339781958700,2.500958740234375,0.0013678425457328558,0.00023963302373886108,0.0004717269039247185
1738772339791949600,2.510949462890625,0.00011852022726088762,0.0003348237369209528,-0.0022878062445670366
1738772339801940500,2.5209404296875,0.00021998665761202574,0.0000583878718316555,0.0006757593364454806
1738772339811931600,2.530931640625,-0.00154963624663651,-0.0012179603800177574,-0.0005422037793323398
1738772339821922600,2.540922607421875,-0.00002391135785728693,-0.00024031405337154865,-0.0005339480121619999
1738772339831914800,2.550914794921875,-0.0008421414531767368,-0.0007796501740813255,0.0005154955433681607
1738772339841905700,2.56090576171875,-0.0017161909490823746,0.0003684386610984802,0.0002406572748441249
1738772339851896600,2.570896484375,-0.0004563180264085531,0.0005574880633503199,0.0006890732911415398
1738772339861887500,2.580887451171875,-0.0002163671888411045,-0.0005077761597931385,0.001180692808702588
1738772339871878700,2.590878662109375,-0.001266777515411377,-0.00024241814389824867,-0.0011387679260224104
1738772339881870600,2.60087060546875,-0.000021749758161604404,0.0005735745653510094,0.0002998716663569212
1738772339891861500,2.610861572265625,0.0004705182509496808,-0.0007889517582952976,0.00024247553665190935
1738772339901852700,2.620852783203125,-0.0015939641743898392,-0.0016771159134805202,-0.00015406917373184115
1738772339911843600,2.630843505859375,-0.0004213040811009705,0.0005789515562355518,0.00007405359065160155
1738772339921834500,2.64083447265625,0.00041998852975666523,-0.00015102094039320946,-0.00026842893566936255
1738772339931826700,2.65082666015625,-0.0021137038711458445,-0.000888138310983777,0.00014992724754847586
1738772339941817600,2.660817626953125,0.00011642719618976116,0.0011305378284305334,0.0012133275158703327
1738772339951808500,2.67080859375,0.0018655317835509777,0.00047833146527409554,-0.0004174041096121073
1738772339961799700,2.680799560546875,-0.0009251948213204741,0.0010253447107970715,0.000028941663913428783
1738772339971790600,2.69079052734375,-0.0017206723568961024,0.0013073103036731482,0.0006977758603170514
1738772339981781500,2.700781494140625,-0.00025460217148065567,0.0012114362325519323,0.00008498251554556191
1738772339991773700,2.710773681640625,-0.0012431289069354534,0.00012265006080269814,0.0003306519356556237
1738772340001764600,2.7207646484375,-0.0003986405208706856,0.0018971140962094069,-0.0021362341940402985
1738772340011755500,2.730755615234375,-0.0011921555269509554,0.0017098409589380026,-0.0012005427852272987
1738772340021746700,2.74074658203125,-0.001184965018182993,0.000496238237246871,-0.001605609548278153
1738772340031737600,2.750737548828125,-0.0011506408918648958,0.00034603686071932316,0.00024779789964668453
1738772340041729500,2.7607294921875,-0.0011317324824631214,0.0021769602317363024,-0.0009977625450119376
1738772340051720700,2.770720703125,-0.0005494521465152502,-0.000010999850928783417,0.001142009161412716
1738772340061711600,2.780711669921875,-0.0006328091258183122,-0.0008285902440547943,-0.001675615319982171
1738772340071702500,2.79070263671875,0.003599207615479827,0.000719928415492177,0.0024025915190577507
1738772340081693700,2.800693603515625,-0.0010386871872469783,-0.0002031233161687851,0.0012611608253791928
1738772340091684600,2.8106845703125,-0.0016340657602995634,0.001818217569962144,-0.00454977760091424
1738772340101676500,2.820676513671875,-0.0025880099274218082,-0.0017448258586227894,0.0028921598568558693
1738772340111667700,2.830667724609375,0.0012730071321129799,0.0034101998899132013,-0.0006849523633718491
1738772340121658600,2.84065869140625,-0.0019076061435043812,-0.00170519994571805,0.0024133692495524883
1738772340131649500,2.8506494140625,0.0005563250742852688,0.0024766745045781136,-0.0022164760157465935
1738772340141640700,2.860640625,0.00032676057890057564,0.0004651886411011219,-0.000019368133507668972
1738772340151632600,2.870632568359375,-0.0005601916345767677,0.0008425044361501932,-0.0011237668804824352
1738772340161623600,2.88062353515625,-0.001858216361142695,-0.00024912506341934204,-0.0016665192088112235
1738772340171614700,2.89061474609375,-0.001248722430318594,0.0019110406283289194,0.000082311627920717
1738772340181605600,2.900605712890625,-0.000936600030399859,0.0002492282073944807,0.00034143717493861914
1738772340191596500,2.910596435546875,-0.0008354464662261307,-0.00008580274879932404,-0.0009232222801074386
1738772340201588200,2.920588134765625,-0.0011680752504616976,-0.0009148446843028069,-0.0013578501529991627
1738772340211579100,2.9305791015625,0.000506679411046207,0.0008140909485518932,0.00017832362209446728
1738772340221570000,2.940570068359375,-0.001888301339931786,0.0003411136567592621,0.00029976374935358763
1738772340231561000,2.95056103515625,-0.001045290264301002,0.00046300003305077553,-0.001777338096871972
1738772340241552100,2.96055224609375,-0.0004801674513146281,-0.0009910857770591974,-0.0006827787728980184
1738772340251543000,2.97054296875,-0.0002705872757360339,-0.0012360941618680954,0.000011971598723903298
1738772340261535200,2.98053515625,-0.0010293219238519669,0.0014992386568337679,-0.00014275805733632296
1738772340271526100,2.990526123046875,0.00018273305613547564,-0.0008217347785830498,-0.0017405790276825428
1738772340281517000,3.00051708984375,0.0036464405711740255,0.00011037150397896767,0.000921250379178673
1738772340291508000,3.010508056640625,0.00021229335106909275,-0.0012242782395333052,0.0012879791902378201
1738772340301499100,3.0204990234375,-0.0008511068299412727,0.0006082428153604269,-0.0006188441184349358
1738772340311491000,3.030490966796875,0.0008680905448272824,-0.0013516470789909363,0.00016662705456838012
1738772340321482000,3.04048193359375,0.0006465156329795718,0.00033679697662591934,-0.000803562521468848
1738772340331473200,3.05047314453125,-0.00007035420276224613,-0.001279426971450448,0.0006190675194375217
1738772340341464000,3.060464111328125,0.0005783919477835298,0.0004540246445685625,-0.0006667066481895745
1738772340351455000,3.070455078125,-0.0019338724669069052,0.00043143145740032196,0.0004645940789487213
1738772340361446100,3.080446044921875,-0.002174356020987034,-0.0004639232065528631,0.00038896032492630184
1738772340371438000,3.09043798828125,-0.00043350429041311145,-0.000164735596626997,-0.0010301158763468266
1738772340381429000,3.100428955078125,-0.0011898420052602887,0.00047655380330979824,-0.00011638537398539484
1738772340391420200,3.110420166015625,-0.001183840213343501,0.000040158163756132126,-0.0003219437494408339
1738772340401411000,3.1204111328125,-0.0004951468436047435,-0.001861605211161077,0.0006250763544812799
1738772340411402000,3.130402099609375,-0.0015657083131372929,-0.0007595708593726158,0.0004971448797732592
1738772340421394200,3.140394287109375,-0.0002040340332314372,0.000325134489685297,0.00029208141495473683
1738772340431385000,3.150385009765625,0.0003860637079924345,0.0005936652887612581,-0.0002749663544818759
1738772340441376000,3.1603759765625,-0.0008368598064407706,-0.0006612164434045553,0.00044435341260395944
1738772340451367200,3.1703671875,-0.0008448638836853206,-0.0006010143551975489,-0.00039742831722833216
1738772340461358000,3.180358154296875,-0.00019771570805460215,-0.0008199261501431465,-0.00023044811678119004
1738772340471349000,3.190348876953125,-0.0007199636893346906,0.0008671698160469532,-0.001576779643073678
1738772340481341200,3.200341064453125,-0.0010446030646562576,-0.00011047651059925556,0.00025520886993035674
1738772340491332000,3.21033203125,0.0013662029523402452,-0.000036885496228933334,-0.0003156604652758688
1738772340501323000,3.220322998046875,0.00011664768680930138,0.001363138435408473,-0.0003153941361233592
1738772340511314200,3.230314208984375,-0.0001980094239115715,-0.0005205541383475065,-0.0003338081296533346
1738772340521305000,3.24030517578125,-0.00011678296141326427,-0.0007008500397205353,-0.0007220970001071692
1738772340531297000,3.250297119140625,-0.0015931884991005063,-0.0002405238337814808,0.00005298704490996897
1738772340541288200,3.2602880859375,-0.0010238047689199448,-0.0002445187419652939,0.000053519674111157656
1738772340551279000,3.270279052734375,0.00021522515453398228,0.0007965478580445051,0.00015074413386173546
1738772340561270000,3.28027001953125,0.0002075020456686616,-0.0000732403714209795,-0.00003647609264589846
1738772340571261200,3.29026123046875,0.00008660135790705681,-0.0000308395829051733,-0.00014069049211684614
1738772340581252000,3.300252197265625,-0.001257762429304421,0.00009859004057943821,0.0009458792628720403
1738772340591244000,3.310244140625,-0.0005334501038305461,0.000717461109161377,-0.0012079973239451647
1738772340601235200,3.320235107421875,0.0014138531405478716,-0.0012484844774007797,0.00019362432067282498
1738772340611226000,3.33022607421875,-0.0014172457158565521,-0.000026910798624157906,-0.0011687013320624828
1738772340621217000,3.340217041015625,-0.0003471876261755824,-0.0005877725780010223,-0.0017029313603416085
1738772340631208000,3.3502080078125,-0.0011866942513734102,0.0013062255457043648,-0.001297073788009584
1738772340641200000,3.3602001953125,0.00045727507676929235,-0.0016480190679430962,0.0003476944693829864
1738772340651191000,3.37019091796875,-0.00014075974468141794,0.0008150788489729166,0.0001433666911907494
1738772340661182200,3.38018212890625,-0.0007037519826553762,0.0007647450547665358,-0.0006459942669607699
1738772340671173000,3.390173095703125,0.00008815003093332052,-0.00021764100529253483,-0.00032834531157277524
1738772340681164000,3.4001640625,0.00009267742279917002,-0.000010180752724409103,0.00020615110406652093
1738772340691155000,3.410155029296875,-0.0004907824331894517,0.0012259322684258223,0.0008622069726698101
1738772340701147100,3.420147216796875,0.0010890046833083034,-0.0005754297599196434,-0.0013378304429352283
1738772340711138000,3.430137939453125,-0.001527820946648717,0.0003587063401937485,-0.00048641033936291933
1738772340721129000,3.44012890625,0.000298841274343431,-0.00031001330353319645,0.0005583477322943509
1738772340731120000,3.4501201171875,-0.0002965752501040697,0.00015023769810795784,0.00039787316927686334
1738772340741111000,3.460111083984375,0.0004909215494990349,-0.0004335273988544941,-0.000950485235080123
1738772340751103200,3.470103271484375,0.0013129261787980795,-0.0001042329240590334,-0.0004651100025512278
1738772340761094100,3.48009423828125,0.00010837835725396872,0.0001807252410799265,0.0004896332393400371
1738772340771085000,3.4900849609375,-0.0006478663417510688,0.0007141376845538616,0.0004686579923145473
1738772340781076000,3.500075927734375,-0.00009206461254507303,0.0008459640666842461,0.0015874519012868404
1738772340791067100,3.510067138671875,0.0001961447997018695,-0.0005093940999358892,-0.000184893244295381
1738772340801059000,3.52005908203125,0.000537295825779438,0.00000619376078248024,-0.00015639742196071893
1738772340811050000,3.530050048828125,0.0005945443408563733,-0.0010260103736072779,0.002170586958527565
1738772340821041200,3.540041259765625,-0.00019481650087982416,0.0000983760692179203,0.0006142357597127557
1738772340831032000,3.550031982421875,0.00039276399184018373,-0.001148009905591607,0.0021302816458046436
1738772340841023000,3.56002294921875,-0.00009752390906214714,0.0005396353080868721,0.0009923127945512533
1738772340851014100,3.57001416015625,-0.000827058800496161,0.0008072739001363516,-0.0006283171242102981
1738772340861006000,3.580006103515625,-0.0006752586341463029,-0.0009014101233333349,0.000653994909953326
1738772340870997000,3.5899970703125,0.0011467577423900366,-0.00020404625684022903,0.0003665091353468597
1738772340880988200,3.59998828125,-0.0010064078960567713,0.0004028882831335068,0.0009577308665029705
1738772340890979000,3.60997900390625,-0.00012975512072443962,0.0018366184085607529,0.0001714538666419685
1738772340900970000,3.619969970703125,-0.0007092589512467384,-0.00007659662514925003,0.0022716226521879435
1738772340910962200,3.629962158203125,0.00008555420208722353,0.0016721882857382298,0.0003605407546274364
1738772340920953000,3.639953125,0.0007508117705583572,0.0008197100833058357,-0.0003973948769271374
1738772340930944000,3.649944091796875,-0.0002583707682788372,-0.0013674860820174217,-0.0007878760225139558
1738772340940935200,3.65993505859375,0.00026254355907440186,-0.00046467455103993416,-0.0003151649434585124
1738772340950926000,3.669926025390625,0.00014297175221145153,0.0011737747117877007,0.0010935531463474035
1738772340960917000,3.6799169921875,0.0005922471173107624,0.0005604489706456661,-0.0004590697935782373
1738772340970909200,3.6899091796875,0.00012637139298021793,-0.0010231614578515291,0.0001315870031248778
1738772340980900000,3.699900146484375,-0.0003167785471305251,-0.00026016589254140854,-0.0003073019324801862
1738772340990891000,3.70989111328125,-0.0024441503919661045,0.00004709465429186821,0.00040780528797768056
1738772341000882200,3.719882080078125,0.00040330132469534874,-0.0012016617693006992,-0.001195683958940208
1738772341010873000,3.729873046875,0.00007227575406432152,0.0003305063582956791,0.0011632603127509356
1738772341020865000,3.739864990234375,-0.0002454393543303013,-0.0011973492801189423,-0.001072996063157916
1738772341030856200,3.749856201171875,-0.0009908991632983088,0.000004990259185433388,-0.0004908046103082597
1738772341040847000,3.75984716796875,0.001088496996089816,0.0005751729477196932,-0.00018667160475160927
1738772341050838000,3.769838134765625,0.000422940356656909,-0.0016134886536747217,-0.0005071547348052263
1738772341060829200,3.7798291015625,0.0010290759382769465,0.0017812426667660475,0.0004273484810255468
1738772341070820000,3.789820068359375,-0.0003184062661603093,0.0014028283767402172,-0.0008085527224466205
1738772341080812000,3.79981201171875,0.0002941207494586706,-0.00043581798672676086,0.0004785530036315322
1738772341090803200,3.80980322265625,0.0006561058107763529,-0.00008798693306744099,-0.0008212990360334516
1738772341100794000,3.819794189453125,-0.0005127556505613029,0.0013056453317403793,0.0005326520185917616
1738772341110785000,3.829784912109375,0.0007151511963456869,0.0010648374445736408,-0.00004822859773412347
1738772341120776000,3.83977587890625,-0.00009152037091553211,-0.0003575568553060293,0.00006575472070835531
1738772341130768100,3.84976806640625,-0.001053603831678629,0.0013955719769001007,0.00003489787923172116
1738772341140759000,3.859759033203125,-0.0007169803138822317,0.00017131678760051727,0.0009741947869770229
1738772341150750200,3.869750244140625,0.0001471575815230608,0.0006441862788051367,0.00011485617142170668
1738772341160741000,3.8797412109375,0.0003154693404212594,-0.000226134667173028,-0.0004630497714970261
1738772341170732000,3.88973193359375,0.00017297221347689629,-0.0002190533559769392,0.0004756967246066779
1738772341180723000,3.899722900390625,-0.0006709834560751915,0.0010443502105772495,0.00008314679143950343
1738772341190715100,3.909715087890625,-0.001172431861050427,-0.00046366755850613117,0.0017964914441108704
1738772341200706600,3.91970654296875,0.000312280491925776,0.00003833835944533348,-0.000006202346412464976
1738772341210697500,3.929697509765625,0.0004912688164040446,-0.00015168637037277222,-0.0009347560117021203
1738772341220688400,3.9396884765625,-0.000893841206561774,0.0011790953576564789,-0.0004886765382252634
1738772341231928300,3.95092822265625,-0.00040710391476750374,0.0009006012696772814,0.0005148189375177026
1738772341241920500,3.96092041015625,0.0002877147635444999,-0.00042245700024068356,0.0007164202397689223
1738772341251911400,3.970911376953125,-0.00314402231015265,0.001190747832879424,-0.000517325708642602
1738772341261902300,3.98090234375,0.0007961243391036987,-0.00028091506101191044,-0.0005639310693368316
1738772341271893500,3.9908935546875,-0.0003423363668844104,-0.00008888891898095608,-0.0005055493675172329
1738772341281884400,4.000884521484375,0.0008819187059998512,-0.000523250550031662,0.00026303890626877546
1738772341291876400,4.01087646484375,-0.00010008888784796,-0.000615075696259737,0.000370101653970778
1738772341301867500,4.020867431640625,0.0006724940612912178,0.0008403421379625797,-0.00015667160914745182
1738772341311858400,4.0308583984375,-0.0008301107445731759,0.00025649997405707836,0.002252759411931038
1738772341321849300,4.040849365234375,0.001225316897034645,-0.00020928704179823399,0.0011177200358361006
1738772341331840500,4.050840576171875,-0.0004738476127386093,0.00012673879973590374,0.0010851594852283597
1738772341341831400,4.06083154296875,0.0003653144231066108,0.0007208902388811111,0.0005157756386324763
1738772341351823400,4.0708232421875,0.0008630083175376058,0.0005681405309587717,-0.0002854050253517926
1738772341361814500,4.080814453125,-0.0001434003934264183,-0.0003706237766891718,-0.0003557124873623252
1738772341371805400,4.090805419921875,-0.0012699596118181944,0.00008874619379639626,0.0007994960178621113
1738772341381796400,4.10079638671875,-0.0011037783697247505,-0.00016771606169641018,0.0006181347416713834
1738772341391787500,4.11078759765625,-0.000397959491237998,0.000010414281859993935,0.0013523807283490896
1738772341401779500,4.120779541015625,0.0010369517840445042,0.0014690274838358164,0.00012013621744699776
1738772341411770400,4.130770263671875,-0.00022146012634038925,-0.00003069639205932617,0.00015414151130244136
1738772341421761500,4.140761474609375,0.0016049358528107405,0.0009362974669784307,-0.0004685055755544454
1738772341431752400,4.15075244140625,-0.00016464735381305218,-0.0012706436682492495,0.0003793766372837126
1738772341441743400,4.160743408203125,0.00023322890046983957,0.000449758255854249,0.00013836054131388664
1738772341451734500,4.170734619140625,0.0006445302860811353,-0.0008431586902588606,-0.002236479427665472
1738772341461726500,4.1807265625,-0.0016226187581196427,0.0006625927053391933,0.0005268164677545428
1738772341471717400,4.19071728515625,0.00014346744865179062,0.00009213946759700775,0.00027117575518786907
1738772341481708500,4.20070849609375,0.00040392461232841015,0.0008801689837127924,0.0009928924264386296
1738772341491699500,4.210699462890625,0.0003403110895305872,-0.0004298829007893801,-0.00088484090520069
1738772341501690400,4.2206904296875,-0.0008754219743423164,0.0006681382656097412,-0.0007058765040710568
1738772341511682600,4.2306826171875,0.0007436408195644617,0.0017199686262756586,-0.0002381039084866643
1738772341521673500,4.240673583984375,0.001199041260406375,0.0009836049284785986,-0.00022425547649618238
1738772341531664400,4.250664306640625,-0.0019297227263450623,-0.00009444355964660645,-0.0004988065338693559
1738772341541655600,4.260655517578125,-0.0007472791476175189,-0.0007306726183742285,0.0009323761914856732
1738772341551646500,4.270646484375,0.00014371064025908709,0.0007336314301937819,-0.0004853615537285805
1738772341561637400,4.280637451171875,-0.002048337133601308,0.0006207132246345282,0.001119991997256875
1738772341571629600,4.290629638671875,-0.0006692158640362322,0.0003071401733905077,-0.0020791953429579735
1738772341581620500,4.300620361328125,0.0001425156369805336,0.0003510823007673025,-0.00006131813279353082
1738772341591611400,4.310611328125,-0.0021914273966103792,0.0013965093530714512,-0.00032201266731135547
1738772341601602300,4.320602294921875,-0.0012824905570596457,0.0001070068683475256,0.000033253018045797944
1738772341611593500,4.330593505859375,0.000389714608900249,-0.0005324662197381258,-0.0002789663849398494
1738772341621585400,4.34058544921875,-0.0003594325971789658,-0.0005870610475540161,-0.00014447676949203014
1738772341631576600,4.35057666015625,-0.0011232019169256091,0.0006384842563420534,0.00021443696459755301
1738772341641567500,4.3605673828125,-0.00026220199652016163,-0.0009375745430588722,-0.0001213876239489764
1738772341651558400,4.370558349609375,-0.0008218787843361497,-0.0005984276067465544,-0.0004234898369759321
1738772341661549300,4.38054931640625,-0.0010615632636472583,-0.00012331968173384666,0.0005403081304393709
1738772341671540500,4.39054052734375,-0.000442167860455811,-0.00050902902148664,-0.00164076779037714
1738772341681532400,4.400532470703125,-0.000028312671929597855,-0.0011148981284350157,0.0006492843967862427
1738772341691523300,4.4105234375,-0.0006844535237178206,0.0009119149763137102,0.00034041397157125175
1738772341701514500,4.420514404296875,0.0005118384724482894,0.0007968663703650236,-0.0010007539531216025
1738772341711505400,4.43050537109375,-0.0003044938202947378,0.0005839699879288673,-0.0005994179518893361
1738772341721496300,4.440496337890625,0.0014180387370288372,-0.0007904872763901949,0.0008690489921718836
1738772341731488500,4.450488525390625,-0.000723443750757724,0.000019039958715438843,0.0017204803880304098
1738772341741479400,4.4604794921875,0.00023183214943856,0.00004087784327566624,-0.00047103484394028783
1738772341751470300,4.47047021484375,0.001666399766691029,0.001008149003610015,0.0003225760883651674
1738772341761461500,4.48046142578125,-0.0009898371063172817,-0.0006696425843983889,0.0008914272766560316
1738772341771452400,4.490452392578125,0.00024491059593856335,0.0003967294469475746,0.0012904512695968151
1738772341781444400,4.5004443359375,0.0010726210894063115,0.0011448115110397339,-0.0009420766145922244
1738772341791435500,4.510435546875,-0.0015223149675875902,0.0005392082966864109,0.00042843809933401644
1738772341801426400,4.520426513671875,-0.0002527860924601555,0.0004811515100300312,0.000382631755201146
1738772341811417300,4.530417236328125,-0.001052263774909079,0.0003036039415746927,-0.00039248302346095443
1738772341821408500,4.540408447265625,-0.0001609036698937416,0.00046712183393538,-0.0017336509190499783
1738772341831399400,4.5503994140625,0.0006306105060502887,-0.0005802945233881474,-0.0000014208490028977394
1738772341841391400,4.560391357421875,0.00018959108274430037,0.00022477912716567516,0.0009181686909869313
1738772341851382500,4.570382568359375,-0.00041206873720511794,0.0004734187386929989,0.000586397189181298
1738772341861373400,4.58037353515625,0.00009952450636774302,-0.00018038740381598473,-0.0009792752098292112
1738772341871364400,4.5903642578125,-0.00008071120828390121,0.0014097853563725948,0.00007411456317640841
1738772341881355500,4.60035546875,0.000856987782754004,-0.0008496404625475407,-0.0006505315541289747
1738772341891347500,4.610347412109375,0.0014871734892949462,-0.0005650459788739681,0.001279604621231556
1738772341901338400,4.62033837890625,0.001381978509016335,-0.00011763488873839378,-0.0010895434534177184
1738772341911329500,4.63032958984375,-0.0018285939004272223,-0.0009421207942068577,0.000875238620210439
1738772341921320400,4.640320556640625,0.0004595940699800849,-0.0009104292839765549,0.0014086698647588491
1738772341931311400,4.650311279296875,0.0002862280234694481,-0.00010566436685621738,-0.001139677595347166
1738772341941303600,4.660303466796875,-0.00012416508980095387,-0.0008066082373261452,-0.0018020058050751686
1738772341951294500,4.67029443359375,-0.00047041737707331777,-0.000649056863039732,-0.000521052279509604
1738772341961285400,4.680285400390625,0.00037566886749118567,-0.0006226915866136551,-0.0006078713340684772
1738772341971276500,4.690276611328125,-0.00038836017483845353,0.00003588362596929073,-0.0003058786678593606
1738772341981267500,4.700267333984375,0.0010020761983469129,0.0003400167915970087,-0.00010028263204731047
1738772341991259400,4.71025927734375,0.0016840103780850768,-0.0013185851275920868,-0.00014407822163775563
1738772342001250600,4.72025048828125,0.00044004793744534254,-0.0004946033004671335,-0.0007177231600508094
1738772342011241500,4.730241455078125,0.0019442909397184849,0.0005892999470233917,-0.0007867938838899136
1738772342021232400,4.740232421875,0.0023376396857202053,0.0007115392945706844,0.00007420606561936438
1738772342031223600,4.7502236328125,-0.00037200370570644736,-0.00032793660648167133,0.0004003136418759823
1738772342041214500,4.76021435546875,-0.000638852478004992,0.0010731525253504515,-0.0003296587965451181
1738772342051206400,4.770206298828125,-0.0000810007331892848,-0.0000037248246371746063,-0.00041189114563167095
1738772342061197600,4.780197509765625,0.0020199669525027275,0.00020346930250525475,0.0002483064599800855
1738772342071188500,4.7901884765625,0.0003715222701430321,0.0001425009686499834,-0.000973412417806685
1738772342081179400,4.800179443359375,0.0007768555078655481,0.0014865982811897993,0.00003778983955271542
1738772342091170300,4.81017041015625,-0.00035960384411737323,0.001146937720477581,-0.001999625936150551
1738772342101162500,4.82016259765625,-0.0010794562986120582,0.0004981919191777706,-0.0005431430763565004
1738772342111153400,4.8301533203125,-0.0006156273302622139,0.0007253184448927641,-0.000035213539376854897
1738772342121144600,4.84014453125,-0.00045716925524175167,-0.000872844597324729,-0.0007547996938228607
1738772342131135500,4.850135498046875,0.0008889372693374753,0.000021702377125620842,-0.0015602613566443324
1738772342141126400,4.86012646484375,-0.001739070168696344,0.0010254478547722101,0.0005508264293894172
1738772342151117300,4.870117431640625,0.00029076950158923864,-0.0005501573905348778,0.0009597403695806861
1738772342161109500,4.880109619140625,0.0015520425513386726,0.0006285575218498707,0.0006665263790637255
1738772342171100400,4.890100341796875,-0.00009376625530421734,-0.00019722338765859604,0.0008588439086452127
1738772342181091300,4.90009130859375,0.00036829221062362194,-0.00024409499019384384,-0.0009619593038223684
1738772342191082500,4.91008251953125,-0.0006672742310911417,0.000046019209548830986,-0.0004585034039337188
1738772342201073400,4.920073486328125,-0.00018417683895677328,0.0010526939295232296,0.0004427102976478636
1738772342211066400,4.93006640625,0.0031496998853981495,0.0008025839924812317,0.0004545519477687776
1738772342221057300,4.940057373046875,0.0006790852639824152,-0.0005457743536680937,-0.0014123240252956748
1738772342231048200,4.950048095703125,0.00029475358314812183,-0.00057234987616539,-0.00019805607735179365
1738772342241039400,4.960039306640625,0.0001152565237134695,-0.0007739511784166098,-0.0002483898133505136
1738772342251030300,4.9700302734375,0.00038759084418416023,0.0003404270391911268,-0.0016098099295049906
1738772342261022200,4.980022216796875,0.0008914609206840396,-0.0008361572399735451,0.0006253811880014837
1738772342271013400,4.990013427734375,0.0009804090950638056,-0.00020639062859117985,-0.00022701379202771932
1738772342281004300,5.00000439453125,-0.0014593127416446805,0.0002833646722137928,0.0013461154885590076
1738772342290995200,5.0099951171875,0.0009323142003268003,-0.00001677614636719227,-0.00007523820386268198
1738772342300986400,5.019986328125,0.00011072889901697636,0.0006815046072006226,-0.0009628697880543768
1738772342310978000,5.02997802734375,-0.0006911230739206076,0.0008399232756346464,-0.0007218098035082221
1738772342320969200,5.03996923828125,-0.0001603551208972931,0.0011640300508588552,0.0006164286169223487
1738772342330960400,5.04996044921875,-0.0006730970344506204,0.00017694826237857342,-0.0000312767515424639
1738772342340951300,5.059951416015625,0.0001101386733353138,0.00008613429963588715,0.0013295984826982021
1738772342350942200,5.069942138671875,-0.0008455663919448853,0.0006856359541416168,-0.00022229338355828077
1738772342360933400,5.079933349609375,0.000022091437131166458,-0.0013058758340775967,0.00039263052167370915
1738772342370925300,5.08992529296875,0.00021912495139986277,0.001719453139230609,0.0004203223797958344
1738772342380916200,5.099916259765625,-0.0010189786553382874,-0.00034076813608407974,-0.00027689317357726395
1738772342390907400,5.109907470703125,0.0012317036744207144,-0.0004700426943600178,0.0008311676792800426
1738772342400898300,5.119898193359375,-0.0009241251391358674,0.000056996941566467285,0.00023302165209315717
1738772342410889200,5.12988916015625,-0.0000499701127409935,-0.0014176792465150356,-0.0011429635342210531
1738772342420881200,5.139881103515625,0.00042407261207699776,-0.00010980083607137203,-0.0006140598561614752
1738772342430872300,5.149872314453125,0.000812009209766984,-0.000342321814969182,-0.00030815601348876953
1738772342440863200,5.15986328125,0.0002301085041835904,0.0005754032172262669,0.0011797520564869046
1738772342450854400,5.1698544921875,0.001751542091369629,-0.0014436452183872461,-0.00017665491031948477
1738772342460845300,5.17984521484375,-0.000426391139626503,-0.0005624052137136459,-0.00085655995644629
1738772342470837000,5.1898369140625,0.000501080066896975,-0.0012060967274010181,-0.00040764998993836343
1738772342480828200,5.199828125,0.0012933705002069473,0.00026050605811178684,-0.0010870223632082343
1738772342490819300,5.2098193359375,0.00022043625358492136,0.0008893939666450024,-0.001424558344297111
1738772342500810200,5.219810302734375,0.0012862334260717034,0.00039937207475304604,-0.0001022987999022007
1738772342510801400,5.229801513671875,-0.0008134234230965376,0.0006114335265010595,-0.0007889382541179657
1738772342520792300,5.239792236328125,-0.0002749322447925806,0.0002966478932648897,-0.00025790397194214165
1738772342530784300,5.2497841796875,0.000833953614346683,-0.001134747639298439,-0.0006112246192060411
1738772342540775400,5.259775390625,-0.0001306432532146573,0.0005310596898198128,0.00011901414836756885
1738772342550766300,5.269766357421875,-0.0004793665139004588,-0.0008203196339309216,0.00039063027361407876
1738772342560757200,5.27975732421875,-0.000708931009285152,0.00036212382838129997,-0.0004213675274513662
1738772342570748400,5.28974853515625,0.0012737533543258905,0.00021034525707364082,-0.00027915084501728415
1738772342580740000,5.299739990234375,0.00025456154253333807,0.0002897074446082115,0.001575208269059658
1738772342590731300,5.309731201171875,0.0005019120872020721,0.0011970431078225374,-0.0003815434465650469
1738772342600722400,5.319722412109375,0.0005607679486274719,0.0005221983883529902,0.0013708166079595685
1738772342610713300,5.32971337890625,0.00048097968101501465,0.000339890131726861,-0.0006322161061689258
1738772342620704300,5.339704345703125,-0.0001051820581778884,0.0001404194626957178,0.00005780896754004061
1738772342630696200,5.3496962890625,-0.001241448801010847,0.0009012126829475164,-0.0003261833917349577
1738772342640687000,5.35968701171875,0.0011066603474318981,-0.0005653901025652885,-0.00047212460776790977
1738772342650678300,5.36967822265625,-0.0007562896353192627,0.0012828668113797903,0.001014166628010571
1738772342660669400,5.37966943359375,0.0010370829841122031,-0.00024285796098411083,-0.0000899799051694572
1738772342670660400,5.389660400390625,-0.0001267316984012723,0.001794242300093174,-0.00015186090604402125
1738772342680651300,5.3996513671875,-0.0005736101302318275,-0.00030139926820993423,0.000182099494850263
1738772342690643200,5.409643310546875,-0.0008823963580653071,-0.0011815396137535572,0.00037697586230933666
1738772342700634400,5.41963427734375,0.00033520092256367207,-0.00022812793031334877,0.0012441010912880301
1738772342710625300,5.429625244140625,-0.0005688350647687912,-0.0013417934533208609,0.0005141826695762575
1738772342720616200,5.4396162109375,0.00009988469537347555,-0.00016840477474033833,-0.0005082048592157662
1738772342730607400,5.449607421875,-0.0009505361667834222,0.0000528884120285511,0.00046090991236269474
1738772342740599000,5.45959912109375,0.00046733079943805933,0.0006371859926730394,-0.0015870609786361456
1738772342750590200,5.469590087890625,-0.0005851399037055671,-0.000035180943086743355,-0.0023766427766531706
1738772342760581400,5.479581298828125,-0.001182753243483603,-0.001230940455570817,0.0015363397542387247
1738772342770572300,5.489572265625,0.0013345676707103848,-0.00028598238714039326,-0.0006888419738970697
1738772342780563200,5.499563232421875,-0.0005695924628525972,-0.0002990318462252617,-0.0007724651950411499
1738772342790555100,5.50955517578125,-0.0014916890067979693,-0.000770495506003499,-0.0018614272121340036
1738772342800546000,5.519546142578125,-0.00026343914214521646,-0.00044905184768140316,-0.0014960415428504348
1738772342810537200,5.529537109375,0.0013542304513975978,-0.0008329241536557674,0.0005780874053016305
1738772342820528400,5.5395283203125,0.0006753905909135938,0.00018147379159927368,-0.0021825453732162714
1738772342830519300,5.549519287109375,0.0005683867493644357,0.00013553909957408905,0.0003879531577695161
1738772342840510200,5.55951025390625,0.0004767740610986948,-0.00015527824871242046,0.0008276409935206175
1738772342850502100,5.569502197265625,-0.0007841931073926389,0.001338043948635459,-0.0004900204949080944
1738772342860493000,5.5794931640625,0.0006123685743659735,-0.00044440990313887596,-0.00024500966537743807
1738772342870484200,5.589484130859375,0.00011223973706364632,0.0011875408235937357,-0.0004325363552197814
1738772342880475400,5.599475341796875,-0.0002526133321225643,-0.0004433791618794203,-0.0020038015209138393
1738772342890466300,5.60946630859375,-0.00007707613985985518,0.000022642547264695168,0.00009581200720276684
1738772342900458200,5.619458251953125,0.00018790829926729202,0.00038589746691286564,-0.0012972875265404582
1738772342910449200,5.62944921875,-0.00040138274198397994,0.000846225768327713,0.000846607843413949
1738772342920440300,5.6394404296875,-0.0008021884714253247,-0.0009269069414585829,0.0013155905762687325
1738772342930431200,5.64943115234375,-0.0010905861854553223,-0.0005067535676062107,-0.001964431954547763
1738772342940422400,5.65942236328125,-0.0002737946342676878,-0.00015761307440698147,0.0005700985202565789
1738772342950414000,5.6694140625,0.0003664473770186305,-0.0006340730469673872,-0.0003958169836550951
1738772342960405000,5.679405029296875,0.0004537990316748619,-0.0011560525745153427,0.00037250499008223414
1738772342970396200,5.689396240234375,0.0005745429079979658,-0.00008895853534340858,-0.0013036389136686921
1738772342980387300,5.69938720703125,-0.0008289429824799299,-0.0017739403992891312,0.0007419351022690535
1738772342990378200,5.709378173828125,0.0002391291782259941,-0.0014374444726854563,-0.00015787298616487533
1738772343000369400,5.719369384765625,-0.0006277297507040203,-0.0010203933343291283,-0.0026612444780766964
1738772343010361000,5.729361083984375,0.0005111262435093522,-0.0007383706979453564,0.001041351817548275
1738772343020352000,5.73935205078125,-0.0004300348227843642,0.0009327626321464777,-0.0005288479151204228
1738772343030343200,5.74934326171875,0.000799746485427022,0.00020690192468464375,0.0023213597014546394
1738772343040334300,5.759334228515625,-0.0013172003673389554,-0.0008104254957288504,-0.000744204968214035
1738772343050325200,5.7693251953125,0.0004173513734713197,0.00037560355849564075,-0.0005767075344920158
1738772343060317200,5.779317138671875,-0.00041914754547178745,-0.0005841995589435101,0.0005681853508576751
1738772343070308000,5.78930810546875,-0.0019377146381884813,0.0007796678692102432,-0.0004936634795740247
1738772343080299300,5.79929931640625,-0.0004391539259813726,-0.00042035244405269623,-0.00005743768997490406
1738772343090290400,5.80929052734375,0.00173726468347013,-0.000762182055041194,0.000313148251734674
1738772343100281300,5.81928125,0.00006107112858444452,-0.0005488628521561623,-0.0003406577743589878
1738772343110273000,5.82927294921875,0.0000327888410538435,0.0004685744643211365,-0.0003361094568390399
1738772343120264200,5.83926416015625,-0.0004883917863480747,0.00017083296552300453,-0.0015329341404139996
1738772343130255000,5.849255126953125,-0.000774455489590764,-0.00019682827405631542,-0.001252331305295229
1738772343140246300,5.859246337890625,-0.0010791211389005184,-0.0005819213110953569,0.0013871276751160622
1738772343150237400,5.869237548828125,-0.0008475700742565095,-0.0011043399572372437,-0.0016201107064262033
1738772343160228400,5.879228271484375,0.0010366163915023208,0.0005287106614559889,0.00016820189193822443
1738772343170220000,5.889219970703125,-0.001044197124429047,0.0010680663399398327,-0.0013343903701752424
1738772343180211200,5.899211181640625,0.0011909938184544444,0.00006698397919535637,-0.0005471599288284779
1738772343190202000,5.9092021484375,-0.00000892183743417263,0.0004653779324144125,-0.00010752091475296766
1738772343200193300,5.919193359375,0.000219044741243124,0.00023554707877337933,-0.0005434803897514939
1738772343210183700,5.92918359375,0.00021116749849170446,-0.00041830074042081833,0.0008700127946212888
1738772343220175600,5.939175537109375,-0.0003486289642751217,-0.00023534148931503296,-0.0004762151511386037
1738772343230166800,5.949166748046875,-0.00047147058648988605,-0.00019662873819470406,-0.0007300879806280136
1738772343240157700,5.95915771484375,0.0003812735667452216,-0.0008163463789969683,-0.0014978772960603237
1738772343250148900,5.96914892578125,-0.0007272012298926711,0.00038209883496165276,0.00034208959550596774
1738772343260139800,5.979139892578125,-0.0008145528845489025,0.0006319032981991768,-0.00017349841073155403
1738772343270130700,5.989130615234375,0.0004366898210719228,0.0001604787539690733,-0.0010078982450067997
1738772343280123000,5.999122802734375,-0.0011100741103291512,0.0003732654731720686,-0.00016048045654315501
1738772343290113800,6.00911376953125,-0.0018181703053414822,0.0006407583132386208,-0.000025744695449247956
1738772343300104700,6.019104736328125,-0.00006101664621382952,0.00026791589334607124,0.0001329797087237239
1738772343310096000,6.029095947265625,0.00009606219828128815,-0.0004391849506646395,0.0002431316243018955
1738772343320086800,6.039086669921875,0.0008044630521908402,0.0005214172415435314,-0.0005172008532099426
1738772343330078700,6.04907861328125,-0.0014032579492777586,-0.0001736206468194723,0.0007524166139774024
1738772343340070000,6.05906982421875,0.00048492325004190207,0.0005542212165892124,-0.0013147289864718914
1738772343350060800,6.069060791015625,-0.0013058173935860395,-0.0010451455600559711,-0.0009122575866058469
1738772343360051700,6.0790517578125,0.001290232059545815,-0.0014558050315827131,0.0006206578109413385
1738772343370042600,6.089042724609375,0.001688290503807366,-0.0009144132491201162,0.0003767948073800653
1738772343380034600,6.09903466796875,0.0007441999623551965,-0.000325055792927742,-0.0013824894558638334
1738772343390025700,6.109025634765625,0.00006687396671622992,0.00043269083835184574,-0.0005438004736788571
1738772343400017000,6.119016845703125,0.0009017750853672624,0.0007842278573662043,-0.0004828140954487026
1738772343410007800,6.1290078125,-0.0015531962271779776,0.00022593908943235874,0.000026373221771791577
1738772343419998700,6.138998779296875,0.00007346249185502529,-0.0011407954152673483,-0.00041890732245519757
1738772343429989600,6.14898974609375,0.00017528259195387363,-0.00019828975200653076,-0.0004575226630549878
1738772343439981800,6.15898193359375,0.00184215500485152,-0.0006763271521776915,-0.0008338273037225008
1738772343449972700,6.16897265625,-0.0000992810819298029,0.00013271812349557877,-0.0013796205166727304
1738772343459963600,6.178963623046875,-0.0005517522222362459,-0.0019219104433432221,0.00032480256049893796
1738772343469954800,6.188954833984375,-0.0011774810263887048,0.00032767304219305515,-0.00021021754946559668
1738772343479945700,6.19894580078125,-0.001472292933613062,0.0003210150171071291,-0.0007298002601601183
1738772343489937700,6.208937744140625,0.0011239433661103249,-0.00018694368191063404,0.0001689391501713544
1738772343499928800,6.2189287109375,-0.0022236499935388565,0.0002836368512362242,-0.0004840679466724396
1738772343509919700,6.228919677734375,-0.0008042050758376718,-0.0006247020792216063,0.000627002096734941
1738772343519910700,6.23891064453125,-0.0001525295665487647,-0.0001115109771490097,-0.0006129656685516238
1738772343529901800,6.24890185546875,-0.00025203078985214233,-0.0006248122081160545,-0.00038068214780651033
1738772343539892700,6.258892822265625,-0.0015130374813452363,0.00009930133819580078,0.0009852531366050243
1738772343549884700,6.268884765625,0.0005243754712864757,-0.0009705021511763334,0.0002201382303610444
1738772343559875800,6.278875732421875,0.0007946862606331706,-0.0010631801560521126,0.0003370509948581457
1738772343569866800,6.28886669921875,0.00001215736847370863,0.0006897153798490763,-0.0005925540463067591
1738772343579857700,6.298857666015625,0.00009391643106937408,0.0002002262044698,0.000544349430128932
1738772343589848800,6.308848876953125,-0.0003424932947382331,0.0006362325511872768,-0.0004398010787554085
1738772343599840800,6.3188408203125,-0.0011526268208399415,-0.000704136211425066,0.00048138637794181705
1738772343609831700,6.328831787109375,-0.0005053108907304704,0.000546902185305953,-0.00042444237624295056
1738772343619822800,6.33882275390625,-0.0006935963756404817,0.000568473944440484,-0.0001493378367740661
1738772343629813800,6.348813720703125,-0.00035342888440936804,-0.0005739291664212942,-0.0017953852657228708
1738772343639804700,6.3588046875,-0.0010948529234156013,-0.0011257361620664597,-0.0022529163397848606
1738772343649796600,6.368796630859375,-0.00045034202048555017,0.001246667467057705,0.00012624598457477987
1738772343659787800,6.378787841796875,0.0010578061919659376,-0.0007528336718678474,-0.0008782984223216772
1738772343669778700,6.38877880859375,-0.0005025845603086054,-0.00032326579093933105,-0.00025029186508618295
1738772343679769900,6.398769775390625,-0.0005539835547097027,0.0002783422823995352,0.00012521384633146226
1738772343689760800,6.4087607421875,-0.001101609319448471,0.0004453761503100395,-0.00041054992470890284
1738772343699751700,6.418751708984375,-0.00043182430090382695,-0.0006158936303108931,-0.0013189541641622782
1738772343709743600,6.42874365234375,-0.0007757612620480359,-0.0010628853924572468,-0.0009705960983410478
1738772343719734800,6.43873486328125,0.0005374434404075146,-0.0005246605724096298,0.00017349791596643627
1738772343729725700,6.4487255859375,-0.0004184389254078269,0.000707204919308424,0.00019076539319939911
1738772343739716900,6.458716796875,0.000286499853245914,0.0015359804965555668,-0.00007528439164161682
1738772343749707800,6.468707763671875,-0.0006138350581750274,0.00018881005235016346,0.00044352893019095063
1738772343759699500,6.478699462890625,-0.0014314254513010383,-0.0005038783419877291,0.0009676390327513218
1738772343769691000,6.48869091796875,-0.0009371156920678914,0.000277932733297348,-0.00087250757496804
1738772343779681800,6.498681884765625,-0.0010510990396142006,-0.0006509777158498764,0.000016721925931051373
1738772343789672700,6.508672607421875,0.00010172254405915737,0.0003208499401807785,0.0015006212051957846
1738772343799663900,6.518663818359375,-0.003417112398892641,-0.0012940908782184124,0.0015429654158651829
1738772343809654800,6.52865478515625,-0.0005429529119282961,-0.000023700296878814697,0.000013937533367425203
1738772343819646700,6.538646728515625,-0.0019341881852596998,-0.002066078595817089,0.00034789793426170945
1738772343829638000,6.548637939453125,0.00045847578439861536,0.00012628431431949139,0.0008218667935580015
1738772343839628800,6.55862890625,-0.000051519484259188175,-0.00006759399548172951,0.0010775302071124315
1738772343849619700,6.56861962890625,0.001485996413975954,0.0008976375684142113,0.0005786989349871874
1738772343859610600,6.578610595703125,-0.0007345472695305943,-0.0010083867236971855,0.00023808065452612936
1738772343869602600,6.5886025390625,0.0006836258107796311,0.0003087280783802271,0.00008930152398534119
1738772343879593700,6.59859375,-0.00016166141722351313,-0.0011387001723051071,0.0007702718721702695
1738772343889585000,6.6085849609375,0.00021723227109760046,0.0005967139732092619,0.000020319916075095534
1738772343899575800,6.618575927734375,0.001310726278461516,0.0004885897506028414,0.0001638642861507833
1738772343909566700,6.628566650390625,-0.00011908449232578278,-0.0010306043550372124,-0.00048361808876506984
1738772343919558700,6.63855859375,-0.000005900044925510883,0.0005017784424126148,-0.0007925448007881641
1738772343929549600,6.648549560546875,0.00035938958171755075,0.00030071428045630455,0.0004791411629412323
1738772343939540700,6.658540771484375,-0.00020999426487833261,0.0004112357273697853,-0.00012539641465991735
1738772343949532000,6.668531982421875,0.00032982020638883114,0.00011790869757533073,0.0010846990626305342
1738772343959522800,6.678522705078125,-0.0011660773307085037,0.00146014173515141,-0.0002354298922000453
1738772343969513700,6.688513671875,0.001430462347343564,0.0005083570722490549,-0.0012611591955646873
1738772343979505700,6.698505615234375,-0.00025904690846800804,0.00027985800988972187,0.0000033096584957093
1738772343989496800,6.708496826171875,-0.0006831542705185711,-0.0002878936938941479,-0.00022180081577971578
1738772343999487700,6.71848779296875,0.0006324473069980741,-0.0004085348919034004,-0.00013817755097988993
1738772344009478700,6.728478759765625,-0.001684757648035884,0.0010068025439977646,-0.00006624902016483247
1738772344019469800,6.7384697265625,-0.0005534467636607587,-0.00003316206857562065,-0.0005538738332688808
1738772344029461500,6.74846142578125,-0.0009004626190289855,-0.00024485704489052296,-0.0008835495100356638
1738772344039452700,6.75845263671875,-0.000732150801923126,0.00009283190593123436,0.000035773671697825193
1738772344049443800,6.76844384765625,-0.00011181295849382877,0.00007242732681334019,0.0015132862608879805
1738772344059434800,6.778434814453125,-0.0006532336701638997,0.0003989310935139656,-0.0009171145502477884
1738772344069425700,6.78842578125,0.0010119888465851545,0.0011153020896017551,0.00043851108057424426
1738772344079416800,6.798416748046875,-0.0001579377567395568,-0.0005529022309929132,-0.0010070527205243707
1738772344089408500,6.808408447265625,0.0005458599189296365,-0.0003441025037318468,0.00003618447226472199
1738772344099399700,6.818399658203125,0.0005988568300381303,-0.00013957172632217407,0.0007959842914715409
1738772344109390800,6.828390869140625,-0.00003227707929909229,-0.00041554030030965805,-0.00019679643446579576
1738772344119381800,6.8383818359375,-0.000575828249566257,0.0005341428332030773,-0.00010278684203512967
1738772344129372700,6.84837255859375,-0.0012017693370580673,-0.001294802874326706,-0.0003801446291618049
1738772344139364600,6.858364501953125,0.00135459890589118,-0.0007864052895456553,0.000018264283426105976
1738772344149355800,6.868355712890625,0.0006421584403142333,-0.00005406094714999199,-0.0005385130061767995
1738772344159346700,6.8783466796875,0.0007803764892742038,0.00030413432978093624,-0.0014985825400799513
1738772344169337900,6.888337890625,-0.0005625092308036983,0.00009679864160716534,-0.001528309308923781
1738772344179328800,6.898328857421875,0.0007150090532377362,0.00008401530794799328,-0.0008508011233061552
1738772344189320400,6.908320556640625,0.0012374204816296697,0.0017082605045288801,-0.0010992567986249924
1738772344199311600,6.9183115234375,-0.0007082850788719952,-0.0010134901385754347,-0.0003258748329244554
1738772344209302000,6.928302001953125,-0.0007879856857471168,-0.0011150450445711613,-0.0006041204906068742
1738772344219293000,6.93829296875,-0.0011445829877629876,-0.000406377948820591,-0.0006174363079480827
1738772344229283800,6.948283935546875,0.000840603606775403,-0.00005413242615759373,-0.0005243187770247459
1738772344239275000,6.95827490234375,-0.0007679457194171846,0.00026438175700604916,-0.00029235740657895803
1738772344249267000,6.968266845703125,-0.00001958245411515236,-0.0009153175633400679,0.00026077398797497153
1738772344259258000,6.978258056640625,0.001585238380357623,0.0001645942684262991,-0.0013898531906306744
1738772344269249000,6.9882490234375,-0.00011523696593940258,0.00120926508679986,0.0003336192457936704
1738772344279240000,6.998239990234375,0.0014661481836810708,-0.001599304610863328,-0.00015080977755133063
1738772344289230800,7.00823095703125,0.00013365247286856174,0.00016195513308048248,-0.0000417371338699013
1738772344299223000,7.01822314453125,-0.0003574344445951283,0.0009308098815381527,0.00007011563866399229
1738772344309214000,7.0282138671875,-0.0005224370397627354,0.0017995252273976803,-0.0009424335439689457
1738772344319204900,7.038204833984375,0.0013569557340815663,0.00019230740144848824,-0.0001307020429521799
1738772344329196000,7.048196044921875,-0.0006184500525705516,-0.0009707354474812746,0.0011347717372700572
1738772344339187000,7.05818701171875,0.0004678532714024186,-0.0009720670059323311,0.0013137361966073513
1738772344349179100,7.06817919921875,-0.00046451541129499674,0.00019328505732119083,-0.000678536482155323
1738772344359170000,7.078170166015625,0.0002830339362844825,-0.0007963455282151699,-0.000030056718969717622
1738772344369161000,7.088160888671875,0.0008281433256343007,0.00033882632851600647,-0.0008248400408774614
1738772344379152000,7.09815185546875,-0.0008877314394339919,-0.0009304359555244446,-0.0006349566974677145
1738772344389143000,7.10814306640625,-0.00011033739428967237,0.0009156097657978535,0.0014706195797771215
1738772344399134000,7.118134033203125,0.00044386647641658783,-0.0007880146149545908,-0.00015603925567120314
1738772344409126100,7.128126220703125,-0.0010145638370886445,0.00004565413109958172,-0.0019294281955808401
1738772344419117000,7.138116943359375,0.00027813459746539593,0.00026030465960502625,-0.000022338470444083214
1738772344429108000,7.14810791015625,0.0026189174968749285,0.0006510445382446051,0.0007438707980327308
1738772344439099000,7.158098876953125,0.0004777362337335944,-0.0008371300064027309,0.00018487329361960292
1738772344449090000,7.168090087890625,0.00014641438610851765,0.0005394415929913521,-0.0010972900781780481
1738772344459082000,7.17808203125,-0.0008991426439024508,-0.000846200855448842,0.0004137875512242317
1738772344469073000,7.188072998046875,-0.00033377145882695913,-0.0005515699740499258,-0.00047602210543118417
1738772344479064000,7.19806396484375,0.000297131366096437,0.001199724618345499,-0.0003407335316296667
1738772344489055000,7.208054931640625,-0.0007182002882473171,0.0010384211782366037,-0.0013542075175791979
1738772344499046000,7.2180458984375,-0.0016827972140163183,0.0007494685705751181,-0.0007464741356670856
1738772344509038000,7.2280380859375,-0.0006487455102615058,-0.00041526462882757187,-0.0010901023633778095
1738772344519029000,7.238029052734375,0.0008599353022873402,0.00018021813593804836,-0.0009207253460772336
1738772344529020000,7.24802001953125,0.00001588661689311266,-0.0023157820105552673,-0.00010941355139948428
1738772344539011000,7.258010986328125,-0.0011958517134189606,-0.0011517144739627838,-0.0014258141163736582
1738772344549002000,7.268001953125,-0.00010136363562196493,-0.0011601513251662254,-0.0005046635633334517
1738772344558993000,7.277992919921875,0.00008266081567853689,-0.0007814499549567699,0.00045327545376494527
1738772344568985000,7.287985107421875,0.0009654102614149451,0.0007813035044819117,-0.0005957366665825248
1738772344578976000,7.29797607421875,0.0003030821681022644,0.00029261340387165546,-0.001152870012447238
1738772344588967000,7.307966796875,0.0015316735953092575,0.0014324076473712921,0.00035920593654736876
1738772344598958000,7.3179580078125,0.0011745437514036894,0.0002867155708372593,0.00017225201008841395
1738772344608949000,7.327948974609375,-0.0002840894740074873,0.00015158136375248432,0.00020939478417858481
1738772344618941000,7.33794091796875,-0.0003227053093723953,-0.00030355295166373253,-0.0011485510040074587
1738772344628932000,7.34793212890625,0.00007925811223685741,0.00006872136145830154,0.0010934616439044476
1738772344638923000,7.357923095703125,0.0010377297876402736,-0.0011707139201462269,0.0012655018363147974
1738772344648914000,7.367913818359375,-0.0011599550489336252,-0.00004324573092162609,0.00021002042922191322
1738772344658905000,7.377905029296875,-0.001852376968599856,-0.0011788175906985998,-0.00035084126284345984
1738772344668897000,7.38789697265625,-0.0012000114656984806,0.0005370038561522961,-0.0005563119775615633
1738772344678888000,7.397887939453125,0.0011925724102184176,0.00033540278673171997,0.001425346126779914
1738772344688879000,7.407879150390625,0.00091735296882689,-0.0002282918430864811,-0.0005441836547106504
1738772344698870000,7.4178701171875,0.0014047115109860897,-0.0005297616589814425,-0.0008408597786910832
1738772344708861000,7.42786083984375,0.000025783665478229523,-0.0010040139313787222,-0.00016541898366995156
1738772344718853000,7.43785302734375,-0.00031323678558692336,0.0002673792187124491,0.0008367285481654108
1738772344728844000,7.447843994140625,-0.00019288889598101377,0.000263535650447011,-0.00009040790610015392
1738772344738835000,7.4578349609375,0.00040232762694358826,-0.0010264997836202383,0.0007120025111362338
1738772344748826000,7.467826171875,0.00022147817071527243,-0.00006405939348042011,0.000013048294931650162
1738772344758817000,7.477817138671875,-0.0011346035171300173,-0.000750888604670763,-0.002159824827685952
1738772344768808000,7.487807861328125,-0.0005512373754754663,0.00037452438846230507,0.00033398281084373593
1738772344778800000,7.497800048828125,-0.0009347325540147722,-0.00025957426987588406,0.0006716716452501714
1738772344788791000,7.507791015625,0.00018967478536069393,-0.00040236557833850384,-0.00004437408642843366
1738772344798782000,7.517781982421875,0.0006679785437881947,-0.0006364574655890465,0.00010715977987274528
1738772344808773000,7.527773193359375,0.00044304702896624804,-0.00009102211333811283,0.00042489796760492027
1738772344818764000,7.537763916015625,0.0015945978229865432,-0.00019009155221283436,0.0005199727602303028
1738772344828756000,7.547755859375,0.0003925092751160264,0.0005060171242803335,0.0020137049723416567
1738772344838747100,7.5577470703125,0.0018449972849339247,0.000598162179812789,-0.000553316087462008
1738772344848738000,7.567738037109375,-0.0011176667176187038,0.0008222945034503937,0.00024908556952141225
1738772344858729000,7.57772900390625,-0.0000412169611081481,-0.00010421918705105782,-0.001889432780444622
1738772344868719900,7.587719970703125,0.0006530715618282557,0.001541069708764553,-0.00042110049980692565
1738772344878712000,7.597712158203125,-0.00020659680012613535,-0.0011098405811935663,0.00016985496040433645
1738772344888703000,7.607702880859375,0.000006472109816968441,-0.0004899085033684969,-0.0007570977322757244
1738772344898694100,7.617694091796875,-0.0002712956047616899,0.00038733682595193386,0.0008706263615749776
1738772344908685000,7.62768505859375,-0.0009000430582091212,-0.0012682236265391111,-0.0001354258565697819
1738772344918676000,7.637676025390625,-0.0006182806100696325,0.0006215556059032679,0.0011428914731368423
1738772344928667000,7.6476669921875,-0.001426332164555788,0.00009121792390942574,0.0001290200452785939
1738772344938659000,7.6576591796875,0.0005127154290676117,-0.0001508633140474558,0.0001929358986672014
1738772344948650000,7.66764990234375,0.000645937048830092,-0.0005313821602612734,-0.0009055809932760894
1738772344958641000,7.677640869140625,0.001098141772672534,-0.0011929112952202559,0.00041481427615508437
1738772344968632000,7.687632080078125,-0.0000047888606786727905,0.0008024426642805338,0.0004877801111433655
1738772344978623000,7.697623046875,0.0001693818485364318,0.00009057973511517048,0.0008451762842014432
1738772344988615000,7.707614990234375,-0.00043697957880795,-0.00008982163853943348,0.0010334618855267763
1738772344998606000,7.717606201171875,-0.00025029201060533524,0.00004972820170223713,0.0023280244786292315
1738772345008597000,7.727596923828125,-0.0006208805716596544,0.000504297437146306,-0.0016856042202562094
1738772345018588000,7.737587890625,-0.0004238066612742841,-0.000430472195148468,0.0003631655126810074
1738772345028579000,7.7475791015625,0.001121260691434145,0.0009881809819489717,-0.000471859413664788
1738772345038571000,7.757571044921875,-0.0007011404959484935,-0.00011117197573184967,-0.0005256552249193192
1738772345048562000,7.76756201171875,-0.00036301912041381,-0.0007155281491577625,0.00020238140132278204
1738772345058553000,7.777552978515625,0.000472947140224278,0.00016864133067429066,-0.0010833927663043141
1738772345068544000,7.7875439453125,0.000273300101980567,-0.00025430694222450256,-0.0009234565659426153
1738772345078535000,7.797534912109375,-0.00013922364450991154,-0.00027268286794424057,0.00009893099195323884
1738772345088526000,7.807526123046875,-0.0003389259800314903,-0.0004552288446575403,0.001067661913111806
1738772345098518000,7.81751806640625,-0.00034398603020235896,-0.001185467466711998,-0.0006527401274070144
1738772345108509000,7.827509033203125,-0.0010608503362163901,0.0002606506459414959,-0.0021455909591168165
1738772345118500000,7.8375,-0.0012573916465044022,-0.00010819709859788418,0.00023474256158806384
1738772345128491000,7.847490966796875,-0.0005105249001644552,0.0005192141979932785,0.0006539328023791313
1738772345138482000,7.85748193359375,0.0006455533439293504,0.0015069805085659027,-0.00019321872969157994
1738772345148473900,7.867473876953125,-0.0012812665663659573,0.0007744468748569489,-0.00017856541671790183
1738772345158465000,7.877465087890625,-0.0008120175334624946,-0.0008865669369697571,0.0009271790622733533
1738772345168456000,7.8874560546875,-0.000230422243475914,-0.0006968288216739893,-0.0002447687438689172
1738772345178447000,7.897447021484375,0.000026306486688554287,-0.0005586107727140188,0.001231687725521624
1738772345188438000,7.90743798828125,0.00010006572119891644,-0.0014690258540213108,-0.0009315399220213294
1738772345198429000,7.917428955078125,0.0026955825742334127,-0.0008074964862316847,-0.0009997168090194464
1738772345208420900,7.9274208984375,-0.00024742470122873783,-0.00040085590444505215,-0.00027177322772331536
1738772345218412000,7.937412109375,0.0004769550869241357,0.000549892894923687,-0.0005641883471980691
1738772345228403000,7.94740283203125,0.0011170976795256138,0.00003333110362291336,0.00015847057511564344
1738772345238394000,7.95739404296875,0.00024757557548582554,-0.001976290252059698,0.0005946963792666793
1738772345248385000,7.967385009765625,0.0009231218136847019,0.000610454473644495,-0.0015035879332572222
1738772345258377000,7.977376953125,0.0007622670382261276,-0.0008995579555630684,0.0004996418138034642
1738772345268368100,7.9873681640625,-0.00015000277198851109,-0.0005583127494901419,0.0003327429876662791
1738772345278359000,7.997359130859375,-0.0007244466105476022,0.0007080202922224998,0.0015756402863189578
1738772345288350000,8.007349853515626,0.0006766199367120862,-0.0014045657590031624,-0.0006702319369651377
1738772345298341000,8.017341064453126,-0.00100809580180794,-0.000010134652256965637,-0.001390883349813521
1738772345308332800,8.027332763671875,0.00043776025995612144,-0.0006040777079761028,0.0008424382540397346
1738772345318324000,8.037323974609375,-0.0006000736029818654,-0.0008839759975671768,0.00003922886389773339
1738772345328315100,8.047315185546875,0.001053649466484785,0.00019649136811494827,-0.00019199654343537986
1738772345338306000,8.05730615234375,0.00021794962231069803,0.0004188651219010353,0.0004658042162191123
1738772345348297000,8.067296875,-0.0006661321967840195,0.0013599535450339317,-0.0004634320212062448
1738772345358288000,8.077287841796876,-0.00013296736869961023,0.00001745438203215599,-0.00033852976048365235
1738772345368279800,8.08727978515625,-0.00024102104362100363,-0.00041373446583747864,-0.0006544521311298013
1738772345378271000,8.09727099609375,0.0007587295258417726,0.00020438525825738907,-0.002261137356981635
1738772345388262100,8.10726220703125,0.0013536106562241912,-0.001431950367987156,-0.0009415863896720111
1738772345398253000,8.117253173828125,0.0009709143778309226,-0.00020290142856538296,0.00013273279182612896
1738772345408244000,8.127243896484375,0.0004640695406123996,0.0001741461455821991,0.0023404289968311787
1738772345418236000,8.13723583984375,0.0009458353742957115,0.000998394563794136,0.0001787412038538605
1738772345428227000,8.14722705078125,-0.0002230543177574873,-0.0005372553132474422,0.000827048032078892
1738772345438218000,8.157218017578124,0.00007255654782056808,-0.0003918467555195093,0.0003974801511503756
1738772345448209000,8.167208984375,0.00022389029618352652,-0.000592266907915473,-0.00027254404267296195
1738772345458200000,8.177199951171875,-0.001304231584072113,0.000055680051445961,0.001405247370712459
1738772345468191700,8.187191650390625,-0.0006298071821220219,-0.0003293540794402361,-0.0015530722448602319
1738772345478183000,8.197182861328125,0.0004716762341558933,0.0010480326600372791,0.0008413759060204029
1738772345488174000,8.207174072265625,-0.00004640454426407814,-0.001604148419573903,0.0014806578401476145
1738772345498165000,8.2171650390625,-0.0005404209368862212,-0.00035033212043344975,0.0015728033613413572
1738772345508156000,8.227156005859374,0.0006464831531047821,-0.00025153160095214844,0.0007376041612587869
1738772345518147000,8.23714697265625,-0.0012475569965317845,-0.0019029579125344753,0.0005916628870181739
1738772345528138800,8.247138671875,-0.0007316666888073087,-0.00036588823422789574,0.001850818400271237
1738772345538130000,8.2571298828125,-0.0014366054674610496,0.0004977746866643429,0.00011630159860942513
1738772345548121000,8.26712109375,-0.000050338683649897575,0.00010011065751314163,0.00006330895848805085
1738772345558112000,8.277112060546875,0.0007075968896970153,0.0005224877968430519,0.0008630562224425375
1738772345568103000,8.28710302734375,0.0009557475568726659,0.00017209071666002274,0.0008980067213997245
1738772345578094000,8.297093994140624,-0.0001726337941363454,0.0007281587459146976,-0.0002431577886454761
1738772345588085000,8.3070849609375,-0.000047896173782646656,-0.0006944520864635706,-0.0013312961673364043
1738772345598077000,8.317076904296876,0.00023280095774680376,0.00021288683637976646,0.0005590156652033329
1738772345608068000,8.327068115234376,-0.0007877593161538243,-0.0001880936324596405,-0.000344609550666064
1738772345618059000,8.33705908203125,-0.0008647246286273003,-0.00041020126082003117,-0.0003422127047087997
1738772345628050000,8.3470498046875,0.0009286734275519848,-0.0008487028535455465,0.00019052167772315443
1738772345638041000,8.357041015625,-0.0017651141388341784,0.002095954492688179,0.00006721731915604323
1738772345648033000,8.367032958984375,0.0013643063139170408,-0.0007937403861433268,0.0010867086239159107
1738772345658024000,8.37702392578125,0.0014058516826480627,0.0008164066821336746,0.0015905785840004683
1738772345668015000,8.38701513671875,0.0007839931640774012,0.00009430665522813797,-0.00020503753330558538
1738772345678006000,8.397006103515626,0.0009568321984261274,0.000043173786252737045,0.0001065523101715371
1738772345687997000,8.406996826171875,0.00003087276127189398,-0.0006316781509667635,0.0003943621995858848
1738772345697988900,8.41698876953125,0.000983219244517386,0.00004849303513765335,0.0001248503103852272
1738772345707980000,8.42697998046875,0.00027983111795037985,-0.0009509355295449495,0.0008380363578908145
1738772345717971000,8.436970947265625,0.0007642601849511266,-0.0014473486226052046,0.0007195256766863167
1738772345727962000,8.446962158203124,-0.00039503624429926276,-0.00002329191192984581,0.000285765971057117
1738772345737953000,8.456953125,-0.0010826644720509648,0.0006427648477256298,0.0003731176839210093
1738772345747944000,8.46694384765625,0.00019722897559404373,-0.0002958611585199833,0.00013125521945767105
1738772345757936000,8.47693603515625,0.0014276093570515513,-0.00009665661491453648,0.0005293977446854115
1738772345767927000,8.486927001953125,-0.0005859676748514175,0.0010524238459765911,0.0007557988865301013
1738772345777918000,8.49691796875,0.0009104624623432755,0.0013126148842275143,-0.00014088748139329255
1738772345787909000,8.5069091796875,-0.0007025068625807762,0.00008068932220339775,-0.0005941784474998713
1738772345797900000,8.516900146484375,-0.000957637676037848,-0.0001355595886707306,0.00007214444485725835
1738772345807892000,8.52689208984375,-0.00012889434583485126,-0.00019996031187474728,0.00006707626016577706
1738772345817883100,8.536883056640624,0.0024636927992105484,0.001154256984591484,-0.0006767446175217628
1738772345827874000,8.5468740234375,0.001470726216211915,-0.0015486327465623617,0.0004879079351667315
1738772345837865000,8.556864990234375,-0.0012331812176853418,0.000512121245265007,-0.00022129184799268842
1738772345847856000,8.566856201171875,0.00039420975372195244,-0.000275568338111043,-0.0001958876964636147
1738772345857847800,8.576847900390625,0.0004839582834392786,-0.0005171170923858881,0.0010968107962980866
1738772345867839000,8.5868388671875,-0.00023432041052728891,-0.0014452303294092417,-0.001573112909682095
1738772345877830100,8.596830078125,-0.00015096343122422695,-0.00010885600931942463,0.0006836499087512493
1738772345887821000,8.606821044921874,-0.001505556283518672,-0.00025830953381955624,-0.00008245681237895042
1738772345897812000,8.61681201171875,-0.0006797100650146604,-0.000326220178976655,0.0004464469675440341
1738772345907804000,8.626803955078126,-0.0005771644646301866,-0.0006599575281143188,0.000511625490617007
1738772345917794800,8.636794921875,0.0008657362777739763,0.0009499234147369862,0.0005616929265670478
1738772345927786000,8.646785888671875,0.0010432942071929574,-0.00029204320162534714,-0.00008280128531623632
1738772345937777200,8.656777099609375,0.00073569908272475,-0.0015732899773865938,0.0018296146299690008
1738772345947768000,8.66676806640625,0.0006995948497205973,0.0012180251069366932,-0.00006420454883482307
1738772345957759000,8.676759033203124,-0.001812831382267177,0.0003351871855556965,0.0010087830014526844
1738772345967751000,8.6867509765625,-0.0002640539314597845,-0.001618565060198307,0.0005045047728344798
1738772345977742000,8.6967421875,-0.0011295812437310815,-0.0013216226361691952,0.00001794527270249091
1738772345987733000,8.70673291015625,0.0007861482445150614,-0.000988459913060069,-0.0004760015872307122
1738772345997724000,8.716723876953125,-0.002767307450994849,-0.0002893800847232342,-0.00023791496641933918
1738772346007715000,8.726715087890625,-0.00016322929877787828,-0.00003070523962378502,0.0007083169766701758
1738772346017706800,8.736706787109375,-0.0006580446497537196,-0.0002506822347640991,-0.00007518500206060708
1738772346027698000,8.746697998046875,0.0005647391080856323,-0.00025341729633510113,0.0012016569962725043
1738772346037689000,8.756689208984374,0.000054211122915148735,-0.0006235968321561813,-0.0007022368372417986
1738772346047680000,8.766679931640626,0.0009847002802416682,0.0010063014924526215,0.0013016751036047935
1738772346057671000,8.7766708984375,-0.000146344187669456,-0.00019345246255397797,-0.0006877062260173261
1738772346067662800,8.786662841796876,-0.0006315361242741346,0.0010193977504968643,-0.0005298078758642077
1738772346077653800,8.79665380859375,-0.0004160864045843482,-0.0000341485720127821,-0.00047521304804831743
1738772346087645000,8.80664501953125,-0.002026333473622799,-0.00006564450450241566,0.0010518627241253853
1738772346097636000,8.816635986328125,-0.000626043532975018,-0.0002326248213648796,0.000744533899705857
1738772346107627000,8.826626953125,0.00015839666593819857,-0.0007454566657543182,0.00010407566151116043
1738772346117619000,8.836618896484374,0.0010537514463067055,0.0004929131828248501,0.0005999562563374639
1738772346127609900,8.84660986328125,-0.000022485852241516113,-0.00024531292729079723,0.0007209745235741138
1738772346137601000,8.85660107421875,-0.00018147658556699753,-0.0005334671586751938,0.0004115152114536613
1738772346147592000,8.866592041015625,-0.001027951599098742,-0.0001581530086696148,0.0005531900096684694
1738772346157583000,8.8765830078125,-0.00004311464726924896,0.00016914959996938705,0.001066381111741066
1738772346167574800,8.88657470703125,-0.0002848029835149646,-0.000051089562475681305,-0.0013953445013612509
1738772346177565700,8.896565673828125,0.00007339217700064182,0.0005358709022402763,0.0012313311453908682
1738772346187556900,8.906556884765624,0.0002326627727597952,-0.0006902357563376427,-0.00008999244164442644
1738772346197548000,8.916548095703124,0.0007514464668929577,-0.0007488254923373461,-0.00003726185605046339
1738772346207539500,8.92653955078125,-0.001287064515054226,-0.0007919087074697018,0.0008581628208048642
1738772346217530400,8.9365302734375,0.0004154943162575364,-0.0005666052456945181,0.000854700687341392
1738772346227522600,8.9465224609375,0.0006830364000052214,0.0007403148338198662,0.0004009819240309298
1738772346237513500,8.956513427734375,0.0003064654301851988,0.000729129184037447,-0.00033964315662160516
1738772346247504400,8.96650439453125,0.0009776822989806533,-0.00014014565385878086,-0.00028645413112826645
1738772346257495600,8.97649560546875,0.00032467511482536793,-0.0009896941483020782,0.0013548519928008318
1738772346267486500,8.986486572265624,-0.0006231908337213099,0.0010494082234799862,0.0006813722429797053
1738772346277478400,8.996478515625,0.0006447400664910674,0.000557788647711277,0.000032892516173888
1738772346287469600,9.006469482421876,0.0000166427344083786,-0.0009871209040284157,0.0017412678571417928
1738772346297460500,9.01646044921875,0.0004922832595184445,-0.0003895075060427189,0.0002280596672790125
1738772346307451400,9.026451416015625,0.00003229000139981508,-0.0011643979232758284,0.0014739189064130187
1738772346317442600,9.036442626953125,-0.0007650604238733649,0.000579972518607974,0.0009290360612794757
1738772346327434500,9.0464345703125,0.000983988051302731,0.0001315642148256302,0.0013647006126120687
1738772346337425400,9.05642529296875,-0.0003153681755065918,0.000132629182189703,0.0010523117380216718
1738772346347416600,9.06641650390625,-0.000586574082262814,0.00017229467630386353,-0.0006948095397092402
1738772346357407500,9.076407470703124,-0.00029842008370906115,-0.0011544923763722181,0.0013446392258629203
1738772346367398400,9.0863984375,0.00014552543871104717,-0.0007910577114671469,-0.0008147564949467778
1738772346377390600,9.096390625,0.0005870774621143937,-0.0002123527228832245,-0.0006736089708283544
1738772346387381500,9.106381591796875,0.0006430268986150622,-0.0002576378174126148,0.0009582242928445339
1738772346397372400,9.116372314453125,0.0007535478798672557,-0.0016022678464651108,-0.0003339414543006569
1738772346407363600,9.126363525390625,-0.0011057424126192927,0.0005151911173015833,0.00031902798218652606
1738772346417354500,9.1363544921875,-0.0004498058697208762,-0.0019466349622234702,0.0006026547052897513
1738772346427346400,9.146346435546874,0.0008383241947740316,-0.0009990110993385315,0.00039030975312925875
1738772346437337600,9.156337646484374,-0.000508169992826879,0.0005504160653799772,0.0007572933100163937
1738772346447328500,9.16632861328125,-0.00008945271838456392,-0.0015035485848784447,-0.0006826149765402079
1738772346457319400,9.1763193359375,-0.0001387211959809065,0.0009529509115964174,0.0007989015430212021
1738772346467310600,9.186310546875,0.0019119931384921074,0.00042238878086209297,0.0009104978526011109
1738772346477301500,9.196301513671875,-0.0009000385762192309,0.00073610944673419,-0.00010043807560577989
1738772346487293400,9.20629345703125,-0.0008833484025672078,0.0010530664585530758,-0.0008713476127013564
1738772346497284600,9.21628466796875,0.00007938430644571781,-0.0007972978055477142,0.00014091994671616703
1738772346507275500,9.226275634765624,0.0007959181675687432,0.0005027663428336382,0.0008279974572360516
1738772346517266400,9.236266357421876,0.0005557010881602764,0.0008031709585338831,0.00013770608347840607
1738772346527257300,9.24625732421875,0.00022540101781487465,-0.00022557564079761505,0.0019035219447687268
1738772346537249500,9.25624951171875,-0.0011993901571258903,-0.0003848327323794365,0.0009365282021462917
1738772346547240400,9.266240478515625,-0.00031739985570311546,0.0004046077374368906,-0.00033877661917358637
1738772346557231600,9.276231689453125,-0.00018370919860899448,0.00013749278150498867,-0.0007670128834433854
1738772346567222500,9.286222412109375,-0.0011686093639582396,0.00018679839558899403,-0.000658233358990401
1738772346577213400,9.29621337890625,0.0006404760060831904,-0.000571403419598937,-0.00044198468094691634
1738772346587205600,9.30620556640625,-0.0006294779013842344,-0.0003292961046099663,-0.0006518794689327478
1738772346597196500,9.316196533203126,-0.0018097908468917012,-0.0011146622709929943,-0.0006484173354692757
1738772346607187500,9.3261875,-0.0013470511185005307,-0.0008212549146264791,-0.000737215275876224
1738772346617178400,9.336178466796875,0.0032967026345431805,0.0016195322386920452,-0.0005276245065033436
1738772346627169500,9.34616943359375,0.0004931081784889102,-0.0006510070525109768,-0.0005186765338294208
1738772346637161500,9.356161376953125,0.0006433104863390326,-0.000184154836460948,-0.00022173405159264803
1738772346647152600,9.366152587890625,0.0006394787924364209,-0.00011650403030216694,0.0004828677629120648
1738772346657143600,9.3761435546875,0.0008919466054067016,-0.00031730649061501026,-0.0006284693954512477
1738772346667134500,9.386134521484376,0.0009175384184345603,0.0012587036471813917,-0.00043758214451372623
1738772346677125400,9.39612548828125,-0.001388492644764483,-0.000278472900390625,0.0007099739741533995
1738772346687116500,9.406116455078125,-0.0004286204348318279,0.0004684026353061199,0.00030594607233069837
1738772346697108500,9.4161083984375,-0.0019351707305759192,-0.0013513353187590837,0.0002859723463188857
1738772346707099400,9.426099365234375,0.0010321373119950294,0.00029430282302200794,-0.000022329790226649493
1738772346717090600,9.436090576171875,-0.0005013108602724969,-0.0005163631867617369,0.0016804954502731562
1738772346727081500,9.44608154296875,0.0004268338670954108,0.0012838414404541254,-0.0012661379296332598
1738772346737072400,9.456072265625,-0.0003337649395689368,-0.000029895920306444168,0.0015248549170792103
1738772346747064600,9.466064697265624,0.0017910809256136417,0.0012853029184043407,-0.00149513129144907
1738772346757055500,9.476055419921876,-0.0014728893293067813,0.0003998018801212311,0.0003594940062612295
1738772346767046400,9.48604638671875,-0.0002350732684135437,0.000986083410680294,0.000694402726367116
1738772346777037600,9.49603759765625,0.00024030101485550404,0.00034053344279527664,0.00018520635785534978
1738772346787028500,9.506028564453125,-0.000012057600542902946,-0.000527356518432498,0.0003994461731053889
1738772346797020400,9.5160205078125,-0.00002777017652988434,-0.000667172484099865,-0.0011736830929294229
1738772346807011600,9.526011474609374,-0.00014492287300527096,-0.00023273425176739693,-0.0005228917580097914
1738772346817002500,9.53600244140625,0.00015255215112119913,0.0004831235855817795,0.0008454403141513467
1738772346826993400,9.545993408203126,0.0004590093158185482,-0.0008013732731342316,0.00002446514554321766
1738772346836984600,9.555984619140625,0.0005799168720841408,0.0007642991840839386,-0.000003764354914892465
1738772346846975500,9.5659755859375,-0.0015043736202642322,0.0008856914937496185,-0.0006579402252100408
1738772346856967400,9.575967529296875,-0.0006513631087727845,-0.0006155325099825859,0.0013122663367539644
1738772346866958600,9.58595849609375,-0.001126255257986486,-0.00005018245428800583,0.0007201271364465356
1738772346876949500,9.595949462890625,0.0022759330458939075,0.00002332078292965889,0.0006218565395101905
1738772346886940400,9.6059404296875,-0.0001909241545945406,-0.0012977349106222391,0.001285536796785891
1738772346896931600,9.615931640625,-0.0002377957571297884,0.0008884542621672153,0.00040855794213712215
1738772346906923500,9.625923583984376,-0.001360629452392459,-0.00009201257489621639,0.000559429987333715
1738772346916914400,9.63591455078125,-0.0012754083145409822,-0.0005237108562141657,0.0014891395112499595
1738772346926905600,9.645905517578125,-0.00020613335072994232,0.00010633515194058418,-0.0007251190254464746
1738772346936896500,9.655896484375,-0.0006945570930838585,-0.0008726427331566811,-0.0017059613019227982
1738772346946887400,9.665887451171875,0.0010297790868207812,-0.00014709355309605598,0.00031609158031642437
1738772346956879600,9.675879638671875,-0.00008155789691954851,-0.0009694776963442564,-0.0007521023508161306
1738772346966870500,9.68587060546875,0.0003656784538179636,0.0005234633572399616,0.0003423882008064538
1738772346976861400,9.695861328125,-0.0011627096682786942,-0.0004203610587865114,-0.0008938511600717902
1738772346986852600,9.7058525390625,0.0008906922303140163,-0.00012249196879565716,-0.00113308010622859
1738772346996843500,9.715843505859375,-0.0007687234319746494,-0.0005419398657977581,0.0007851948030292988
1738772347006835500,9.72583544921875,-0.0003651891020126641,-0.0003186836838722229,0.0010039403568953276
1738772347016826600,9.73582666015625,0.000795416533946991,-0.0003807353787124157,0.0014763851650059223
1738772347026817500,9.745817626953125,0.00022679229732602835,-0.0012699789367616177,0.0014506765874102712
1738772347036808400,9.755808349609374,0.0006315927021205425,-0.00032349140383303165,0.0002597109123598784
1738772347046799600,9.765799560546874,0.0005064272554591298,0.0013820952735841274,-0.00003503085463307798
1738772347056790500,9.77579052734375,-0.000424347585067153,0.0004904689267277718,-0.00016792258247733116
1738772347066782500,9.785782470703126,-0.0007911871653050184,0.0004261569119989872,-0.00016184155538212508
1738772347076773600,9.795773681640625,0.0018285644473508,-0.00019648997113108635,-0.0005943389260210097
1738772347086764500,9.8057646484375,-0.0011243163608014584,-0.000007577240467071533,0.0009908359497785568
1738772347096755500,9.81575537109375,-0.001251082867383957,0.000916273333132267,0.0006542124319821596
1738772347106746400,9.825746337890624,0.0014323217328637838,-0.0007967478595674038,0.0005954509833827615
1738772347116738600,9.835738525390624,-0.00009366951417177916,0.00008156243711709976,0.0012412675423547626
1738772347126729500,9.8457294921875,-0.0010851264232769608,-0.0015687309205532074,0.0013081091456115246
1738772347136720600,9.855720703125,0.0009074507979676127,-0.0007788373623043299,0.0011198236607015133
1738772347146711600,9.865711669921875,-0.00011173507664352655,0.00016165850684046745,0.0007740340661257505
1738772347156702500,9.875702392578125,-0.00019402673933655024,-0.00036245142109692097,-0.0006840467103756964
1738772347166693400,9.885693359375,-0.002528265817090869,-0.0017084842547774315,0.0011236006394028664
1738772347176685600,9.895685546875,0.0006302430992946029,-0.0003508047666400671,0.0006804506410844624
1738772347186676500,9.905676513671875,-0.0003885377664119005,-0.00031293556094169617,-0.0019421989563852549
1738772347196667400,9.91566748046875,0.0009449070785194635,-0.0007928370032459497,0.0015148504171520472
1738772347206658300,9.925658203125,-0.0009272946044802666,-0.0000988207757472992,0.00047091537271626294
1738772347216649500,9.9356494140625,0.001377138658426702,-0.0003635389730334282,0.0007066051475703716
1738772347226641400,9.945641357421875,0.0007151276804506779,-0.0012923625763505697,0.00015281251398846507
1738772347236632600,9.955632568359375,0.0009987542871385813,0.0010466920211911201,0.00010221244883723557
1738772347246623500,9.96562353515625,-0.0005473803030326962,-0.0006105904467403889,-0.0005786326946690679
1738772347256614400,9.975614501953125,-0.002305333036929369,0.0011385735124349594,-0.0006079274462535977
1738772347266605300,9.985605224609374,-0.0003872219822369516,0.00016263825818896294,0.0005592567613348365
1738772347276597500,9.995597412109374,-0.0006439507124014199,-0.00023869983851909637,-0.0007291805231943727
1738772347286588400,10.00558837890625,-0.0001593870110809803,0.0005503850989043713,-0.0009096547146327794
1738772347296579300,10.015579345703125,0.0020619556307792664,-0.0016642995178699493,-0.0005000605597160757
1738772347306570500,10.025570556640625,-0.000015458092093467712,-0.0011749821715056896,-0.0007175175123848021
1738772347316561400,10.0355615234375,0.002203754149377346,-0.00047563621774315834,0.0005581366131082177
1738772347326553600,10.0455537109375,0.00008301169145852327,0.00024085957556962967,-0.00026655709370970726
1738772347336544500,10.05554443359375,-0.00001206318847835064,-0.0008451775647699833,-0.00025137708871625364
1738772347346535400,10.065535400390624,-0.0005877637304365635,-0.002424646634608507,-0.00012777166557498276
1738772347356526300,10.0755263671875,0.00008574966341257095,-0.0010949301067739725,0.0002722351055126637
1738772347366517500,10.085517578125,0.0003807561006397009,-0.0016184647101908922,-0.0006027850904501975
1738772347376508400,10.09550830078125,0.0008486734004691243,-0.00009620189666748047,0.00022892007837072015
1738772347386500400,10.105500244140625,0.0005714013241231441,-0.0006143026985228062,-0.00009758511441759765
1738772347396491500,10.115491455078125,-0.0013849568786099553,-0.0009711664170026779,-0.0014006698038429022
1738772347406482400,10.125482421875,-0.00022994482424110174,0.0008618244901299477,-0.00017788166587706655
1738772347416473300,10.135473388671874,-0.0005689652170985937,-0.0007701604627072811,-0.00012275423796381801
1738772347426464500,10.145464599609374,0.0006767581216990948,-0.0017266583163291216,0.0003778840764425695
1738772347436456400,10.15545654296875,0.0007441362831741571,-0.0021423776634037495,0.00018720177467912436
1738772347446447400,10.165447265625,-0.0015059229917824268,0.00014159129932522774,-0.0004270239151082933
1738772347456438500,10.1754384765625,0.0004552288446575403,-0.000181450042873621,0.00022811372764408588
1738772347466429400,10.185429443359375,0.0007728710770606995,-0.001259413082152605,0.000176901463419199
1738772347476420400,10.19542041015625,0.00015075667761266232,0.0004162476398050785,-0.0001461399660911411
1738772347486412500,10.20541259765625,-0.0006277034990489483,0.00031185103580355644,-0.00021146703511476517
1738772347496403500,10.215403564453124,0.00011265533976256847,0.0007355599664151669,-0.0006879065185785294
1738772347506394400,10.225394287109374,-0.00039180618477985263,-0.0005723228678107262,0.0004852580022998154
1738772347516385500,10.235385498046876,0.0007890394190326333,0.00022742431610822678,-0.0006875981343910098
1738772347526376400,10.24537646484375,0.0007821560138836503,0.00020603276789188385,0.0006894425605423748
1738772347536367400,10.255367431640625,-0.0006596792954951525,-0.00047547020949423313,0.0006369782495312393
1738772347546359600,10.265359619140625,-0.002154693938791752,-0.0007634027861058712,-0.0006886564660817385
1738772347556350500,10.2753505859375,0.0004301700973883271,-0.0010909715201705694,-0.001600256422534585
1738772347566341400,10.28534130859375,-0.0012036038096994162,0.0002616187557578087,-0.000130414409795776
1738772347576332500,10.29533251953125,-0.0011383563978597522,-0.0000076266005635261536,0.0014451117021963
1738772347586323500,10.305323486328126,-0.00029905373230576515,-0.0004051669966429472,-0.0017554585356265306
1738772347596315400,10.3153154296875,0.0007526286644861102,0.00033758883364498615,-0.0002459788811393082
1738772347606306600,10.325306640625,0.001660438603721559,-0.000027740374207496643,-0.0002236060390714556
1738772347616297500,10.33529736328125,0.00048651720862835646,0.0004513622261583805,-0.0012036493280902505
1738772347626288400,10.345288330078125,-0.0005807272391393781,-0.000024185283109545708,-0.00006388674955815077
1738772347636279600,10.355279541015625,-0.0008025685674510896,-0.00044576358050107956,-0.0007451233686879277
1738772347646271500,10.365271484375,0.0007572753820568323,0.0006453013047575951,-0.00015694330795668066
1738772347656262400,10.375262451171874,0.000979649368673563,-0.00014885328710079193,0.000335741468006745
1738772347666253600,10.385253662109376,0.001681697554886341,-0.0005692427512258291,-0.0010264669544994831
1738772347676244500,10.395244384765626,-0.0009862573351711035,-0.0008763051591813564,-0.0008632151875644922
1738772347686235400,10.4052353515625,0.0003583350917324424,-0.00041891681030392647,0.0014275454450398684
1738772347696226300,10.415226318359375,-0.0011226488277316093,-0.0005243781488388777,0.0006805288139730692
1738772347706218500,10.425218505859375,-0.0001582788536325097,-0.000252298079431057,-0.0008876118808984756
1738772347716209400,10.43520947265625,-0.0010112894233316183,0.0006947219371795654,0.0007899132324382663
1738772347726200600,10.44520068359375,-0.00022886972874403,-0.0011065395083278418,0.00041640043491497636
1738772347736191500,10.45519140625,0.0014792818110436201,-0.0005864240229129791,0.0006883091409690678
1738772347746182400,10.465182373046876,0.0007097275229170918,-0.0006941789761185646,0.0007298533455468714
1738772347756174600,10.475174560546876,0.0008468801388517022,-0.0004172101616859436,-0.0010552634485065937
1738772347766165500,10.48516552734375,0.0002102582948282361,-0.0012019495479762554,0.0005578382988460362
1738772347776156400,10.495156494140625,0.000046207569539546967,-0.0012698601931333542,0.000025472400011494756
1738772347786147300,10.505147216796875,0.0003542983904480934,-0.00026871287263929844,0.0006422566366381943
1738772347796138500,10.515138427734374,0.00017054029740393162,-0.001070324331521988,-0.00015695801994297653
1738772347806130400,10.52513037109375,-0.0011198323918506503,-0.00044129672460258007,-0.0019769668579101562
1738772347816121600,10.53512158203125,0.00010868383105844259,-0.00019309017807245255,0.0002912475320044905
1738772347826112500,10.545112548828126,0.0002756476169452071,0.0010905694216489792,-0.0007363497861661017
1738772347836103400,10.555103515625,0.0001355652930215001,0.00006711669266223907,-0.0009688437567092478
1738772347846094300,10.56509423828125,0.0013149080332368612,-0.00040068873204290867,0.00007259999983943999
1738772347856085500,10.57508544921875,0.0003692195750772953,0.0005844144616276026,-0.00041103005059994757
1738772347866077400,10.585077392578125,0.0007198216626420617,0.00014527724124491215,-0.0014020842500030994
1738772347876068400,10.595068359375,0.000428738072514534,0.0004930861759930849,0.0003673199098557234
1738772347886059500,10.6050595703125,-0.0004057335900142789,-0.000003262888640165329,-0.0019232342019677162
1738772347896050400,10.615050537109376,-0.0011665986385196447,0.000696083065122366,-0.0007029737462289631
1738772347906041300,10.625041259765625,-0.0009065178455784917,-0.0006709543522447348,-0.00043261388782411814
1738772347916033500,10.635033447265625,-0.001781898899935186,0.0012553101405501366,0.0012971091782674193
1738772347926024400,10.6450244140625,-0.0005104892188683152,0.00003876909613609314,0.00005895039066672325
1738772347936015400,10.655015380859375,0.00009085249621421099,0.0012060326989740133,0.0013215551152825356
1738772347946006500,10.665006591796875,-0.000007810769602656364,0.00018022116273641586,0.0006996993906795979
1738772347955997400,10.67499755859375,-0.00006213935557752848,-0.0004623995628207922,0.0013601633254438639
1738772347965989400,10.6849892578125,0.0007449617842212319,-0.0009970634710043669,-0.0034226123243570328
1738772347975980500,10.69498046875,0.0003502813633531332,0.0007092237938195467,-0.0002758213086053729
1738772347985971500,10.704971435546875,-0.0006840408314019442,-0.0012477620039135218,-0.00007478951010853052
1738772347995962400,10.71496240234375,0.00003421376459300518,-0.0002988777123391628,-0.0008191430242732167
1738772348005953500,10.72495361328125,-0.001271821791306138,0.0006681038066744804,-0.0013109624851495028
1738772348015944400,10.7349443359375,0.0009753535268828273,-0.0007196692749857903,0.00145819247700274
1738772348025936400,10.744936279296875,-0.0005016092327423394,0.0017224035691469908,-0.00003502120671328157
1738772348035927600,10.754927490234374,-0.0008901644614525139,-0.0005665833596140146,-0.0003687152930069715
1738772348045918500,10.76491845703125,0.0011838406790047884,0.00005769473500549793,-0.001807575230486691
1738772348055909400,10.774909423828126,-0.00015279988292604685,-0.0011638971045613289,0.00006995326839387417
1738772348065900500,10.784900634765625,0.0006336172809824347,-0.000411744462326169,0.0014190621441230178
1738772348075892500,10.794892578125,-0.00023830169811844826,-0.0019851401448249817,0.000960998353548348
1738772348085883400,10.80488330078125,0.0014889788581058383,0.0014194392133504152,-0.0004945350810885429
1738772348095874600,10.81487451171875,-0.0007374237175099552,-0.0008903206326067448,0.00047272504889406264
1738772348105865500,10.824865478515624,0.0005534625379368663,0.00037784059531986713,-0.0014317912282422185
1738772348115856400,10.8348564453125,0.0006309605669230223,0.00021219183690845966,-0.0009018221753649414
1738772348125848600,10.8448486328125,0.0006458963034674525,-0.00048246001824736595,0.00048534522647969425
1738772348135839500,10.854839599609376,0.0005750560667365789,0.0007782801985740662,0.0009553931886330247
1738772348145830400,10.864830322265625,0.0013919605407863855,0.0003525803331285715,0.0005743250367231667
1738772348155821600,10.874821533203125,0.00126732443459332,-0.0015710210427641869,0.000040094906580634415
1738772348165812500,10.8848125,0.00035445718094706535,-0.0008349549025297165,-0.0006099424790591002
1738772348175803400,10.894803466796875,0.0003858825657516718,0.00046493392437696457,-0.00027491681976243854
1738772348185795600,10.904795654296874,0.0009399299742653966,0.000792626990005374,-0.0017651476664468646
1738772348195786500,10.914786376953124,0.0006959844613447785,0.0004786404315382242,-0.0004617966478690505
1738772348205777200,10.924777099609376,0.00022586225531995296,-0.0003508436493575573,-0.000026294001145288348
1738772348215768000,10.93476806640625,-0.00036456051748245955,-0.0011905382853001356,0.0015582868363708258
1738772348225759000,10.944759033203125,0.0008489912142977118,0.00047020777128636837,0.0009825053857639432
1738772348235751200,10.954751220703125,-0.0000266561983153224,-0.0005066399462521076,-0.000916328455787152
1738772348245742000,10.9647421875,-0.00017958646640181541,0.0007300004363059998,-0.00011292431008769199
1738772348255733000,10.97473291015625,0.00105638662353158,-0.0004939886275678873,-0.0009670000290498137
1738772348265724000,10.984723876953124,0.0006617087638005614,-0.00006717490032315254,0.00026182527653872967
1738772348275715000,10.994715087890626,-0.00020488398149609566,-0.0002749015111476183,0.0012226938270032406
1738772348285707000,11.00470703125,-0.00063073739875108,0.00020597479306161404,-0.000970209133811295
1738772348295698200,11.0146982421875,-0.000975883100181818,0.00022941059432923794,0.0007499266066588461
1738772348305689000,11.024689208984375,-0.00038235861575230956,0.0009646571706980467,0.00042081731953658164
1738772348315680000,11.034679931640625,0.0005167245399206877,0.0017955631483346224,0.00023546128068119287
1738772348325671000,11.0446708984375,-0.0004118243814446032,-0.0005460951942950487,-0.0011605917243286967
1738772348335662000,11.054662109375,0.0016350812511518598,-0.000496826833114028,0.0009635455207899213
1738772348345654000,11.064654052734374,-0.000553304620552808,0.0005372145678848028,-0.000916002260055393
1738772348355645000,11.07464501953125,-0.0010790126398205757,0.0004208346363157034,-0.00011971710773650557
1738772348365636000,11.084635986328125,0.0009132439736276865,-0.00022937310859560966,-0.0010087840491905808
1738772348375627000,11.094626953125,-0.00007718568667769432,0.0009434830863028765,-0.0013241023989394307
1738772348385618000,11.104617919921875,0.0004874280421063304,-0.0003063355106860399,-0.0002267293748445809
1738772348395610000,11.114610107421875,0.0002464118879288435,-0.00023869122378528118,0.0008483887067995965
1738772348405601000,11.12460107421875,0.0014174437383189797,-0.0014927946031093597,0.0008056453079916537
1738772348415592000,11.134592041015624,-0.0005317239556461573,0.0002776749897748232,0.00046396174002438784
1738772348425583000,11.1445830078125,0.0013321888400241733,-0.0009201944340020418,0.00015330832684412599
1738772348435574000,11.154573974609375,0.0004946247208863497,0.000651070848107338,0.00026329688262194395
1738772348445566000,11.16456591796875,0.00006243353709578514,-0.0003204722888767719,0.00027620437322184443
1738772348455557000,11.17455712890625,0.0004730930086225271,0.0001841967459768057,-0.0022154489997774363
1738772348465548000,11.184548095703125,0.0010912672150880098,-0.00004009273834526539,0.000002684231731109321
1738772348475539000,11.1945390625,-0.0005164830363355577,0.0007476701866835356,-0.0006007880438119173
1738772348485530000,11.204530029296874,-0.0005715513252653182,0.0007039650809019804,-0.0008232977124862373
1738772348495521000,11.21452099609375,-0.0010402677580714226,-0.0016263010911643505,-0.00047841836931183934
1738772348505513000,11.224512939453126,-0.0006368685280904174,-0.00042643724009394646,-0.00016654482169542462
1738772348515504000,11.234504150390626,0.0003514304989948869,0.0007426906377077103,0.0005490465555340052
1738772348525495000,11.2444951171875,-0.0006839797715656459,0.00037900987081229687,-0.001954837469384074
1738772348535486000,11.25448583984375,0.0014103301800787449,0.0002562378067523241,0.0008473407360725105
1738772348545477000,11.26447705078125,-0.00038506067357957363,-0.000580992316827178,-0.00005141873407410458
1738772348555469000,11.274468994140625,0.0005856615025550127,0.0007982589304447174,-0.0014194846153259277
1738772348565460000,11.2844599609375,0.000873357173986733,-0.0001238489057868719,0.0003018385614268482
1738772348575451100,11.294451171875,-0.0003138801548629999,-0.00005833525210618973,0.00026668483042158186
1738772348585442000,11.304442138671876,-0.0017369777197018266,0.0005212621763348579,-0.00005936712841503322
1738772348595433000,11.314432861328125,-0.0014568131882697344,-0.0006105811335146427,0.0009901846060529351
1738772348605424000,11.324424072265625,0.0008292063139379025,-0.000027388567104935646,-0.00013621390098705888
1738772348615416000,11.334416015625,0.000373006914742291,-0.00009236973710358143,-0.0005316933384165168
1738772348625407000,11.344406982421875,0.0005067898891866207,-0.0015358340460807085,-0.0006533022969961166
1738772348635398100,11.354398193359375,0.00005005777347832918,0.00013503292575478554,-0.000021334155462682247
1738772348645389000,11.36438916015625,0.0012978337472304702,-0.0003421592991799116,-0.001703677698969841
1738772348655380000,11.3743798828125,-0.0014944906579330564,-0.0004934268072247505,0.0006385723827406764
1738772348665372200,11.3843720703125,0.000938118202611804,0.0001549888402223587,-0.0007288575288839638
1738772348675363000,11.394363037109375,-0.0005311478162184358,0.0007438138127326965,-0.000032440919312648475
1738772348685354000,11.40435400390625,-0.0003509289235807955,0.00022128038108348846,-0.00019527530821505934
