time,seconds_elapsed,z,y,x
1738772337301646000,0.02064599609375,0.000278300343779847,0.0048916940577328205,0.00042876892257481813
1738772337311637000,0.030636962890625,0.002356364857405424,0.00407543545588851,-0.0004886900424025953
1738772337321628000,0.0406279296875,0.0017981663113459945,0.0025632926262915134,0.0003880225704051554
1738772337331619000,0.050619140625,0.001148355077020824,0.00424161646515131,-0.00007004113285802305
1738772337341611000,0.060611083984375,0.0016314524691551924,0.003043460426852107,-0.0006625944515690207
1738772337351602000,0.070601806640625,0.0009917612187564373,0.004198739770799875,-0.0014623417519032955
1738772337361593000,0.080593017578125,0.0011531487107276917,0.0034352114889770746,0.0005542038124985993
1738772337371584000,0.090583984375,0.0008269115351140499,0.0046354979276657104,0.0012982910266146064
1738772337381575000,0.100574951171875,0.003329484025016427,0.0031196267809718847,-0.00012996226723771542
1738772337391566000,0.110566162109375,0.0012420982820913196,0.0024881914723664522,-0.00014514227223116904
1738772337401558000,0.12055810546875,0.001618403010070324,0.004793157335370779,0.0024205471854656935
1738772337411549000,0.130548828125,0.0021054951939731836,0.002701244316995144,0.0007339671719819307
1738772337421540000,0.1405400390625,0.002126800362020731,0.0032945964485406876,0.001136370818130672
1738772337431531000,0.150531005859375,0.00036272252327762544,0.003915112931281328,0.0001531317684566602
1738772337441522000,0.16052197265625,0.0022983080707490444,0.004472246393561363,0.0006255765329115093
1738772337451514000,0.17051416015625,0.001580053474754095,0.004851480480283499,0.001460477476939559
1738772337461505000,0.180505126953125,0.002570216776803136,0.0043864925391972065,-0.0007310376968234777
1738772337471496000,0.190495849609375,0.0013542174128815532,0.004200071096420288,-0.0007600661483593285
1738772337481487000,0.200487060546875,0.0009448895580135286,0.00287461606785655,0.00010972223390126601
1738772337491478000,0.21047802734375,0.002763562137261033,0.0017249294323846698,0.0019824570044875145
1738772337501470000,0.220469970703125,0.002350772265344858,0.003040264593437314,0.001044758129864931
1738772337511461000,0.230461181640625,0.0031169636640697718,0.0037446708884090185,0.00011930961773032323
1738772337521452000,0.2404521484375,0.00043356261448934674,0.0037638454232364893,-0.00021944446780253202
1738772337531443000,0.25044287109375,0.002531334524974227,0.0027241474017500877,0.0007028082036413252
1738772337541433900,0.260433837890625,0.0041675809770822525,0.0035654399544000626,0.0008218514849431813
1738772337551425000,0.270425048828125,0.002168345730751753,0.002665824256837368,-0.00007936220208648592
1738772337561417000,0.2804169921875,0.0019912454299628735,0.003230147995054722,-0.00043223105603829026
1738772337571408100,0.290408203125,0.002189118415117264,0.004232029430568218,0.0004511394945438951
1738772337581399000,0.30039892578125,0.002028263406828046,0.0033933997619897127,0.001416269107721746
1738772337591390000,0.310389892578125,0.0002466087171342224,0.004001665860414505,0.0012721919920295477
1738772337601380900,0.320380859375,0.0023640880826860666,0.002703374717384577,0.0009890979854390025
1738772337611373000,0.330373046875,0.002928145695477724,0.003805390791967511,0.0004207794554531574
1738772337621364000,0.340364013671875,0.0013901700731366873,0.003088201628997922,0.0012985573848709464
1738772337631355000,0.35035498046875,0.0013986921403557062,0.0030834078788757324,-0.00002663161103555467
1738772337641346000,0.360345947265625,0.001800030586309731,0.004483431577682495,0.00026285400963388383
1738772337651337000,0.3703369140625,0.001969940261915326,0.0037553233560174704,-0.0006205165409483016
1738772337661329200,0.3803291015625,0.0018413095967844129,0.0035473306197673082,0.0009315737406723201
1738772337671320000,0.390320068359375,0.0023118900135159492,0.004435494542121887,0.0006000102148391306
1738772337681311000,0.40031103515625,0.0002844255941454321,0.004662129562348127,0.0003097256412729621
1738772337691302000,0.410302001953125,0.0009992180857807398,0.003937217406928539,-0.00005619269722956233
1738772337701293000,0.42029296875,0.0010069411946460605,0.003930293023586273,-0.0001525991247035563
1738772337711285000,0.430284912109375,-0.000547279603779316,0.0020240023732185364,0.0006980145117267966
1738772337721276200,0.440276123046875,-0.0011574097443372011,0.004459463059902191,0.0016141419764608145
1738772337731267000,0.45026708984375,-0.001261273049749434,0.0039020637050271034,-0.0002620550512801856
1738772337741258000,0.460258056640625,0.0010253170039504766,0.0037862160243093967,0.0013542174128815532
1738772337751249000,0.470248779296875,0.0016679377295076847,0.0038874163292348385,0.0007065366371534765
1738772337761240800,0.48024072265625,0.0004183826094958931,0.003943609073758125,-0.001740642124786973
1738772337771232000,0.49023193359375,0.0005757753970101476,0.00301762786693871,0.00009454221435589716
1738772337781223000,0.500222900390625,0.0010013486025854945,0.004512193612754345,0.00013422331539914012
1738772337791214000,0.510214111328125,0.0009869674686342478,0.004605670925229788,-0.0008402272942475975
1738772337801205000,0.520205078125,0.0011142665753141046,0.004801679402589798,0.0007001450285315514
1738772337811196000,0.53019580078125,0.0016144082183018327,0.0051713259890675545,0.000996554852463305
1738772337821188000,0.54018798828125,0.00005832322858623229,0.004484230652451515,0.0004791026876773685
1738772337831179000,0.550178955078125,0.002365153282880783,0.00358807691372931,0.0010761833982542157
1738772337841170000,0.560169921875,0.002490055514499545,0.0024863271974027157,-0.0007486145477741957
1738772337851161000,0.5701611328125,0.002630936913192272,0.005653092171996832,-0.0005901564727537334
1738772337861152000,0.580152099609375,0.0008910936885513365,0.0027363980188965797,-0.0022884542122483253
1738772337871144000,0.59014404296875,0.0003110571997240186,0.0029491845052689314,-0.0012460930738598108
1738772337881135000,0.600135009765625,0.0011448930017650127,0.004600344225764275,0.0005856291390955448
1738772337891126000,0.6101259765625,0.0011105381418019533,0.0034056503791362047,0.0003376888344064355
1738772337901117000,0.620116943359375,0.0017275925492867827,0.003379018744453788,-0.0005211806274019182
1738772337911108000,0.630108154296875,0.002861832967028022,0.00392869533970952,0.0013638047967106104
1738772337921099800,0.640099853515625,0.00023675501870457083,0.0035236284602433443,-0.001648496720008552
1738772337931091000,0.650091064453125,0.00038509309524670243,0.0033507891930639744,0.000054861116950633004
1738772337941082000,0.66008203125,0.0005627259379252791,0.004317516926676035,-0.0007089334540069103
1738772337951073000,0.670072998046875,0.002938798163086176,0.0036104475148022175,0.0015699334908276796
1738772337961064000,0.68006396484375,0.002282062778249383,0.0035814191214740276,-0.00019813918333966285
1738772337971055900,0.690055908203125,0.001526523963548243,0.004507932811975479,0.0029473204631358385
1738772337981047000,0.700047119140625,0.0011036139912903309,0.0029640982393175364,0.0007936219917610288
1738772337991038000,0.710037841796875,0.0014032195322215557,0.003864246653392911,0.00034115093876607716
1738772338001029000,0.720029052734375,0.0015560849569737911,0.004733236040920019,0.00033688987605273724
1738772338011020000,0.73002001953125,0.0016221314435824752,0.006191316992044449,-0.0021654162555933
1738772338021011700,0.74001171875,0.0022418489679694176,0.001704689348116517,0.001916144392453134
1738772338031003000,0.7500029296875,0.002162486780434847,0.004123106133192778,0.0008990831556729972
1738772338040994000,0.759994140625,0.0016964336391538382,0.004173972178250551,-0.00031664984999224544
1738772338050985000,0.76998486328125,0.002112685702741146,0.002625077962875366,-0.0002442118711769581
1738772338060976000,0.77997607421875,0.0010804444318637252,0.003953728824853897,0.0009217200567945838
1738772338070967800,0.7899677734375,0.0018959043081849813,0.003641340183094144,-0.00014407701382879168
1738772338080958700,0.799958740234375,-0.0016010924009606242,0.003579821204766631,0.00016005597717594355
1738772338090950000,0.809949951171875,0.000803209375590086,0.0036187032237648964,0.0018873822409659624
1738772338100941000,0.819941162109375,0.0019443739438429475,0.005568669643253088,-0.00039760995423421264
1738772338110932000,0.829931884765625,0.001145159243606031,0.0041524008847773075,0.0008460862445645034
1738772338120923100,0.839923095703125,0.002124936319887638,0.003346528159454465,0.0011017497163265944
1738772338130914800,0.849914794921875,0.0003557983145583421,0.004910869058221579,-0.0009624664089642465
1738772338140906000,0.859906005859375,0.0016863135388121009,0.0035358788445591927,0.0008186557097360492
1738772338150897200,0.869897216796875,0.0017664746847003698,0.0037856835406273603,0.0016881778137758374
1738772338160888000,0.87988818359375,0.0012405004817992449,0.004555337131023407,-0.0007984156836755574
1738772338170879000,0.88987890625,-0.0007297061383724213,0.0025683525018393993,-0.0002612560929264873
1738772338180871000,0.899870849609375,-0.0002820287481881678,0.0031257520895451307,-0.0006732470938004553
1738772338190861800,0.90986181640625,0.002284459536895156,0.002969424705952406,0.0011805793037638068
1738772338200852700,0.919852783203125,-0.001023452845402062,0.0032834112644195557,0.0020186761394143105
1738772338210843600,0.92984375,-0.0004527373821474612,0.0027441212441772223,-0.00003914846820407547
1738772338220834800,0.939834716796875,0.0009321063989773393,0.003629355924203992,-0.00015952334797475487
1738772338230826500,0.949826416015625,0.0021409152541309595,0.0034882084000855684,-0.00047936898772604764
1738772338240817700,0.959817626953125,0.001145159243606031,0.0032716933637857437,0.00036511936923488975
1738772338250808800,0.969808837890625,0.0011502192355692387,0.004421113524585962,0.0001131843455368653
1738772338260799700,0.9797998046875,0.0023350596893578768,0.004001399502158165,0.0003837615076918155
1738772338270790700,0.989790771484375,0.0033720945939421654,0.0040826257318258286,-0.001404018490575254
1738772338280782600,0.999782470703125,0.00020346550445538014,0.004251470323652029,0.00011771172285079956
1738772338290773500,1.0097734375,0.001070857048034668,0.0036157737486064434,-0.0003866909828502685
1738772338300764700,1.0197646484375,0.0022913836874067783,0.003879959462210536,-0.00040772996726445854
1738772338310755800,1.029755859375,0.0017201356822624803,0.00430286955088377,0.0038029940333217382
1738772338320746800,1.039746826171875,0.0006548712844960392,0.00475427508354187,-0.00013129384024068713
1738772338330738700,1.04973876953125,0.0007880293414928019,0.003909520339220762,0.0009246495319530368
1738772338340729600,1.0597294921875,0.00007776429993100464,0.004257062915712595,0.0012857741676270962
1738772338350720800,1.069720703125,0.0018804579740390182,0.002314553363248706,0.00006578007742064074
1738772338360711700,1.079711669921875,0.0016263924771919847,0.003486344125121832,0.001686579897068441
1738772338370702800,1.089702880859375,0.0012338425731286407,0.0030213561840355396,0.0006498112925328314
1738772338380694500,1.099694580078125,0.0014061490073800087,0.004777178168296814,0.0006399576086550951
1738772338390685400,1.109685546875,0.0011017497163265944,0.0036040558479726315,-0.0004926847759634256
1738772338400676600,1.119676513671875,0.0014751249691471457,0.004339620936661959,0.0019241338595747948
1738772338410667800,1.129667724609375,0.0015765913994982839,0.002502572489902377,-0.0009882990270853043
1738772338420658700,1.13965869140625,0.0014343785587698221,0.003829359309747815,0.00010040117194876075
1738772338430649900,1.14964990234375,0.001752093667164445,0.0034826158080250025,0.0007395598222501576
1738772338440641500,1.1596416015625,0.0012865731259807944,0.002889263443648815,-0.0007041397620923817
1738772338450632400,1.169632568359375,0.0010183927370235324,0.003955326974391937,-0.00005805691034765914
1738772338460623600,1.17962353515625,0.002722283359616995,0.003230680711567402,0.0005121259018778801
1738772338470614800,1.18961474609375,0.0010990865994244814,0.003748665563762188,0.00046365635353140533
1738772338480605700,1.199605712890625,0.00046072687837295234,0.0037734329234808683,-0.0004588626616168767
1738772338490597600,1.20959765625,0.0000015978966985130683,0.0035140409599989653,0.0006649913266301155
1738772338500588500,1.219588623046875,0.0014106763992458582,0.00381391285918653,0.0019518306944519281
1738772338510579700,1.229579833984375,0.0008607336785644293,0.00324799120426178,0.0006585997180081904
1738772338520571000,1.23957080078125,0.0011558119440451264,0.00484349112957716,0.00005699164830730297
1738772338530561800,1.249561767578125,0.00039414784987457097,0.004218713380396366,0.0008841694798320532
1738772338540553500,1.259553466796875,0.003257844829931855,0.0027081684675067663,0.00005858954318682663
1738772338550544600,1.269544677734375,0.0024434502702206373,0.00330258603207767,-0.0004207794554531574
1738772338560535600,1.27953564453125,0.0021491709630936384,0.004070109222084284,-0.0020562265999615192
1738772338570526700,1.289526611328125,0.002359827049076557,0.004009655211120844,-0.0007608651067130268
1738772338580518000,1.299517822265625,-0.0005009406013414264,0.004028563853353262,-0.0004988100845366716
1738772338590509600,1.309509521484375,0.0010016148444265127,0.004061054438352585,0.00045806370326317847
1738772338600500500,1.31950048828125,0.000925182132050395,0.00381391285918653,0.0006934871198609471
1738772338610491600,1.32949169921875,0.0031904669012874365,0.004083424806594849,0.0006860303110443056
1738772338620482600,1.339482666015625,0.0003046656202059239,0.003744937013834715,0.00016218650853261352
1738772338630473700,1.3494736328125,0.0028549085836857557,0.004057858604937792,0.001261273049749434
1738772338640465000,1.35946484375,0.0017193368403241038,0.0073380740359425545,-0.0005773733137175441
1738772338650456600,1.36945654296875,0.0017869811272248626,0.0027409254107624292,-0.000037550569686573
1738772338660447500,1.379447509765625,0.0020804614759981632,0.004254932515323162,0.00038269624928943813
1738772338670438700,1.389438720703125,0.0041092573665082455,0.0035388083197176456,0.0006868292111903429
1738772338680429800,1.399429931640625,-0.0010578075889497995,0.004209924954921007,0.001814677962101996
1738772338690420700,1.409420654296875,0.0011893677292391658,0.003740143496543169,-0.0007392935222014785
1738772338700412700,1.41941259765625,0.0006311691831797361,0.0037944719661027193,-0.00007616640505148098
1738772338710403600,1.429403564453125,0.0012173309223726392,0.001885784324258566,0.001091896090656519
1738772338720394500,1.43939453125,0.0028003137558698654,0.003014432033523917,0.0009627327090129256
1738772338730385700,1.4493857421875,0.0015022892039269209,0.0055151404812932014,0.000505734293255955
1738772338740376800,1.459376953125,0.0014516890514642,0.004269846249371767,-0.0008157262345775962
1738772338750368500,1.469368408203125,0.0013137373607605696,0.003306314582005143,0.0005728459218516946
1738772338760359700,1.479359619140625,0.002246909076347947,0.0038919434882700443,0.0003733751946128905
1738772338770350600,1.4893505859375,0.0013800500892102718,0.003999801818281412,0.0005099953268654644
1738772338780341500,1.499341552734375,0.0007265103631652892,0.004189418628811836,0.00023622238950338215
1738772338790332700,1.509332763671875,0.00010279801790602505,0.002968625631183386,-0.0002713761059567332
1738772338800324600,1.51932470703125,0.002008289797231555,0.005000350996851921,0.0008245146600529552
1738772338810315500,1.5293154296875,0.0012412993237376213,0.004209658596664667,-0.00006870955257909372
1738772338820306700,1.539306640625,0.002531600883230567,0.004789961501955986,-0.0020639498252421618
1738772338830297600,1.549297607421875,0.001752093667164445,0.004063184838742018,0.0010186590952798724
1738772338840288500,1.55928857421875,0.0012708604335784912,0.003912183456122875,-0.00013182646944187582
1738772338850279700,1.56927978515625,0.0016740630380809307,0.005147357936948538,-0.0002372876479057595
1738772338860271600,1.579271728515625,0.0024700819049030542,0.0029995182994753122,0.001976065570488572
1738772338870262500,1.589262451171875,0.0008399609941989183,0.004278101958334446,-0.0013994910987094045
1738772338880253700,1.599253662109375,0.00245143985375762,0.0031819448340684175,0.003486610483378172
1738772338890244600,1.60924462890625,0.000060986389144090936,0.0031646343413740396,-0.001936650718562305
1738772338900235800,1.61923583984375,-0.00004021373388241045,0.004889563657343388,-0.00034434671397320926
1738772338910227700,1.629227783203125,0.000975782226305455,0.005145493429154158,0.0011595403775572777
1738772338920218600,1.639218505859375,0.0004990763845853508,0.004834169987589121,-0.00058323226403445
1738772338930209500,1.64920947265625,-0.0012370382901281118,0.0027955202385783195,0.0001507349224993959
1738772338940200400,1.659200439453125,0.002834135899320245,0.004276504274457693,0.000467118457891047
1738772338950191600,1.669191650390625,0.0013608753215521574,0.003686347510665655,-0.00006631271389778703
1738772338960183600,1.67918359375,0.00014674017438665032,0.004486893769353628,-0.00004740426811622456
1738772338970174700,1.6891748046875,0.002243180526420474,0.003753991797566414,0.0007171892793849111
1738772338980165600,1.69916552734375,0.0018895127577707171,0.004275172483175993,-0.001671666163019836
1738772338990156500,1.709156494140625,0.0018330537714064121,0.004348675720393658,-0.000294545607175678
1738772339000147500,1.7191474609375,0.0017001620726659894,0.003180879633873701,-0.0001608549355296418
1738772339010138600,1.729138671875,0.0012112056137993932,0.0036336169578135014,0.0006868292111903429
1738772339020130600,1.739130615234375,0.0025161546654999256,0.0027987160719931126,0.00002103897168126423
1738772339030121500,1.74912158203125,0.0028636970091611147,0.0041310954838991165,0.0010748518398031592
1738772339040112600,1.759112548828125,0.0027651600539684296,0.003934820648282766,0.0019196064677089453
1738772339050103600,1.769103515625,-0.00015286543930415064,0.005042162723839283,-0.0010823087068274617
1738772339060094700,1.7790947265625,0.000642354425508529,0.003908987622708082,0.00041039311327040195
1738772339070086700,1.789086669921875,0.0030655646696686745,0.002808036981150508,0.0024951156228780746
1738772339080077600,1.79907763671875,0.0017675400013104081,0.0034237599465996027,-0.0018988338997587562
1738772339090068500,1.809068359375,0.002028796123340726,0.003041063668206334,-0.00018615495355334133
1738772339100059600,1.8190595703125,0.0017526262672618032,0.00564110791310668,-0.0008325041271746159
1738772339110050600,1.829050537109375,0.001910285442136228,0.004062918480485678,0.0005645901546813548
1738772339120042500,1.83904248046875,0.0019523634109646082,0.003614708548411727,-0.00019467707898002118
1738772339130033700,1.84903369140625,0.0005635248962789774,0.0033830134198069572,0.00133850472047925
1738772339140024600,1.859024658203125,0.0003115898580290377,0.004084756597876549,0.00044821001938544214
1738772339150015500,1.869015380859375,0.0012948289513587952,0.003531085327267647,-0.0011704593198373914
1738772339160006700,1.879006591796875,0.001020257011987269,0.0026471822056919336,-0.0013438310706987977
1738772339169997600,1.88899755859375,0.0003043993201572448,0.0048799761570990086,-0.0012069445801898837
1738772339179989500,1.898989501953125,0.0034091125708073378,0.002752376953139901,-0.00025060345069505274
1738772339189980700,1.908980712890625,0.0011374361347407103,0.004773450084030628,0.0007193197961896658
1738772339199971300,1.918971435546875,0.002281530061736703,0.00381417921744287,-0.000547279603779316
1738772339209962500,1.92896240234375,0.0006908240029588342,0.0043832967057824135,-0.0004010720585938543
1738772339219953700,1.93895361328125,0.0019473034190014005,0.00401498144492507,-0.00005699164830730297
1738772339229945600,1.948945556640625,0.002513757674023509,0.0037729002069681883,0.0006580671179108322
1738772339239936500,1.9589365234375,0.00020772656716872007,0.003980094101279974,-0.00031372037483379245
1738772339249927400,1.968927490234375,0.0005350290448404849,0.0033361418172717094,-0.0012386362068355083
1738772339259918300,1.97891845703125,0.0025928535033017397,0.0046876962296664715,-0.00041758365114219487
1738772339269909500,1.988909423828125,0.0008415589109063148,0.003165433183312416,0.001330249011516571
1738772339279901400,1.9989013671875,0.0027856663800776005,0.00355798308737576,-0.0006295712664723396
1738772339289892400,2.008892333984375,-0.00061279337387532,0.002645317930728197,0.0007819040911272168
1738772339299883500,2.018883544921875,0.0008868326549418271,0.003967843484133482,0.00012996226723771542
1738772339309874400,2.02887451171875,0.002543318783864379,0.004277036525309086,-0.0008732505375519395
1738772339319865300,2.038865234375,0.001975532853975892,0.005245361942797899,0.0006285060080699623
1738772339329856500,2.0488564453125,0.0018421085551381111,0.003450657706707716,0.0004170510219410062
1738772339339848400,2.058848388671875,0.0013664679136127234,0.0025065671652555466,0.00133877107873559
1738772339349839400,2.06883935546875,0.0005784385721199214,0.003727360162883997,0.0007326356135308743
1738772339359830500,2.07883056640625,0.002703374717384577,0.005023254547268152,0.0013310478534549475
1738772339369821400,2.088821533203125,0.0011054781498387456,0.0038804919458925724,-0.0006570018595084548
1738772339379812400,2.098812255859375,0.0028072381392121315,0.0035715652629733086,0.0005819007055833936
1738772339389804500,2.108804443359375,0.0025680861435830593,0.004508465528488159,0.00007243797881528735
1738772339399795500,2.11879541015625,0.001216798322275281,0.0049316417425870895,-0.0006785734440200031
1738772339409786400,2.128786376953125,0.0004697816038969904,0.0026501116808503866,0.001990446588024497
1738772339419777500,2.138777587890625,0.0005060005933046341,0.003440005239099264,0.0008695221040397882
1738772339429768400,2.1487685546875,0.0007241134881041944,0.0038107172586023808,0.0010703244479373097
1738772339439759600,2.158759521484375,0.0003677825443446636,0.0054754591546952724,-0.00013901700731366873
1738772339449751600,2.16875146484375,0.0014085458824411035,0.003209375310689211,0.001029311795718968
1738772339459742500,2.178742431640625,-0.000009321063771494664,0.00387383415363729,-0.0009920274605974555
1738772339469733400,2.1887333984375,-0.00012117382721044123,0.0043686493299901485,0.00011984224693151191
1738772339479724500,2.198724609375,0.0007744472241029143,0.003911118488758802,0.0011121360585093498
1738772339489715500,2.208715576171875,0.002389654517173767,0.004484763368964195,0.0008325041271746159
1738772339499707400,2.218707275390625,0.0002814961189869791,0.0027838023379445076,0.0012370382901281118
1738772339509698600,2.228698486328125,0.002266349969431758,0.004463724326342344,-0.000841825210954994
1738772339519689500,2.238689453125,0.0018690064316615462,0.002138784620910883,0.00038402783684432507
1738772339529680400,2.248680419921875,0.0017619474092498422,0.006048571318387985,-0.0009361011325381696
1738772339539671600,2.258671630859375,0.0021552962716668844,0.0037289580795913935,-0.0002980077115353197
1738772339549662500,2.268662353515625,0.000713993504177779,0.0035931370221078396,0.0006583334179595113
1738772339559654400,2.278654296875,0.0010847054654732347,0.004977181553840637,-0.00021651499264407903
1738772339569645600,2.2886455078125,0.0024232103023678064,0.0031273500062525272,-0.0010602044640108943
1738772339579636500,2.298636474609375,0.0013291836949065328,0.003376888344064355,0.000532365869730711
1738772339589627400,2.30862744140625,0.0013187973527237773,0.0018399780383333564,0.0010788465151563287
1738772339599618600,2.31861865234375,0.00014860439114272594,0.004763862583786249,0.00020373181905597448
1738772339609610500,2.328610595703125,0.0010546117555350065,0.004916728008538485,0.0008860336965881288
1738772339619601400,2.338601318359375,0.001517469179816544,0.005145493429154158,0.0005283711361698806
1738772339629592600,2.348592529296875,0.001466602785512805,0.003212571144104004,0.00009800432599149644
1738772339639583500,2.35858349609375,0.0009028115891851485,0.004819256253540516,0.0001661812566453591
1738772339649574400,2.368574462890625,0.0019499665359035134,0.0023289343807846308,0.002002697205170989
1738772339659566600,2.378566650390625,0.002435460686683655,0.0032405343372374773,-0.0009113337146118283
1738772339669557500,2.3885576171875,0.0020415792241692543,0.003168629016727209,0.00015632755821570754
1738772339679548400,2.39854833984375,0.0013432984706014395,0.004769987892359495,0.0013337110867723823
1738772339689539300,2.408539306640625,0.0018631474813446403,0.003373692510649562,-0.0002687129599507898
1738772339699530500,2.418530517578125,0.0014692660188302398,0.0049257827922701836,-0.00024208133982028812
1738772339709521400,2.428521484375,0.0021752698812633753,0.003750795964151621,0.001618136651813984
1738772339719513600,2.438513671875,0.0011478224769234657,0.0033451966010034084,0.0008873652550391853
1738772339729504500,2.44850439453125,0.0012482235906645656,0.0037617150228470564,-0.0007901599165052176
1738772339739495400,2.458495361328125,0.002514290390536189,0.0033995250705629587,-0.0001954760227818042
1738772339749486300,2.468486328125,0.00011371697473805398,0.004502340219914913,0.0004767058417201042
1738772339759477500,2.4784775390625,0.0019920445047318935,0.0034469293896108866,-0.0006082659820094705
1738772339769469400,2.488469482421875,0.0020540961995720863,0.0028511802665889263,0.000529436394572258
1738772339779460600,2.498460693359375,0.0010695254895836115,0.002447711303830147,0.00003861583536490798
1738772339789451500,2.508451416015625,-0.00004820321555598639,0.004643754102289677,-0.0008311725687235594
1738772339799442400,2.5184423828125,0.0019403791520744562,0.0035417377948760986,-0.0001227717293659225
1738772339809433300,2.528433349609375,0.0010303769959136844,0.00330205331556499,-0.0006583334179595113
1738772339819424500,2.538424560546875,0.0013627394801005721,0.003500725142657757,0.001133174984715879
1738772339829416400,2.54841650390625,0.002088450826704502,0.003070891136303544,0.0013877731980755925
1738772339839407400,2.558407470703125,0.001998968655243516,0.00378967821598053,-0.00016325176693499088
1738772339849398500,2.5683984375,0.0018016285030171275,0.004065315239131451,0.0010695254895836115
1738772339859389400,2.578389404296875,0.0008375641773454845,0.003329484025016427,0.0012213257141411304
1738772339869380400,2.58838037109375,0.001508414396084845,0.0034410704392939806,-0.00045140579459257424
1738772339879372500,2.59837255859375,0.00006338323146337643,0.004298608284443617,0.0005589975044131279
1738772339889363500,2.608363525390625,0.0012013519881293178,0.0033683660440146923,-0.0006442186422646046
1738772339899354400,2.618354248046875,0.0014998923288658261,0.003103115363046527,0.0001102548703784123
1738772339909345500,2.628345458984375,0.0010615360224619508,0.004284759983420372,-0.00015286543930415064
1738772339919336400,2.63833642578125,0.0003217098710592836,0.003266899613663554,-0.0006985471700318158
1738772339929328400,2.648328369140625,0.0016916398890316486,0.005279450677335262,0.00020133497309871018
1738772339939319600,2.658319580078125,0.0021499700378626585,0.0031380027066916227,0.0009339706157334149
1738772339949310500,2.668310546875,0.0018500980222597718,0.0031366711482405663,0.00011531487689353526
1738772339959301400,2.67830126953125,0.0009739180095493793,0.004180896561592817,-0.00018695391190703958
1738772339969292500,2.68829248046875,0.00018429075134918094,0.004452539142221212,-0.0007472829893231392
1738772339979283500,2.698283447265625,0.0015872439835220575,0.0049010151997208595,0.0009126652730628848
1738772339989275400,2.708275390625,0.0007922904333099723,0.005313272587954998,-0.000004793690095539205
1738772339999266600,2.7182666015625,-0.0009454221581108868,0.005152684170752764,0.0002002697146963328
1738772340009257500,2.728257568359375,0.0003992078418377787,0.0037521275226026773,-0.0004037352045997977
1738772340019248400,2.738248291015625,0.002174471039324999,0.00541314110159874,-0.0003126551164314151
1738772340029239600,2.748239501953125,-0.0013347762869670987,0.004552141297608614,0.0010980212828144431
1738772340039231500,2.7582314453125,0.0009446232579648495,0.005542837083339691,-0.0012149340473115444
1738772340049222400,2.768222412109375,0.0009843043517321348,0.0026040389202535152,-0.0003110571997240186
1738772340059213600,2.778213623046875,0.00006684534309897572,0.001954760169610381,-0.0005123922019265592
1738772340069204500,2.78820458984375,0.003001915058121085,0.005526858381927013,0.0008423578692600131
1738772340079195400,2.7981953125,0.0021731394808739424,0.0018383801216259599,0.003959854133427143
1738772340089186600,2.8081865234375,0.0009286442655138671,0.005952431354671717,-0.0043984767980873585
1738772340099178500,2.818178466796875,-0.0012839100090786815,0.0006332996999844909,0.0013901700731366873
1738772340109169400,2.82816943359375,0.0018580874893814325,0.006656038574874401,-0.0010836402652785182
1738772340119160600,2.83816064453125,0.0022173479665070772,0.0019526296528056264,0.0027925907634198666
1738772340129151500,2.8481513671875,-0.0000977380113909021,0.006068811286240816,0.0005094627267681062
1738772340139142400,2.858142333984375,0.0009230516152456403,0.0054703992791473866,-0.0013989584986120462
1738772340149134600,2.868134521484375,-0.00044314999831840396,0.004063717555254698,0.0015877765836194158
1738772340159125500,2.87812548828125,0.000850879936479032,0.005048288032412529,0.0004423510399647057
1738772340169116400,2.888116455078125,-0.0007968177669681609,0.0038458709605038166,-0.00014807176194153726
1738772340179107600,2.898107666015625,0.0007073355955071747,0.0036187032237648964,0.0015744607662782073
1738772340189098500,2.908098388671875,-0.00033156355493701994,0.003960919566452503,-0.0011949603212997317
1738772340199090000,2.91808984375,-0.001106809708289802,0.003251187037676573,-0.0017955031944438815
1738772340209080800,2.928080810546875,0.0017278589075431228,0.0049103363417088985,-0.00038722361205145717
1738772340219072000,2.938072021484375,0.0014817827614024282,0.002088983543217182,0.0022447784431278706
1738772340229063000,2.94806298828125,-0.0007896272582001984,0.0023161512799561024,-0.0016176040517166257
1738772340239054000,2.95805419921875,-0.00010386328358436003,0.0030692932195961475,0.0007574030314572155
1738772340249045200,2.968045166015625,0.001743571599945426,0.002264219569042325,-0.0003099919413216412
1738772340259037000,2.978036865234375,0.0009030779474414885,0.006305566523224115,0.000559530162718147
1738772340269027800,2.98802783203125,0.001044225413352251,0.0024983114562928677,-0.00044900894863530993
1738772340279019000,2.99801904296875,0.0037609159480780363,0.005536179058253765,-0.00023515711654908955
1738772340289010000,3.008010009765625,0.0000031957933970261365,0.002703907433897257,0.002737463219091296
1738772340299001000,3.0180009765625,-0.0008378304773941636,0.00660677021369338,-0.001698564155958593
1738772340308993000,3.027992919921875,0.0016647420125082135,0.0021944446489214897,0.0017129451734945178
1738772340318984000,3.03798388671875,0.002231728984043002,0.005135373678058386,0.0000125168571685208
1738772340328974800,3.047974853515625,0.0011385013349354267,0.002730805426836014,0.0016069513512775302
1738772340338966000,3.057966064453125,0.0021933794487267733,0.00433189794421196,-0.0007845672662369907
1738772340348957200,3.067957275390625,0.0021204089280217886,0.0038029940333217382,0.00019813918333966285
1738772340358948000,3.077947998046875,0.0016311861108988523,0.0030634342692792416,0.0011081412667408586
1738772340368940000,3.08793994140625,0.0021486382465809584,0.0034581145737320185,0.0014378406340256333
1738772340378931000,3.097930908203125,0.0007222492713481188,0.0039049931801855564,-0.0003885551996063441
1738772340388921900,3.107921875,0.0015217302134260535,0.0026176210958510637,-0.001692705205641687
1738772340398913000,3.1179130859375,0.000045273736759554595,0.002263420494273305,0.0004881574132014066
1738772340408904200,3.127904296875,-0.00019094864546786994,0.00424268189817667,0.000041545314161339775
1738772340418896000,3.137895751953125,0.0005017395596951246,0.0019891150295734406,0.00003382214708835818
1738772340428887000,3.147886962890625,0.0019390475936233997,0.0026170883793383837,0.00047936898772604764
1738772340438878000,3.1578779296875,0.0002942793071269989,0.0032501218374818563,0.0018940401496365666
1738772340448868900,3.167868896484375,0.0020152139477431774,0.004505003336817026,-0.0002162486780434847
1738772340458860000,3.177860107421875,0.0026008430868387222,0.003002181416377425,0.00007430219557136297
1738772340468851200,3.187851318359375,0.0014266553334891796,0.004295146092772484,0.0007816377910785377
1738772340478843000,3.1978427734375,0.0016197345685213804,0.003941478207707405,0.0003201119543518871
1738772340488834000,3.207833984375,0.0016128103015944362,0.0021869877818971872,0.0008434231276623905
1738772340498825000,3.217824951171875,0.0006785734440200031,0.003373426152393222,-0.00039175100391730666
1738772340508816100,3.227816162109375,0.0016322514275088906,0.0031995216850191355,-0.000023435817638528533
1738772340518807000,3.23780712890625,0.002612028270959854,0.004866660572588444,-0.000008255799002654385
1738772340528799000,3.247799072265625,0.00006125270738266408,0.00464668357744813,0.0002162486780434847
1738772340538790000,3.257789794921875,-0.0010724549647420645,0.0035228293854743242,0.0009038768475875258
1738772340548781000,3.267781005859375,0.0007374293054454029,0.004976915195584297,0.0013235911028459668
1738772340558772000,3.27777197265625,0.000013315805517777335,0.001871136948466301,0.0015068164793774486
1738772340568763100,3.28776318359375,-0.0000029294772048160667,0.003823234001174569,-0.00047164582065306604
1738772340578754000,3.297754150390625,0.0007843009079806507,0.0027289411518722773,-0.0009661948424763978
1738772340588746000,3.30774609375,0.0022682142443954945,0.0029116340447217226,-0.00012090751260984689
1738772340598737000,3.31773681640625,0.0003174488083459437,0.003364904085174203,0.001213868847116828
1738772340608727800,3.327727783203125,0.0015249260468408465,0.0034027209039777517,-0.0003051982494071126
1738772340618719000,3.337718994140625,0.0017741979099810123,0.0039867521263659,-0.0003890878288075328
1738772340628710100,3.347710205078125,-0.00038003307417966425,0.004716191906481981,-0.0003406183095648885
1738772340638702000,3.3577021484375,0.003599794814363122,0.004845355171710253,0.0000601874417043291
1738772340648693000,3.36769287109375,0.0021763353142887354,0.004096740856766701,0.0013635384384542704
1738772340658684000,3.377683837890625,0.0024168186355382204,0.004584099166095257,-0.0006466155173256993
1738772340668675000,3.387675048828125,0.0011329087428748608,0.004308728501200676,-0.00025752768851816654
1738772340678666200,3.397666259765625,0.001719603082165122,0.0029648973140865564,-0.000011717908819264267
1738772340688657200,3.4076572265625,0.003263437654823065,0.0046967510133981705,0.00041971419705078006
1738772340698649000,3.417649169921875,0.0018543590558692813,0.0035175031516700983,-0.00038456046604551375
1738772340708640000,3.427639892578125,-0.0005763080553151667,0.00418302696198225,-0.0008855010382831097
1738772340718631000,3.437630859375,0.0023965786676853895,0.0032032502349466085,0.0007360977469943464
1738772340728622000,3.4476220703125,0.001710814656689763,0.0035459990613162518,0.0010655306978151202
1738772340738613200,3.45761328125,0.00036751621519215405,0.003495398908853531,-0.000007456851108145202
1738772340748605000,3.46760498046875,0.0011400992516428232,0.00361737166531384,0.00028575718170031905
1738772340758595800,3.477595947265625,0.001900964416563511,0.0034706315491348505,-0.0005131911602802575
1738772340768587000,3.4875869140625,0.0006554039428010583,0.005277319811284542,-0.0005954828229732811
1738772340778578000,3.497577880859375,0.0014705975772812963,0.00446878420189023,0.00026764770154841244
1738772340788569000,3.507569091796875,0.00038242992013692856,0.0035033884923905134,0.0004772384709212929
1738772340798561000,3.51756103515625,0.0010410296963527799,0.004180896561592817,0.00009187905379803851
1738772340808552000,3.527552001953125,0.0014168017078191042,0.004537760280072689,0.0007454187725670636
1738772340818542800,3.53754296875,0.0043739755637943745,0.004150004126131535,0.001487109111621976
1738772340828534000,3.547533935546875,0.0008886968716979027,0.004293814767152071,0.001978195970878005
1738772340838525200,3.557525146484375,0.0005760417552664876,0.0032471923623234034,0.0024802018888294697
1738772340848516000,3.56751611328125,0.0018631474813446403,0.004217382054775953,0.00012543488992378116
1738772340858508000,3.577508056640625,0.00048629322554916143,0.003442668356001377,-0.00018029600323643535
1738772340868499000,3.5874990234375,0.0012452941155061126,0.0034946000669151545,-0.0004420847399160266
1738772340878489900,3.59748974609375,0.0007712514488957822,0.0036093820817768574,0.0016375777777284384
1738772340888481000,3.60748095703125,0.0013944311067461967,0.0043678502552211285,0.0009470200748182833
1738772340898472200,3.61747216796875,0.001975532853975892,0.003132410114631057,0.00042104575550183654
1738772340908463900,3.6274638671875,0.0007491472060792148,0.003394465195015073,0.000046871635277057067
1738772340918455000,3.637455078125,0.0016713999211788177,0.00515801040455699,0.0008476841612718999
1738772340928446000,3.647446044921875,0.00033182985498569906,0.0028700886759907007,-0.00047111319145187736
1738772340938436900,3.657436767578125,0.0012005530297756195,0.004344680812209845,0.0003094593121204525
1738772340948428000,3.667427978515625,0.00247540813870728,0.004061587154865265,0.0007893609581515193
1738772340958419200,3.677419189453125,0.000362988852430135,0.004861334338784218,0.0009552759001962841
1738772340968411000,3.687410888671875,0.001253017340786755,0.0024828650057315826,-0.0011105381418019533
1738772340978402000,3.697402099609375,-0.0002793656021822244,0.0038900794461369514,0.0007158577209338546
1738772340988393000,3.70739306640625,0.00020719393796753138,0.004219512455165386,0.0009382316493429244
1738772340998383900,3.7173837890625,0.00012436961696948856,0.004251736681908369,0.0000953411654336378
1738772341008375000,3.727375,0.001928128651343286,0.0036570527590811253,0.0016953683225437999
1738772341018367000,3.737366943359375,0.0010162622202187777,0.002026133006438613,-0.00019893812714144588
1738772341028358000,3.74735791015625,0.00213585514575243,0.004090349189937115,0.0008625978953205049
1738772341038349000,3.75734912109375,0.00205249828286469,0.004221110139042139,0.0011614045361056924
1738772341048340000,3.767340087890625,0.0009108011145144701,0.004120443016290665,0.000434361572843045
1738772341058331100,3.7773310546875,0.0019140138756483793,0.004412058740854263,-0.0005083974683657289
1738772341068322000,3.787322021484375,0.0016578177455812693,0.004339620936661959,-0.00034434671397320926
1738772341078314000,3.79731396484375,-0.00021891183860134333,0.003102849004790187,0.00012650014832615852
1738772341088305000,3.807304931640625,0.0010910971323028207,0.0041039311327040195,0.0003352919884491712
1738772341098296000,3.817296142578125,0.0010924286907538772,0.003596598980948329,-0.0009869674686342478
1738772341108287000,3.827286865234375,0.0013853764394298196,0.004622448701411486,0.0017201356822624803
1738772341118278100,3.837278076171875,0.0012269183062016964,0.0032661007717251778,0.0003102582704741508
1738772341128270000,3.84727001953125,0.0001656486128922552,0.0036101811565458775,-0.0007850998663343489
1738772341138261000,3.857260986328125,0.0012745888670906425,0.0030330740846693516,-0.001088700257241726
1738772341148252000,3.867251953125,0.0004844290087930858,0.0032770195975899696,0.0009853695519268513
1738772341158242800,3.877242919921875,0.0026498453225940466,0.0046389601193368435,-0.0017784589435905218
1738772341168234000,3.88723388671875,0.001148088718764484,0.0031260184478014708,-0.0004207794554531574
1738772341178225200,3.89722509765625,0.0002950782363768667,0.0049098036251962185,0.0009859022684395313
1738772341188217000,3.907217041015625,0.0023912524338811636,0.0025691515766084194,-0.00021997711155563593
1738772341198208300,3.917208251953125,0.001064731739461422,0.005333246197551489,0.0013126720441505313
1738772341208199400,3.927199462890625,0.002380599733442068,0.003439206164330244,-0.0004982774262316525
1738772341218190300,3.9371904296875,0.0006466155173256993,0.00472444761544466,0.0004958806093782187
1738772341228182300,3.947182373046875,0.0015970977256074548,0.003816842334344983,0.0006301039247773588
1738772341238173400,3.95717333984375,0.0010900318156927824,0.0033486587926745415,0.0005342300864867866
1738772341248164400,3.967164306640625,-0.0006151901907287538,0.0051873051561415195,0.0018519621808081865
1738772341258155300,3.9771552734375,0.0014716627774760127,0.004965197294950485,0.0022498385515064
1738772341268146400,3.987146484375,0.0024487765040248632,0.0049340385012328625,0.0006596649764105678
1738772341278138400,3.997138427734375,0.002769421087577939,0.00449887802824378,0.000979244359768927
1738772341288129300,4.00712939453125,0.0009712548344396055,0.003838414093479514,0.0012202603975310922
1738772341298120400,4.017120361328125,0.0010964233661070466,0.00395719101652503,0.0006980145117267966
1738772341308111400,4.027111328125,0.00236275652423501,0.003585413796827197,-0.0011286477092653513
1738772341318102300,4.037102294921875,0.0010524812387302518,0.003153981640934944,0.00006817692337790504
1738772341328094500,4.047094482421875,0.0011201255256310105,0.0037491980474442244,0.0010407633380964398
1738772341338085400,4.05708544921875,0.0012199940392747521,0.003180879633873701,-0.000800279900431633
1738772341348076300,4.067076171875,0.0017776599852368236,0.0026346652302891016,-0.0001637844106880948
1738772341358067500,4.0770673828125,0.00037257623625919223,0.004311657976359129,-0.00031372037483379245
1738772341368058400,4.087058349609375,0.0023643544409424067,0.0033047166652977467,0.0017712684348225594
1738772341378049300,4.09704931640625,0.0028160265646874905,0.0037614486645907164,2.6631610694494157e-7
1738772341388041500,4.10704150390625,-0.00040320257539860904,0.003403253620490432,0.0004868258547503501
1738772341398032400,4.117032470703125,0.001023452845402062,0.003552656853571534,0.0009195895399898291
1738772341408023300,4.127023193359375,0.0007968177669681609,0.003829092951491475,0.0011523497523739934
1738772341418014500,4.137014404296875,0.0021526331547647715,0.0052261874079704285,0.0019068233668804169
1738772341428005400,4.14700537109375,0.00010998855577781796,0.003974501509219408,-0.001038632821291685
1738772341437997300,4.156997314453125,0.0019656792283058167,0.004766259342432022,0.0013840447645634413
1738772341447988500,4.166988525390625,0.0002612560929264873,0.0039009982720017433,0.0005747101386077702
1738772341457979400,4.1769794921875,0.0012277172645553946,0.003373159794136882,0.0009467537747696042
1738772341467970300,4.18697021484375,0.0019832560792565346,0.004002731293439865,0.000630636524874717
1738772341477961500,4.19696142578125,0.0009153284481726587,0.00487198680639267,-0.0005779059720225632
1738772341487952400,4.206952392578125,0.0009536779834888875,0.0036434705834835768,-0.000278300343779847
1738772341497944300,4.2169443359375,0.001020523370243609,0.004709533881396055,-0.00012889699428342283
1738772341507935500,4.226935546875,0.00287461606785655,0.003917243797332048,0.00009427589975530282
1738772341517926400,4.236926513671875,0.0004495415778364986,0.005179582163691521,-0.000041545314161339775
1738772341527917300,4.246917236328125,0.0010207896120846272,0.004266650415956974,0.0006791060441173613
1738772341537908200,4.256908203125,0.0014173343079164624,0.0036309538409113884,-0.00023702133330516517
1738772341547900400,4.266900390625,0.002659698948264122,0.0034029872622340918,-0.001139566651545465
1738772341557891300,4.276891357421875,0.0006269080913625658,0.0023790018167346716,-0.00014700648898724467
1738772341567882500,4.286882568359375,0.0007760451408103108,0.005707953125238419,-0.0007062703371047974
1738772341577873400,4.296873291015625,0.0018690064316615462,0.002709766384214163,0.0008008125587366521
1738772341587864300,4.3068642578125,0.0002897519152611494,0.00461685610935092,0.0003616572648752481
1738772341597855200,4.316855224609375,0.0006141249323263764,0.0037140443455427885,0.0004886900424025953
1738772341607846400,4.326846435546875,0.0004665858286898583,0.0017395768081769347,0.0010908307740464807
1738772341617838300,4.33683837890625,0.002642122097313404,0.003163302782922983,0.0007102650706656277
1738772341627829200,4.346829345703125,0.0004516721237450838,0.004088218789547682,0.00043356261448934674
1738772341637820400,4.3568203125,-0.00010972223390126601,0.002880475018173456,-0.0006953513366170228
1738772341647811300,4.366811279296875,0.001925199176184833,0.0029140308033674955,0.000597879639826715
1738772341657802200,4.37680224609375,0.0014556838432326913,0.004023769870400429,0.00065460498444736
1738772341667793400,4.38679345703125,0.0008961536805145442,0.00433003343641758,0.0005629922379739583
1738772341677785300,4.396785400390625,0.0030503845773637295,0.0035353463608771563,-0.002659698948264122
1738772341687776300,4.4067763671875,0.0016636766958981752,0.002930542454123497,0.0017725999932736158
1738772341697767400,4.416767333984375,0.001499359728768468,0.004545749630779028,-0.00038589202449657023
1738772341707758300,4.42675830078125,-0.000303334032651037,0.003936951048672199,-0.00001651159800530877
1738772341717749200,4.436749267578125,0.002267415402457118,0.004188087303191423,0.0012096078135073185
1738772341727741400,4.446741455078125,0.0017584852175787091,0.0029318740125745535,0.0018588864477351308
1738772341737732400,4.456732421875,0.0021960425656288862,0.005878928117454052,-0.0006018743733875453
1738772341747723300,4.46672314453125,0.001234641415067017,0.003317233407869935,-0.00017204020696226507
1738772341757714400,4.47671435546875,0.0007291734800674021,0.004690092988312244,0.0009456885163672268
1738772341767705300,4.486705322265625,0.0020660804584622383,0.004145476501435041,0.0007707187905907631
1738772341777697300,4.496697265625,0.0017688715597614646,0.0056770602241158485,-0.0008578042034059763
1738772341787688400,4.5066884765625,0.00015686018741689622,0.004486893769353628,0.0011251855175942183
1738772341797679400,4.516679443359375,0.0031121699139475822,0.004078364931046963,0.0005874933558516204
1738772341807670300,4.526670166015625,0.0012921657180413604,0.003905525663867593,0.00030892668291926384
1738772341817661400,4.536661376953125,0.001630387152545154,0.005688512232154608,-0.0010298443958163261
1738772341827652400,4.54665234375,0.0013014868600293994,0.004189418628811836,0.0016889767721295357
1738772341837644300,4.556644287109375,0.002156894188374281,0.004011785611510277,0.0010910971323028207
1738772341847635500,4.566635498046875,0.0008974852971732616,0.0032690302468836308,-0.0006801713607273996
1738772341857626400,4.57662646484375,0.0010178601369261742,0.004387824330478907,0.0003499393642414361
1738772341867617300,4.5866171875,0.0013909690314903855,0.0025627599097788334,0.0003102582704741508
1738772341877608400,4.5966083984375,0.0010692591313272715,0.0034551850985735655,0.00019920444174204022
1738772341887600400,4.606600341796875,-0.0001699096756055951,0.0024349282030016184,0.0008857673965394497
1738772341897591300,4.61659130859375,0.0017680726014077663,0.004460794851183891,0.0005819007055833936
1738772341907582500,4.62658251953125,0.0007403587806038558,0.004249073565006256,0.0007257114048115909
1738772341917573400,4.636573486328125,0.0027987160719931126,0.0030415961518883705,0.0023499734234064817
1738772341927564300,4.646564208984375,0.0013278521364554763,0.004179564770311117,-0.000711064029019326
1738772341937556500,4.656556396484375,0.001728391507640481,0.003072488820180297,-0.00019920444174204022
1738772341947547400,4.66654736328125,0.0018136126454919577,0.004427238833159208,-0.00023409185814671218
1738772341957538300,4.676538330078125,0.0009363674325868487,0.00452843913808465,-0.0009158611064776778
1738772341967529500,4.686529541015625,0.00170788518153131,0.0036104475148022175,0.000577107013668865
1738772341977520400,4.696520263671875,0.0019174759509041905,0.004821386653929949,-0.000570981705095619
1738772341987512300,4.70651220703125,0.0013283847365528345,0.0033396040089428425,0.0007845672662369907
1738772341997503500,4.71650341796875,0.0021398498211055994,0.0038277613930404186,0.0005768407136201859
1738772342007494400,4.726494384765625,0.0026019082870334387,0.004857339430600405,-0.0001954760227818042
1738772342017485300,4.7364853515625,0.00017496968212071806,0.003183809109032154,-0.0013946974650025368
1738772342027476200,4.746476318359375,0.0025443839840590954,0.004682902246713638,-0.0003480751474853605
1738772342037467400,4.75646728515625,0.0019659455865621567,0.004442685283720493,0.000713993504177779
1738772342047459300,4.766459228515625,0.0016413062112405896,0.0036157737486064434,0.000984836951829493
1738772342057450500,4.776450439453125,0.0010373012628406286,0.004607801325619221,0.0009539442835375667
1738772342067441400,4.78644140625,0.0020671456586569548,0.0034519892651587725,0.00019201391842216253
1738772342077432300,4.796432373046875,-0.00016644757124595344,0.0041585261933505535,-0.0009289105655625463
1738772342087423200,4.80642333984375,0.0012154667638242245,0.003177950158715248,0.0015326491557061672
1738772342097415400,4.81641552734375,0.001484712352976203,0.002959304489195347,0.00037923414492979646
1738772342107406300,4.82640625,0.0011664645280689,0.004017910920083523,-0.0012594088912010193
1738772342117397200,4.836397216796875,0.0024200144689530134,0.0035337484441697598,0.0005856291390955448
1738772342127388400,4.846388427734375,0.0004194478678982705,0.004459995776414871,0.0007038734620437026
1738772342137379300,4.85637939453125,0.0009739180095493793,0.0037705034483224154,0.00022397184511646628
1738772342147370200,4.866370361328125,0.00033662354690022767,0.0029060414526611567,0.0010237190872430801
1738772342157362400,4.876362548828125,0.002978213131427765,0.004837099462747574,0.000639691308606416
1738772342167353300,4.886353271484375,-0.000026897927455138415,0.004135889001190662,0.00005273058923194185
1738772342177344300,4.89634423828125,-0.00004420847471919842,0.003344131400808692,-0.00007936220208648592
1738772342187335400,4.90633544921875,0.0035537220537662506,0.0038400120101869106,-0.0002061286650132388
1738772342197326300,4.916326416015625,0.0006913566030561924,0.004169445019215345,0.0007382282637991011
1738772342207319300,4.9263193359375,0.0013539510546252131,0.005123921670019627,0.001592037733644247
1738772342217310200,4.936310302734375,-0.00014088122406974435,0.004486361052840948,-0.00017683389887679368
1738772342227301000,4.946301025390625,0.0019598202779889107,0.0037760960403829813,0.00010759170982055366
1738772342237292300,4.956292236328125,0.001645300886593759,0.003173955250531435,-0.0008149272762238979
1738772342247283200,4.966283203125,0.0033329459838569164,0.003114566905423999,-0.0011515507940202951
1738772342257275100,4.976275146484375,0.0011342403013259172,0.003427221905440092,0.0011536814272403717
1738772342267266300,4.986266357421875,0.0011667308863252401,0.002567287301644683,0.0004756405542138964
1738772342277257200,4.99625732421875,-0.0001030643325066194,0.0028610338922590017,0.0007835020078346133
1738772342287248100,5.006248046875,0.0026293389964848757,0.0029710223898291588,-0.000368847802747041
1738772342297239300,5.0162392578125,0.002700445242226124,0.0048738508485257626,0.00015925703337416053
1738772342307231200,5.026231201171875,0.00048602689639665186,0.0032447953708469868,-0.0003336940717417747
1738772342317222100,5.03622216796875,0.0007568703731521964,0.004597148858010769,0.0016200009267777205
1738772342327213300,5.04621337890625,0.0028913940768688917,0.005809952039271593,0.0014317154418677092
1738772342337204200,5.056204345703125,-0.0004756405542138964,0.004601143300533295,0.0012420982820913196
1738772342347195100,5.066195068359375,0.0026458504144102335,0.004203799646347761,0.0010817759903147817
1738772342357186300,5.076186279296875,-0.0005581985460594296,0.0036514601670205593,0.000291616132017225
1738772342367178200,5.08617822265625,0.001740109408274293,0.004166515544056892,-0.0006082659820094705
1738772342377169200,5.096169189453125,0.0012205267557874322,0.0039278962649405,0.0004468784318305552
1738772342387160300,5.106160400390625,0.0014381069922819734,0.0033683660440146923,-0.0010343717876821756
1738772342397151200,5.116151123046875,0.0024580976460129023,0.003334543900564313,0.0008386294357478619
1738772342407142100,5.12614208984375,0.0003251719754189253,0.003955593332648277,0.0005342300864867866
1738772342417134300,5.13613427734375,0.0008434231276623905,0.002802178030833602,0.0010104032699018717
1738772342427125200,5.146125244140625,0.0034946000669151545,0.002897785510867834,0.0006892260862514377
1738772342437116200,5.1561162109375,0.0007099987124092877,0.0025363946333527565,-0.00037204360705800354
1738772342447107300,5.166107421875,0.0020149475894868374,0.003212571144104004,0.00005273058923194185
1738772342457098200,5.17609814453125,0.0035483958199620247,0.004293814767152071,0.0008197209681384265
1738772342467090200,5.186090087890625,-0.00010572749306447804,0.0030061763245612383,-0.00040666470886208117
1738772342477081300,5.196081298828125,0.0005499427788890898,0.0036818201187998056,0.00012064119800925255
1738772342487072300,5.206072265625,0.0007355650886893272,0.0046815709210932255,-0.0001757686259225011
1738772342497063200,5.216063232421875,0.0005829659639857709,0.005315136630088091,-0.0008189220097847283
1738772342507054300,5.226054443359375,0.000618918624240905,0.0034386736806482077,0.0016990967560559511
1738772342517045200,5.236045166015625,-0.00021518341964110732,0.0035270904190838337,-0.0009081379394046962
1738772342527037200,5.246037109375,0.000595216522924602,0.004459729418158531,0.00044474788592197
1738772342537028400,5.2560283203125,0.0014024205738678575,0.004157460760325193,0.00006311691686278209
1738772342547019300,5.266019287109375,0.0013691311469301581,0.004066380672156811,0.0003701793903019279
1738772342557010200,5.27601025390625,0.0023957795929163694,0.004283161833882332,-0.0008269115351140499
1738772342567001000,5.2860009765625,0.002913231961429119,0.0030013825744390488,0.0001001348573481664
1738772342576993300,5.2959931640625,0.0019006980583071709,0.00492098880931735,0.0010029464028775692
1738772342586984200,5.305984130859375,0.002034921431913972,0.004483431577682495,-0.001064998097717762
1738772342596975400,5.315975341796875,0.0016889767721295357,0.0041553303599357605,0.0005872269975952804
1738772342606966300,5.32596630859375,0.0015691345324739814,0.0038048583082854748,0.0019885823130607605
1738772342616957200,5.335957275390625,0.0025012409314513206,0.0046453517861664295,-0.00023861923546064645
1738772342626949400,5.345949462890625,0.0011864382540807128,0.00336117553524673,0.001582716591656208
1738772342636940300,5.355940185546875,0.0006775081856176257,0.0023031015880405903,-0.00012410330236889422
1738772342646931200,5.36593115234375,0.000895621080417186,0.0049494849517941475,0.001023186487145722
1738772342656922000,5.375922119140625,0.0019465044606477022,0.003692206460982561,0.0006311691831797361
1738772342666913300,5.385913330078125,0.0012428972404450178,0.004667456261813641,-0.00026525085559114814
1738772342676904200,5.395904296875,0.0012684636749327183,0.004737230949103832,-0.0004945489927195013
1738772342686896400,5.405896484375,0.0022719427943229675,0.004716191906481981,-0.00035926041891798377
1738772342696887300,5.41588720703125,0.00086872314568609,0.004674912896007299,0.002856240142136812
1738772342706878200,5.425878173828125,0.0011310444679111242,0.0041497377678751945,0.002007757080718875
1738772342716869000,5.435869140625,0.001460477476939559,0.004323641769587994,-0.00033103092573583126
1738772342726860300,5.4458603515625,-0.0001395496365148574,0.0038959383964538574,0.0007297061383724213
1738772342736852200,5.455852294921875,0.0027742148377001286,0.004355333745479584,0.0013219931861385703
1738772342746843100,5.465843017578125,0.001630120910704136,0.0035268242936581373,0.0004495415778364986
1738772342756834300,5.475834228515625,0.001493234420195222,0.003772101365029812,-0.00003062635369133204
1738772342766825200,5.4858251953125,0.002234658459201455,0.002974750939756632,0.0008761800127103925
1738772342776816000,5.495816162109375,0.000988032785244286,0.004480502102524042,0.0007920240750536323
1738772342786808300,5.505808349609375,0.0031318773981183767,0.004551608581095934,0.0005507417372427881
1738772342796799200,5.51579931640625,0.002174204681068659,0.004308462142944336,-0.0009981527691707015
1738772342806790100,5.5257900390625,0.0008183894096873701,0.0033936661202460527,-0.000365918327588588
1738772342816781300,5.53578125,0.0013845774810761213,0.004473311826586723,-0.0009105347562581301
1738772342826772200,5.545772216796875,0.0008266451768577099,0.0037771612405776978,0.000651675509288907
1738772342836763100,5.55576318359375,0.0014535533264279366,0.003608316881582141,0.0004929511342197657
1738772342846755300,5.56575537109375,0.0019686087034642696,0.0052051483653485775,0.0007965514669194818
1738772342856746200,5.575746337890625,0.0026133600622415543,0.00296329939737916,-0.00019361180602572858
1738772342866737200,5.585737060546875,0.0020666129421442747,0.003890611929818988,0.0013116068439558148
1738772342876728300,5.595728271484375,0.0025712819769978523,0.004277302883565426,-0.0005014732014387846
1738772342886719200,5.60571923828125,0.0008349010022357106,0.003977164626121521,0.0010777813149616122
1738772342896711200,5.615711181640625,0.0032256206031888723,0.004932973068207502,0.00019387812062632293
1738772342906702300,5.625702392578125,0.0016655409708619118,0.002828809665516019,0.001041562296450138
1738772342916693200,5.635693359375,0.0015150723047554493,0.0047116647474467754,0.0007917577750049531
1738772342926684200,5.64568408203125,0.001466869143769145,0.003307912265881896,0.0010423612548038363
1738772342936675300,5.65567529296875,0.0018761969404295087,0.004139084834605455,-0.0003787015157286078
1738772342946667300,5.665667236328125,0.0020189424976706505,0.0036184368655085564,0.0004058657505083829
1738772342956658200,5.675658203125,-0.0000655137628200464,0.0032783513888716698,0.0011153318919241428
1738772342966649300,5.6856494140625,0.001770203118212521,0.004987568128854036,0.0005283711361698806
1738772342976640300,5.69564013671875,0.0018271948210895061,0.0032583775464445353,0.0004809668753296137
1738772342986631200,5.705631103515625,0.00039760995423421264,0.004338555503636599,-0.000925448490306735
1738772342996622300,5.715622314453125,0.0022711437195539474,0.0038277613930404186,-0.000493750034365803
1738772343006614300,5.7256142578125,0.0014021543320268393,0.0027720844373106956,0.00035739620216190815
1738772343016605200,5.735605224609375,0.0014879080699756742,0.004159857518970966,0.0013363742036744952
1738772343026596400,5.745596435546875,0.001755023142322898,0.0036128442734479904,0.000993891735561192
1738772343036587300,5.755587158203125,0.00033635724685154855,0.003861050819978118,-0.000666589243337512
1738772343046578200,5.765578125,0.00038935415796004236,0.003823766717687249,-0.0001699096756055951
1738772343056570400,5.7755703125,0.000300404557492584,0.00481206551194191,0.000978978001512587
1738772343066561300,5.785561279296875,0.002581668319180608,0.0038831550627946854,0.0014602112350985408
1738772343076552200,5.79555224609375,0.0010066748363897204,0.0031904669012874365,0.000054861116950633004
1738772343086543400,5.80554345703125,0.0006458165589720011,0.0046299053356051445,0.000800279900431633
1738772343096534300,5.8155341796875,-0.00022397184511646628,0.003943609073758125,0.0010950918076559901
1738772343106526200,5.825526123046875,0.001868207473307848,0.0021760689560323954,-0.0008615325787104666
1738772343116517400,5.835517333984375,0.0006940197781659663,0.0030663637444376945,-0.0003736414946615696
1738772343126508300,5.84550830078125,0.0013600763631984591,0.003573695896193385,0.0007326356135308743
1738772343136499200,5.855499267578125,0.0014953649369999766,0.004553206264972687,0.000287088769255206
1738772343146490400,5.865490478515625,0.0022719427943229675,0.003942809998989105,0.0005440838285721838
1738772343156481300,5.875481201171875,0.0010894992155954242,0.004854942671954632,-0.0007193197961896658
1738772343166473200,5.88547314453125,-0.0007398261222988367,0.003931092098355293,-0.0007835020078346133
1738772343176464400,5.89546435546875,0.0009265137487091124,0.0032410670537501574,0.00007723167072981596
1738772343186455300,5.905455322265625,0.0017781927017495036,0.0046605318784713745,0.0005062668933533132
1738772343196446200,5.9154462890625,0.000532632227987051,0.005061604082584381,0.0001179780374513939
1738772343206436600,5.9254365234375,0.002498843939974904,0.0052296495996415615,0.00017789915727917105
1738772343216428800,5.9354287109375,0.0007427555974572897,0.0041555967181921005,0.001356614287942648
1738772343226419700,5.945419677734375,0.0003611246356740594,0.004010720644146204,-0.0014210627414286137
1738772343236410600,5.95541064453125,0.0005962817813269794,0.0036602485924959183,0.0009134642314165831
1738772343246401800,5.96540185546875,0.0012458267156034708,0.0042706448584795,-0.0004897553008049726
1738772343256392700,5.975392822265625,0.0005411543534137309,0.004577441141009331,0.0012815131340175867
1738772343266383600,5.985383544921875,0.0014317154418677092,0.0026200178544968367,-0.0004442152567207813
1738772343276375800,5.995375732421875,0.001285241567529738,0.00398781755939126,-0.000018375811123405583
1738772343286366700,6.00536669921875,0.00046046054922044277,0.005151086021214724,-5.326322138898831e-7
1738772343296357600,6.015357666015625,0.0013214604696258903,0.005073055624961853,0.00029055087361484766
1738772343306348500,6.0253486328125,0.0028903286438435316,0.003151318524032831,-0.00017417073831893504
1738772343316339700,6.035339599609375,0.0012093414552509785,0.0027324033435434103,0.0007659250986762345
1738772343326331600,6.04533154296875,0.0014554174849763513,0.0032597091048955917,0.00029348034877330065
1738772343336322800,6.05532275390625,-0.00042743736412376165,0.004637628793716431,-0.0007603325066156685
1738772343346313700,6.065313720703125,0.0016178702935576439,0.003367567202076316,-0.00011291803093627095
1738772343356304600,6.0753046875,-0.00044794369023293257,0.004051999654620886,0.0007912251749075949
1738772343366295600,6.085295654296875,0.002153165638446808,0.0031257520895451307,0.001437308033928275
1738772343376287700,6.095287841796875,0.000630636524874717,0.004177700728178024,0.00130947632715106
1738772343386278700,6.105278564453125,0.0009723200928419828,0.0040884846821427345,0.00044528054422698915
1738772343396269600,6.11526953125,-0.0006170544074848294,0.002868490759283304,-0.0009475527331233025
1738772343406260700,6.1252607421875,-0.00021917815320193768,0.003023753175511956,0.0006708502769470215
1738772343416251600,6.135251708984375,0.0008045409340411425,0.004217648413032293,-0.0003605920064728707
1738772343426242600,6.14524267578125,0.0016386429779231548,0.003769438248127699,0.00007776429993100464
1738772343436234800,6.15523486328125,0.0006061354652047157,0.0032051142770797014,0.0009629990672692657
1738772343446225700,6.1652255859375,0.00112465291749686,0.004442951641976833,0.00036964676110073924
1738772343456216600,6.175216552734375,0.0009725864510983229,0.003096990054473281,0.002153964713215828
1738772343466207700,6.185207763671875,-0.0001496696495451033,0.0032170985359698534,-0.0023315974976867437
1738772343476198700,6.19519873046875,-0.0011590076610445976,0.004910602699965239,-0.0005576659459620714
1738772343486190600,6.205190673828125,0.002912699244916439,0.0041097900830209255,0.0003832288784906268
1738772343496181800,6.215181640625,0.00023995080846361816,0.003495931625366211,-0.0008434231276623905
1738772343506172700,6.225172607421875,0.0027750139124691486,0.003471963107585907,0.0006183860241435468
1738772343516163600,6.23516357421875,0.0012082761386409402,0.0031433289404958487,0.0012490225490182638
1738772343526154800,6.24515478515625,-0.0010189254535362124,0.003847202518954873,0.000767523015383631
1738772343536145700,6.255145751953125,0.0016479641199111938,0.0038812910206615925,0.0005193164106458426
1738772343546137600,6.2651376953125,0.002198705682530999,0.004172640852630138,0.0005731122801080346
1738772343556128800,6.275128662109375,0.0004996090428903699,0.002980876248329878,-0.000811997801065445
1738772343566119700,6.28511962890625,0.0018421085551381111,0.004455734975636005,0.0007603325066156685
1738772343576110600,6.295110595703125,0.0001155811914941296,0.0031198931392282248,-0.00002370213405811228
1738772343586101800,6.305101806640625,0.0009070726810023189,0.004734035115689039,0.0015478292480111122
1738772343596093700,6.31509375,0.000862864195369184,0.0036629117093980312,0.0008000136003829539
1738772343606084600,6.325084716796875,0.000630902883131057,0.003995540551841259,-0.0003091930120717734
1738772343616075800,6.33507568359375,0.0019451729021966457,0.003961984533816576,0.0005486111622303724
1738772343626066700,6.345066650390625,0.0028306739404797554,0.0028104339726269245,-0.0007901599165052176
1738772343636057600,6.3550576171875,0.0005371595616452396,0.0028429245576262474,-0.00037523938226513565
1738772343646049800,6.3650498046875,0.001805623178370297,0.00284958234988153,0.0007946872501634061
1738772343656040700,6.375040771484375,0.001770469476468861,0.004113784991204739,0.0020298613235354424
1738772343666031600,6.385031494140625,0.0009361011325381696,0.003938815090805292,0.00004793690095539205
1738772343676022800,6.395022705078125,0.0015867113834246993,0.004551874939352274,-0.000176301269675605
1738772343686013700,6.405013671875,0.0012724583502858877,0.0025451830588281155,0.0016192019684240222
1738772343696004600,6.415004638671875,0.0007986819837242365,0.004781972151249647,-0.00024527712957933545
1738772343705996800,6.424996826171875,0.0026612968649715185,0.004291683901101351,0.0007193197961896658
1738772343715987700,6.43498779296875,0.001359543763101101,0.0032921996898949146,0.00014407701382879168
1738772343725978600,6.444978515625,0.0007337008719332516,0.0033776871860027313,-0.000618918624240905
1738772343735969800,6.4549697265625,0.0009211873984895647,0.0032410670537501574,0.00004261057620169595
1738772343745960700,6.464960693359375,0.0001930791768245399,0.0031377363484352827,0.001662877737544477
1738772343755952600,6.47495263671875,0.0005491438205353916,0.0037910097744315863,0.0000066579027588886674
1738772343765943800,6.48494384765625,0.0018245317041873932,0.0025385250337421894,0.001056209672242403
1738772343775934700,6.494934814453125,-0.0001968075957847759,0.004718588665127754,-0.0005440838285721838
1738772343785925600,6.504925537109375,0.001151018193922937,0.0033103092573583126,0.0004319647268857807
1738772343795916500,6.51491650390625,0.0023667511995881796,0.0026059031952172518,0.000437291048001498
1738772343805907700,6.52490771484375,-0.00022184131375979632,0.00498224189504981,0.000045806369598722085
1738772343815899600,6.534899658203125,0.000464188982732594,0.0018522285390645266,0.002275671111419797
1738772343825890800,6.544890869140625,0.0013515542959794402,0.004251203965395689,-0.0016282566357403994
1738772343835881700,6.5548818359375,0.002088983543217182,0.004265318624675274,0.0018008295446634293
1738772343845872600,6.56487255859375,0.00012090751260984689,0.004897020757198334,0.0009552759001962841
1738772343855863600,6.574863525390625,0.0006719155353493989,0.003052515210583806,-0.00018189390539191663
1738772343865855700,6.584855712890625,0.0015286544803529978,0.0026786073576658964,0.0006844323943369091
1738772343875846700,6.5948466796875,0.0014357101172208786,0.0032530513126403093,-0.0007366303470917046
1738772343885837800,6.604837890625,0.0013020194601267576,0.0036253612488508224,-0.00005965480886516161
1738772343895828700,6.614828857421875,0.0033742249943315983,0.005037635564804077,-0.0005930859479121864
1738772343905819600,6.624819580078125,0.0008564725867472589,0.003975300583988428,-0.0005315669695846736
1738772343915811800,6.634811767578125,-0.0006668555433861911,0.0033401367254555225,-0.0005965480813756585
1738772343925802800,6.644802734375,0.0006988134700804949,0.00387276872061193,0.000603738590143621
1738772343935793700,6.654793701171875,-0.00027856664382852614,0.002463157754391432,0.00030652983696199954
1738772343945784600,6.66478466796875,0.0017070862231776118,0.003948668949306011,0.0006221143994480371
1738772343955775700,6.674775634765625,0.0028996497858315706,0.004250937607139349,-0.0007158577209338546
1738772343965766700,6.6847666015625,0.00030599720776081085,0.004559864290058613,-0.0010894992155954242
1738772343975758800,6.6947587890625,0.0003427488263696432,0.003635747591033578,-0.0002950782363768667
1738772343985749800,6.704749755859375,0.0006231797160580754,0.0028850024100393057,-0.00009241169027518481
1738772343995740700,6.71474072265625,0.0002205097407568246,0.0030868700705468655,-0.00003062635369133204
1738772344005731600,6.724731689453125,0.0016016251174733043,0.004130030050873756,0.0017776599852368236
1738772344015722800,6.73472265625,0.0013022858183830976,0.004381699021905661,-0.0004546015989035368
1738772344025714700,6.744714599609375,0.0036914076190441847,0.00404640706256032,0.0012463594321161509
1738772344035705600,6.75470556640625,0.00034221619716845453,0.004930576309561729,0.0006000102148391306
1738772344045696800,6.76469677734375,0.0004492752777878195,0.004910869058221579,0.0011028150329366326
1738772344055687700,6.774687744140625,0.003335076617076993,0.002936667762696743,0.0007922904333099723
1738772344065678600,6.7846787109375,0.0008878979133442044,0.0028008464723825455,0.0008498146780766547
1738772344075669800,6.794669677734375,0.00015526228526141495,0.003281813347712159,0.00028309403569437563
1738772344085661700,6.80466162109375,0.001207743538543582,0.0034163030795753,0.0008514125947840512
1738772344095652600,6.814652587890625,0.0015488944482058287,0.003997670952230692,0.0005030711181461811
1738772344105643800,6.824643798828125,0.00041864890954457223,0.004198207054287195,0.0007022755453363061
1738772344115634700,6.834634765625,0.0011414308100938797,0.0037175065372139215,0.00006205165118444711
1738772344125625600,6.84462548828125,-0.0001579254458192736,0.0025329324416816235,0.0009105347562581301
1738772344135617800,6.85461767578125,0.0023156185634434223,0.002725212834775448,0.0018045579781755805
1738772344145608700,6.864608642578125,0.001079645473510027,0.004804076161235571,-0.000006125270374468528
1738772344155599600,6.874599609375,0.0007014766451902688,0.004083158448338509,0.0016479641199111938
1738772344165590800,6.8845908203125,0.001999235013499856,0.0021526331547647715,-0.00020213393145240843
1738772344175581700,6.894581787109375,0.001156877144239843,0.004203533288091421,0.0008676578872837126
1738772344185573600,6.90457373046875,0.0020730046089738607,0.004747350700199604,-0.00024980452144518495
1738772344195564800,6.914564697265625,0.0013201289111748338,0.0032658344134688377,0.0012532835826277733
1738772344205555000,6.924554931640625,0.001175252953544259,0.003366768127307296,-0.00015872440417297184
1738772344215545900,6.9345458984375,0.002104163635522127,0.004869057331234217,0.00043516053119674325
1738772344225536800,6.944536865234375,0.001711081014946103,0.0043958136811852455,0.0003632551815826446
1738772344235528000,6.95452783203125,0.0018306568963453174,0.004077565856277943,0.0005611280212178826
1738772344245520000,6.964519775390625,-0.0004961469094268978,0.0044381581246852875,0.0019097528420388699
1738772344255510800,6.9745107421875,0.000660463934764266,0.004562793765217066,0.001341966912150383
1738772344265502000,6.984501953125,0.0013382384786382318,0.0029848709236830473,-0.00035606464371085167
1738772344275492900,6.994492919921875,0.0015765913994982839,0.003320162883028388,-0.0008130630594678223
1738772344285483800,7.00448388671875,0.0010338390711694956,0.00469515286386013,0.00003861583536490798
1738772344295476000,7.01447607421875,0.002984072081744671,0.00341523764654994,0.001472461735829711
1738772344305467000,7.024466796875,-0.00041252365917898715,0.0030341395176947117,0.001261273049749434
1738772344315457800,7.034457763671875,0.0012367720482870936,0.0034669029992073774,0.00017417073831893504
1738772344325449000,7.044448974609375,0.0009648632840253413,0.004336158744990826,-0.00011584750609472394
1738772344335440000,7.05443994140625,0.002561694709584117,0.002154231071472168,0.0008096009842120111
1738772344345432000,7.06443212890625,0.0002181128947995603,0.0038634478114545345,0.0002372876479057595
1738772344355423000,7.074423095703125,0.0010644654976204038,0.0030634342692792416,-0.0006641923682764173
1738772344365414000,7.084413818359375,0.0016929714474827051,0.004070907831192017,0.001056209672242403
1738772344375404800,7.09440478515625,0.0006868292111903429,0.0025592977181077003,0.00021518341964110732
1738772344385396000,7.10439599609375,0.0007949535502120852,0.00464615086093545,0.0000601874417043291
1738772344395387000,7.114386962890625,0.0007057376787997782,0.004032026045024395,0.000898550555575639
1738772344405378800,7.12437890625,0.0005313006113283336,0.005273059010505676,0.0004271710349712521
1738772344415370000,7.134369873046875,0.0003203782835043967,0.004513525404036045,-0.0008636631537228823
1738772344425361000,7.14436083984375,0.00170788518153131,0.005245361942797899,0.00043995422311127186
1738772344435351800,7.154351806640625,0.00001651159800530877,0.0037257622461766005,-0.0001155811914941296
1738772344445343000,7.164343017578125,0.0021973741240799427,0.003766242414712906,0.0008000136003829539
1738772344455335000,7.1743349609375,0.0017369136912748218,0.0026557042729109526,0.0022895196452736855
1738772344465325800,7.184325927734375,0.0013619405217468739,0.003031476167961955,-0.00039760995423421264
1738772344475317000,7.19431689453125,0.003177683800458908,0.003975300583988428,0.0016279903938993812
1738772344485308000,7.204307861328125,0.0018738001817837358,0.0043444144539535046,-0.0013195963110774755
1738772344495298800,7.214298828125,0.000895621080417186,0.00433136522769928,0.000883636821527034
1738772344505291000,7.224291015625,0.002040247665718198,0.0035004590172320604,-0.0006303702248260379
1738772344515282000,7.234281982421875,0.0015211976133286953,0.0038314899429678917,-0.0004972121678292751
1738772344525272800,7.24427294921875,0.0005813680472783744,0.003777960315346718,0.0024058998096734285
1738772344535264000,7.254263916015625,0.002828276949003339,0.003233077470213175,0.00036432043998502195
1738772344545255000,7.2642548828125,0.0007683219737373292,0.0035302862524986267,0.0003866909828502685
1738772344555245800,7.274245849609375,0.0006846986943855882,0.0037643781397491693,0.0008799084462225437
1738772344565238000,7.284238037109375,-0.00008841694943839684,0.004129231441766024,0.00044554684427566826
1738772344575229000,7.29422900390625,0.00036485306918621063,0.004258128348737955,-0.000477504770969972
1738772344585219800,7.3042197265625,0.002740659052506089,0.0027422569692134857,0.0007382282637991011
1738772344595211000,7.3142109375,0.002409361768513918,0.004530303180217743,0.00005459480235003866
1738772344605202000,7.324201904296875,0.0006769755273126066,0.004821120295673609,0.00042317630141042173
1738772344615193900,7.33419384765625,0.0012679309584200382,0.003022421384230256,0.0008849684381857514
1738772344625185000,7.34418505859375,0.0008652610122226179,0.0038107172586023808,-0.0004346278728917241
1738772344635176000,7.354176025390625,0.0012239888310432434,0.004824848845601082,0.0002247707889182493
1738772344645166800,7.364166748046875,0.0011435613268986344,0.0035033884923905134,-0.0003866909828502685
1738772344655158000,7.374157958984375,-0.00005379585491027683,0.0025473134592175484,-0.0006612628931179643
1738772344665150000,7.38414990234375,0.0028815402183681726,0.003965446725487709,0.001151284552179277
1738772344675140900,7.394140869140625,0.001371794263832271,0.0037473340053111315,0.0012988236267119646
1738772344685132000,7.404132080078125,0.002026399364694953,0.003064233111217618,0.0001840244367485866
1738772344695123000,7.414123046875,0.0014897723449394107,0.0021696772892028093,-0.0010000169277191162
1738772344705113900,7.42411376953125,0.00038456046604551375,0.0037521275226026773,0.0015931029338389635
1738772344715106000,7.43410595703125,0.002031459240242839,0.005041630007326603,-0.0006343649583868682
1738772344725097000,7.444096923828125,0.0006146575906313956,0.004403270315378904,0.000428502622526139
1738772344735087900,7.454087890625,0.0008705873624421656,0.002837598090991378,0.0014839133946225047
1738772344745079000,7.4640791015625,0.0005275722360238433,0.005530586466193199,-0.0010298443958163261
1738772344755070000,7.474070068359375,0.0018192053539678454,0.003573962254449725,-0.00037923414492979646
1738772344765060900,7.484060791015625,0.00006471481174230576,0.005121258553117514,-0.00042743736412376165
1738772344775053000,7.494052978515625,0.0018192053539678454,0.0046362970024347305,0.0021057615522295237
1738772344785044000,7.5040439453125,0.00013209278404247016,0.0035201662685722113,-0.00048176583368331194
1738772344795035000,7.514034912109375,0.0020849888678640127,0.003406981937587261,0.00022157499915920198
1738772344805025800,7.52402587890625,0.0007800398743711412,0.0041308291256427765,0.00020506340661086142
1738772344815017000,7.534016845703125,0.003347060875967145,0.0032439965289086103,0.0005669869715347886
1738772344825009000,7.5440087890625,0.00031638352083973587,0.003090598387643695,0.0011550129856914282
1738772344835000000,7.554,0.0006889597862027586,0.003916711080819368,-0.00008149272616719827
1738772344844991000,7.563990966796875,0.00044847631943412125,0.0043798345141112804,0.0000021305288555595325
1738772344854982000,7.57398193359375,0.0006617955514229834,0.004309527110308409,-0.0010626012226566672
1738772344864972800,7.583972900390625,-0.0012570120161399245,0.004461061209440231,-0.0009725864510983229
1738772344874965000,7.593965087890625,0.0014503574930131435,0.004550809506326914,-0.00031904669594950974
1738772344884956000,7.603955810546875,-0.0009856359101831913,0.0028418591246008873,-0.00046578687033616006
1738772344894946800,7.61394677734375,-0.00013209278404247016,0.0038549257442355156,-0.000008788431841821875
1738772344904938000,7.62393798828125,0.00010279801790602505,0.003326288191601634,0.0009856359101831913
1738772344914929000,7.633928955078125,0.0008420915110036731,0.004798749927431345,0.0017014936311170459
1738772344924919800,7.643919921875,0.00040080572944134474,0.0031819448340684175,0.00031318774563260376
1738772344934912000,7.653912109375,0.001407214323990047,0.0032533176708966494,-0.0006250438746064901
1738772344944903000,7.66390283203125,0.0020477045327425003,0.0037523938808590174,0.0008309062686748803
1738772344954893800,7.673893798828125,0.000782436749432236,0.0039175101555883884,0.00101146858651191
1738772344964885000,7.683885009765625,0.0004820321628358215,0.003183276392519474,-0.0007784419576637447
1738772344974876000,7.6938759765625,0.002971821464598179,0.002796319080516696,0.00013608753215521574
1738772344984867800,7.703867919921875,0.0023313311394304037,0.0031550468411296606,-0.0001310275256400928
1738772344994859000,7.71385888671875,0.0007371630053967237,0.002272208919748664,0.0006178533658385277
1738772345004850000,7.723849853515625,0.0015140071045607328,0.00324825756251812,0.00017683389887679368
1738772345014840800,7.7338408203125,0.0009126652730628848,0.0031904669012874365,0.0007131945458240807
1738772345024832000,7.74383203125,0.0015760586829856038,0.0044440170750021935,-0.0006860303110443056
1738772345034824000,7.753823974609375,0.0008588694618083537,0.004437359049916267,0.00022210762836039066
1738772345044814800,7.76381494140625,0.0007683219737373292,0.004881840664893389,-0.0004524710529949516
1738772345054806000,7.773805908203125,0.0025774072855710983,0.0034413367975503206,0.00047830372932367027
1738772345064797000,7.783796875,0.0021289309952408075,0.004358263220638037,-0.0008223841432482004
1738772345074787800,7.793787841796875,0.0026317357551306486,0.005379851907491684,-0.0013041499769315124
1738772345084779000,7.803779052734375,0.0004170510219410062,0.0033220271579921246,0.0008045409340411425
1738772345094771000,7.81377099609375,0.001663410454057157,0.004680239129811525,0.00014913702034391463
1738772345104761900,7.823761962890625,0.002746518002822995,0.00589597225189209,-0.001270327833481133
1738772345114753000,7.8337529296875,0.0016421051695942879,0.0035627768374979496,-0.0006562029011547565
1738772345124744000,7.843743896484375,0.0020961740519851446,0.00458622956648469,-0.0002324939559912309
1738772345134734800,7.85373486328125,0.0028703550342470407,0.004488757811486721,0.0013041499769315124
1738772345144727000,7.86372705078125,0.0014828480780124664,0.004728442523628473,-0.0006452839006669819
1738772345154718000,7.873718017578125,0.0025278725661337376,0.004467186518013477,-0.0004868258547503501
1738772345164708900,7.883708984375,0.002055960241705179,0.0052142031490802765,0.0009933591354638338
1738772345174700000,7.893699951171875,0.00012969593808520585,0.0030714236199855804,-0.0003270361921750009
1738772345184691000,7.90369091796875,0.0031100395135581493,0.0030690268613398075,0.0009179916232824326
1738772345194681900,7.913681884765625,0.000508663768414408,0.003864246653392911,0.000520647969096899
1738772345204674000,7.923674072265625,0.003931891173124313,0.0030807447619736195,-0.00037923414492979646
1738772345214665000,7.9336650390625,0.003117762738838792,0.002167813014239073,0.0003249056462664157
1738772345228403000,7.94740283203125,0.0023582291323691607,0.004004328977316618,0.00033396040089428425
1738772345238394000,7.95739404296875,0.0014887070283293724,0.0019947076216340065,0.0007701861904934049
1738772345248385000,7.967385009765625,0.0021662150975316763,0.00458729499951005,-0.0013403689954429865
1738772345258377000,7.977376953125,0.002005360322073102,0.0030772825703024864,0.0006628608098253608
1738772345268368100,7.9873681640625,0.0010924286907538772,0.0034226945135742426,0.00048416267964057624
1738772345278359000,7.997359130859375,0.0005179848521947861,0.004689027555286884,0.0017270599491894245
1738772345288350000,8.007349853515626,0.0019177423091605306,0.0025806031189858913,-0.0005315669695846736
1738772345298341000,8.017341064453126,0.00023302659974433482,0.003975034225732088,-0.0012522183824330568
1738772345308332800,8.027332763671875,0.0016783240716904402,0.0033870083279907703,0.0009707222343422472
1738772345318324000,8.037323974609375,0.0006404902087524533,0.0031071100383996964,0.0001675128296483308
1738772345328315100,8.047315185546875,0.0022945795208215714,0.004193147178739309,-0.00007243797881528735
1738772345338306000,8.05730615234375,0.0014588796766474843,0.004415520932525396,0.0005853627808392048
1738772345348297000,8.067296875,0.0005757753970101476,0.005362274590879679,-0.0003510046226438135
1738772345358288000,8.077287841796876,0.0011089402250945568,0.004019775427877903,-0.00022610237647313625
1738772345368279800,8.08727978515625,0.0010002832859754562,0.0035928706638514996,-0.0005459480453282595
1738772345378271000,8.09727099609375,0.0020000338554382324,0.004210990387946367,-0.0021526331547647715
1738772345388262100,8.10726220703125,0.002596848411485553,0.0025800704024732113,-0.0008349010022357106
1738772345398253000,8.117253173828125,0.002214152133092284,0.0038091193418949842,0.00023941817926242948
1738772345408244000,8.127243896484375,0.0017054883064702153,0.004188885912299156,0.002444781828671694
1738772345418236000,8.13723583984375,0.0021872541401535273,0.005013134330511093,0.00028309403569437563
1738772345428227000,8.14722705078125,0.0010210559703409672,0.003480485174804926,0.0009270463488064706
1738772345438218000,8.157218017578124,0.0013166668359190226,0.003625893732532859,0.0004974784678779542
1738772345448209000,8.167208984375,0.0014682007022202015,0.0034256239887326956,-0.00017976337403524667
1738772345458200000,8.177199951171875,-0.000059921123465755954,0.0040735709480941296,0.0014980280539020896
1738772345468191700,8.187191650390625,0.0006173207075335085,0.0036850159522145987,-0.0014684670604765415
1738772345478183000,8.197182861328125,0.0017188041238114238,0.005062402691692114,0.0009259810904040933
1738772345488174000,8.207174072265625,0.0012010856298729777,0.0024048343766480684,0.0015592807903885841
1738772345498165000,8.2171650390625,0.0007070692372508347,0.0036586506757885218,0.001651426195167005
1738772345508156000,8.227156005859374,0.0019001654582098126,0.003751861397176981,0.0008133294177241623
1738772345518147000,8.23714697265625,0.000006125270374468528,0.002100435085594654,0.0006673881434835494
1738772345528138800,8.247138671875,0.0005281048361212015,0.0036336169578135014,0.0019228023011237383
1738772345538130000,8.2571298828125,-0.00017683389887679368,0.00449727987870574,0.0001882854849100113
1738772345548121000,8.26712109375,0.0012128035305067897,0.004095941781997681,0.00013022858183830976
1738772345558112000,8.277112060546875,0.0019707391038537025,0.004518318921327591,0.0009299758239649236
1738772345568103000,8.28710302734375,0.0022245384752750397,0.004165450111031532,0.0009598032338544726
1738772345578094000,8.297093994140624,0.0010961571242660284,0.004721518140286207,-0.00018136126163881272
1738772345588085000,8.3070849609375,0.0012218583142384887,0.003296993440017104,-0.0012785836588591337
1738772345598077000,8.317076904296876,0.001502555445767939,0.004204332362860441,0.0006117281154729426
1738772345608068000,8.327068115234376,0.0004876247840002179,0.0038008634001016617,-0.0002993392990902066
1738772345618059000,8.33705908203125,0.0004106594424229115,0.003578755771741271,-0.0002969424531329423
1738772345628050000,8.3470498046875,0.0022058964241296053,0.0031372036319226027,0.00022983079543337226
1738772345638041000,8.357041015625,-0.0004878911131527275,0.006081860978156328,0.00010652644414221868
1738772345648033000,8.367032958984375,0.002645051572471857,0.0031915323343127966,0.0011195929255336523
1738772345658024000,8.37702392578125,0.002686596941202879,0.004801679402589798,0.0016234630020335317
1738772345668015000,8.38701513671875,0.0020690099336206913,0.004080761689692736,-0.00017603494052309543
1738772345678006000,8.397006103515626,0.0022418489679694176,0.004029628820717335,0.00013555490295402706
1738772345687997000,8.406996826171875,0.0013195963110774755,0.003356115659698844,0.0004189152386970818
1738772345697988900,8.41698876953125,0.0022719427943229675,0.004036286845803261,0.00014940333494450897
1738772345707980000,8.42697998046875,0.0015670040156692266,0.003034672001376748,0.0008580705034546554
1738772345717971000,8.436970947265625,0.0020514330826699734,0.002538258908316493,0.0007395598222501576
1738772345727962000,8.446962158203124,0.0008934905636124313,0.003960120491683483,0.00030360036180354655
1738772345737953000,8.456953125,0.00020586235041264445,0.004626177251338959,0.0003909520455636084
1738772345747944000,8.46694384765625,0.0014908375451341271,0.003683151677250862,0.00015153386630117893
1738772345757936000,8.47693603515625,0.0027212179265916348,0.003882356220856309,0.0005496764206327498
1738772345767927000,8.486927001953125,0.0007097324123606086,0.005024852231144905,0.0007779093575663865
1738772345777918000,8.49691796875,0.0022061625495553017,0.005285043269395828,-0.00011877698125317693
1738772345787909000,8.5069091796875,0.0005928196478635073,0.00404667342081666,-0.0005725796218030155
1738772345797900000,8.516900146484375,0.0003376888344064355,0.0038304245099425316,0.00009374327055411413
1738772345807892000,8.52689208984375,0.0011701929615810513,0.0037614486645907164,0.00009108010999625549
1738772345817883100,8.536883056640624,0.003762780223041773,0.005115665961056948,-0.0006527407676912844
1738772345827874000,8.5468740234375,0.0027715517207980156,0.0024112260434776545,0.0005155879771336913
1738772345837865000,8.556864990234375,0.00006764429417671636,0.004471980035305023,-0.00019361180602572858
1738772345847856000,8.566856201171875,0.0016940367640927434,0.0036826191935688257,-0.00016698020044714212
1738772345857847800,8.576847900390625,0.0017837852938100696,0.0034410704392939806,0.0011257182341068983
1738772345867839000,8.5868388671875,0.0010700580896809697,0.002514024032279849,-0.0015427692560479045
1738772345877830100,8.596830078125,0.0011534150689840317,0.003850398352369666,0.000713993504177779
1738772345887821000,8.606821044921874,-0.00020000340009573847,0.0037025928031653166,-0.00005193164179218002
1738772345897812000,8.61681201171875,0.0006258428329601884,0.003634682158008218,0.00047697214176878333
1738772345907804000,8.626803955078126,0.0007273092633113265,0.0033007217571139336,0.0005403553950600326
1738772345917794800,8.636794921875,0.0021702100057154894,0.004910602699965239,0.0005904228310100734
1738772345927786000,8.646785888671875,0.0023499734234064817,0.0036666402593255043,-0.000055926382628967986
1738772345937777200,8.656777099609375,0.0020423782989382744,0.0023853934835642576,0.001856489572674036
1738772345947768000,8.66676806640625,0.0020101540721952915,0.005173456855118275,-0.00003888214996550232
1738772345957759000,8.676759033203124,-0.0005022721597924829,0.004290618933737278,0.0010341054294258356
1738772345967751000,8.6867509765625,0.0010463559301570058,0.0023302659392356873,0.0005270395777188241
1738772345977742000,8.6967421875,0.00018082863243762404,0.002627208363264799,0.000040480048483004794
1738772345987733000,8.70673291015625,0.0020988371688872576,0.0029526466969400644,-0.00045593318645842373
1738772345997724000,8.716723876953125,-0.001454618526622653,0.0036517265252768993,-0.00021784658019896597
1738772346007715000,8.726715087890625,0.0011496866354718804,0.0039036613889038563,0.0007254450465552509
1738772346017706800,8.736706787109375,0.0006548712844960392,0.003683684393763542,-0.00005805691034765914
1738772346027698000,8.746697998046875,0.0018788601737469435,0.003674097126349807,0.0012175972806289792
1738772346037689000,8.756689208984374,0.0013683321885764599,0.0033039175905287266,-0.0006862966110929847
1738772346047680000,8.766679931640626,0.0023004384711384773,0.004930043593049049,0.0013164004776626825
1738772346057671000,8.7766708984375,0.001169394003227353,0.00373028963804245,-0.0006729807937517762
1738772346067662800,8.786662841796876,0.0006841660942882299,0.004941495135426521,-0.0005161206354387105
1738772346077653800,8.79665380859375,0.0008996158139780164,0.003887948812916875,-0.00046152580762282014
1738772346087645000,8.80664501953125,-0.0007118629291653633,0.003855990944430232,0.0010639328975230455
1738772346097636000,8.816635986328125,0.0006884271278977394,0.003689010627567768,0.0007566040731035173
1738772346107627000,8.826626953125,0.0014748586108908057,0.003177151083946228,0.00011611382069531828
1738772346117619000,8.836618896484374,0.0023702133912593126,0.004415520932525396,0.0006119944155216217
1738772346127609900,8.84660986328125,0.0012916331179440022,0.003674097126349807,0.0007310376968234777
1738772346137601000,8.85660107421875,0.0011326423846185207,0.0033859428949654102,0.0004215783847030252
1738772346147592000,8.866592041015625,0.0002873550693038851,0.003756921272724867,0.0005635248962789774
1738772346157583000,8.8765830078125,0.0012721919920295477,0.004084223881363869,0.001076715998351574
1738772346167574800,8.88657470703125,0.0010269149206578732,0.0038575888611376286,-0.001386175281368196
1738772346177565700,8.896565673828125,0.0013851100811734796,0.004444549325853586,0.0012405004817992449
1738772346187556900,8.906556884765624,0.0015464976895600557,0.003213636577129364,-0.00007909588020993397
1738772346197548000,8.916548095703124,0.0020652813836932182,0.0031550468411296606,-0.000026365294615970924
1738772346207539500,8.92653955078125,0.000027430558475316502,0.0031092404387891293,0.0008703210623934865
1738772346217530400,8.9365302734375,0.0017299894243478775,0.003334543900564313,0.0008668589289300144
1738772346227522600,8.9465224609375,0.001996305538341403,0.004641090985387564,0.00041278995922766626
1738772346237513500,8.956513427734375,0.0016197345685213804,0.0046299053356051445,-0.0003278351214248687
1738772346247504400,8.96650439453125,0.002290851203724742,0.0037587855476886034,-0.00027537086862139404
1738772346257495600,8.97649560546875,0.0016378440195694566,0.002909237053245306,0.0013659353135153651
1738772346267486500,8.986486572265624,0.0006894923863001168,0.0049436260014772415,0.0006924218614585698
1738772346277478400,8.996478515625,0.001957423286512494,0.004452006425708532,0.00004394215648062527
1738772346287469600,9.006469482421876,0.0013321131700649858,0.0029023129027336836,0.0017536915838718414
1738772346297460500,9.01646044921875,0.0018077536951750517,0.0034999263007193804,0.00024048343766480684
1738772346307451400,9.026451416015625,0.001347559504210949,0.002721750643104315,0.001487641828134656
1738772346317442600,9.036442626953125,0.0005502090789377689,0.004466121084988117,0.0009427590412087739
1738772346327434500,9.0464345703125,0.0023001721128821373,0.004014449194073677,0.0013787185307592154
1738772346337425400,9.05642529296875,0.0010008158860728145,0.00401551416143775,0.0010663296561688185
1738772346347416600,9.06641650390625,0.000728907180018723,0.004052532371133566,-0.0006815029191784561
1738772346357407500,9.076407470703124,0.001017061178572476,0.0027257453184574842,0.0013579458463937044
1738772346367398400,9.0863984375,0.001461010193452239,0.003085005795583129,-0.0008029430755414069
1738772346377390600,9.096390625,0.0019025622168555856,0.0036637107841670513,-0.0006617955514229834
1738772346387381500,9.106381591796875,0.0019587550777941942,0.0036136433482170105,0.0009691243176348507
1738772346397372400,9.116372314453125,0.0020692760590463877,0.0022690133191645145,-0.0003230414295103401
1738772346407363600,9.126363525390625,0.0002133192028850317,0.004381166305392981,0.00032890037982724607
1738772346417354500,9.1363544921875,0.0008692557457834482,0.001919340225867927,0.0006125270738266408
1738772346427346400,9.146346435546874,0.002156361471861601,0.002858903491869569,0.0003989415417890996
1738772346437337600,9.156337646484374,0.0008098672842606902,0.0044083306565880775,0.0007659250986762345
1738772346447328500,9.16632861328125,0.0012314456980675459,0.0023467775899916887,-0.0006727144937030971
1738772346457319400,9.1763193359375,0.0011821772204712033,0.004803277086466551,0.0008088020258583128
1738772346467310600,9.186310546875,0.0032346753869205713,0.004267981741577387,0.0009211873984895647
1738772346477301500,9.196301513671875,0.00042264367220923305,0.004581702407449484,-0.00008974852971732616
1738772346487293400,9.20629345703125,0.00044075315236113966,0.004893025849014521,-0.0008596684201620519
1738772346497284600,9.21628466796875,0.0014034858904778957,0.0030426615849137306,0.0001525991247035563
1738772346507275500,9.226275634765624,0.002121207769960165,0.004336957819759846,0.0008415589109063148
1738772346517266400,9.236266357421876,0.0018809906905516982,0.004637362435460091,0.0001512675517005846
1738772346527257300,9.24625732421875,0.00155288923997432,0.003606186481192708,0.0019209380261600018
1738772346537249500,9.25624951171875,0.0001280980504816398,0.0034469293896108866,0.0009539442835375667
1738772346547240400,9.266240478515625,0.0010101370280608535,0.004235757514834404,-0.0003174488083459437
1738772346557231600,9.276231689453125,0.0011438276851549745,0.003968642558902502,-0.0007456850726157427
1738772346567222500,9.286222412109375,0.00016218650853261352,0.004020840395241976,-0.00063383235828951
1738772346577213400,9.29621337890625,0.0019712718203663826,0.0032626385800540447,-0.00041758365114219487
1738772346587205600,9.30620556640625,0.0006993460701778531,0.0035087147261947393,-0.0006245112745091319
1738772346597196500,9.316196533203126,-0.0004809668753296137,0.0027233485598117113,-0.0006210491410456598
1738772346607187500,9.3261875,-0.000015978966985130683,0.0030208237003535032,-0.0007070692372508347
1738772346617178400,9.336178466796875,0.004627774935215712,0.005461610853672028,-0.0004974784678779542
1738772346627169500,9.34616943359375,0.0018255969043821096,0.0031960594933480024,-0.0004844290087930858
1738772346637161500,9.356161376953125,0.001975799212232232,0.0036629117093980312,-0.00018748654110822827
1738772346647152600,9.366152587890625,0.001975266495719552,0.003734018187969923,0.0005219795857556164
1738772346657143600,9.3761435546875,0.0022277343086898327,0.0035332157276570797,-0.0005893575726076961
1738772346667134500,9.386134521484376,0.0022533005103468895,0.005112736485898495,-0.00039468047907575965
1738772346677125400,9.39612548828125,-0.00005273058923194185,0.003575559938326478,0.000752875639591366
1738772346687116500,9.406116455078125,0.000907338981050998,0.004325506277382374,0.00035127095179632306
1738772346697108500,9.4161083984375,-0.0005992112564854324,0.00250576832331717,0.0003312972257845104
1738772346707099400,9.426099365234375,0.002368615474551916,0.004156661685556173,0.000025832661776803434
1738772346717090600,9.436090576171875,0.0008351673022843897,0.0033459956757724285,0.001728657865896821
1738772346727081500,9.44608154296875,0.0017632789677008986,0.005154814571142197,-0.001213868847116828
1738772346737072400,9.456072265625,0.001002680161036551,0.003841077210381627,0.001577123999595642
1738772346747064600,9.466064697265624,0.0031292142812162638,0.0051654670387506485,-0.0014391721924766898
1738772346757055500,9.476055419921876,-0.0001347559446003288,0.004279966000467539,0.00041545313433744013
1738772346767046400,9.48604638671875,0.0011049455497413874,0.004874117206782103,0.0007550061563961208
1738772346777037600,9.49603759765625,0.001580319833010435,0.004228567238897085,0.00024580975878052413
1738772346787028500,9.506028564453125,0.0013251889031380415,0.003367034485563636,0.0004644552827812731
1738772346797020400,9.5160205078125,0.00130947632715106,0.003227218519896269,-0.0011086739832535386
1738772346807011600,9.526011474609374,0.0011909656459465623,0.0036690370179712772,-0.00045380264054983854
1738772346817002500,9.53600244140625,0.0014884406700730324,0.004384894855320454,0.0009145294898189604
1738772346826993400,9.545993408203126,0.0017960357945412397,0.0031065773218870163,0.00010093380114994943
1738772346836984600,9.555984619140625,0.0019169433508068323,0.0046722497791051865,0.00007270430069183931
1738772346846975500,9.5659755859375,-0.00016484966909047216,0.004800081718713045,-0.0005701828049495816
1738772346856967400,9.575967529296875,0.0006881608278490603,0.0032988577149808407,0.0014000238152220845
1738772346866958600,9.58595849609375,0.00021118867152836174,0.0038714371621608734,0.0008170577930286527
1738772346876949500,9.595949462890625,0.0036133769899606705,0.003944940399378538,0.0007187871960923076
1738772346886940400,9.6059404296875,0.0011496866354718804,0.0026314693968743086,0.0013965616235509515
1738772346896931600,9.615931640625,0.0011028150329366326,0.004817658569663763,0.0005195827106945217
1738772346906923500,9.625923583984376,-0.00002210423735959921,0.00384374032728374,0.0006804376607760787
1738772346916914400,9.63591455078125,0.00006311691686278209,0.0034120420459657907,0.0016101471846923232
1738772346926905600,9.645905517578125,0.0011355718597769737,0.004048271104693413,-0.0005912217311561108
1738772346936896500,9.655896484375,0.0006471481174230576,0.0030692932195961475,-0.0015720640076324344
1738772346946887400,9.665887451171875,0.0023694143164902925,0.0037987329997122288,0.0004588626616168767
1738772346956879600,9.675879638671875,0.0012580773327499628,0.0029763488564640284,-0.0006093312404118478
1738772346966870500,9.68587060546875,0.0017041567480191588,0.004475442226976156,0.0004948153509758413
1738772346976861400,9.695861328125,0.0001757686259225011,0.003531617810949683,-0.0007414240390062332
1738772346986852600,9.7058525390625,0.002228799508884549,0.003838147735223174,-0.0009709885343909264
1738772346996843500,9.715843505859375,0.0005693838465958834,0.003418699838221073,0.0009472863748669624
1738772347006835500,9.72583544921875,0.0009741843095980585,0.0036517265252768993,0.0011792477453127503
1738772347016826600,9.73582666015625,0.0021347899455577135,0.0035896748304367065,0.001651692553423345
1738772347026817500,9.745817626953125,0.0015662050573155284,0.002712429501116276,0.0016354472609236836
1738772347036808400,9.755808349609374,0.0019710054621100426,0.003658917034044862,0.0004444815858732909
1738772347046799600,9.765799560546874,0.0018463695887476206,0.005375590641051531,0.00015819176041986793
1738772347056790500,9.77579052734375,0.0009155947482213378,0.004483964294195175,0.000025300030756625347
1738772347066782500,9.785782470703126,0.0005464806454256177,0.004426972474902868,0.0000428768944402691
1738772347076773600,9.795773681640625,0.003166232258081436,0.0038043255917727947,-0.00038962045800872147
1738772347086764500,9.8057646484375,0.00021491710504051298,0.003999269101768732,0.0012088088551536202
1738772347096755500,9.81575537109375,0.0000881506348378025,0.004923119675368071,0.0008721852791495621
1738772347106746400,9.825746337890624,0.002769953804090619,0.003213103860616684,0.0008258462767116725
1738772347116738600,9.835738525390624,0.001243962557055056,0.0040914141573011875,0.0014716627774760127
1738772347126729500,9.8457294921875,0.00025300029665231705,0.002441585995256901,0.0015536881983280182
1738772347136720600,9.855720703125,0.0022455775178968906,0.0032314795535057783,0.001365402713418007
1738772347146711600,9.865711669921875,0.0012253203894942999,0.004171309061348438,0.0010330402292311192
1738772347156702500,9.875702392578125,0.0011430287268012762,0.00364719913341105,-0.00042504051816649735
1738772347166693400,9.885693359375,-0.0011920308461412787,0.0023007048293948174,0.0013941648649051785
1738772347176685600,9.895685546875,0.001966478070244193,0.0036583843175321817,0.0009510148083791137
1738772347186676500,9.905676513671875,0.0009472863748669624,0.003694869577884674,-0.0016564861871302128
1738772347196667400,9.91566748046875,0.0022807312197983265,0.0032149681355804205,0.0018005631864070892
1738772347206658300,9.925658203125,0.00041092574247159064,0.003910053055733442,0.0007741809240542352
1738772347216649500,9.9356494140625,0.0027153589762747288,0.0036453348584473133,0.0010098706698045135
1738772347226641400,9.945641357421875,0.0020485036075115204,0.0027166905347257853,0.0004689826746471226
1738772347236632600,9.955632568359375,0.002332130214199424,0.005055745132267475,0.0004183826094958931
1738772347246623500,9.96562353515625,0.000788561999797821,0.0033989925868809223,-0.0002492718631401658
1738772347256614400,9.975614501953125,-0.0009693906176835299,0.005148156546056271,-0.00027856664382852614
1738772347266605300,9.985605224609374,0.0009494169498793781,0.004171042703092098,0.0008972189389169216
1738772347276597500,9.995597412109374,0.0006926882197149098,0.003769704606384039,-0.000391218374716118
1738772347286588400,10.00558837890625,0.0011803129455074668,0.004559864290058613,-0.000559263804461807
1738772347296579300,10.015579345703125,0.0034016557037830353,0.0023451796732842922,-0.0001496696495451033
1738772347306570500,10.025570556640625,0.0013230583863332868,0.0028306739404797554,-0.00035926041891798377
1738772347316561400,10.0355615234375,0.0035422705113887787,0.0035300198942422867,0.000916393706575036
1738772347326553600,10.0455537109375,0.0014183996245265007,0.004240285139530897,0.0000958738019107841
1738772347336544500,10.05554443359375,0.0013233247445896268,0.003154247999191284,0.00011105381418019533
1738772347346535400,10.065535400390624,0.0007531419396400452,0.0015704660909250379,0.00023755396250635386
1738772347356526300,10.0755263671875,0.0014266553334891796,0.0029001825023442507,0.0006375607335940003
1738772347366517500,10.085517578125,0.0017204020405188203,0.0023704797495156527,-0.0002378202771069482
1738772347376508400,10.09550830078125,0.0021883193403482437,0.0038927425630390644,0.0005938849062658846
1738772347386500400,10.105500244140625,0.0019118833588436246,0.0033691651187837124,0.00026525085559114814
1738772347396491500,10.115491455078125,-0.00004447478931979276,0.0030123014003038406,-0.0010378338629379869
1738772347406482400,10.125482421875,0.001110005541704595,0.004836300387978554,0.00018269284919369966
1738772347416473300,10.135473388671874,0.0007709851488471031,0.003204315435141325,0.0002378202771069482
1738772347426464500,10.145464599609374,0.002019208623096347,0.002240517409518361,0.0007379619055427611
1738772347436456400,10.15545654296875,0.0020865867845714092,0.0018247979460284114,0.000547279603779316
1738772347446447400,10.165447265625,-0.0001627191377338022,0.004098338540643454,-0.000070307454734575
1738772347456438500,10.1754384765625,0.0017984326696023345,0.003775297198444605,0.0005848301807418466
1738772347466429400,10.185429443359375,0.0021164140198379755,0.002686330582946539,0.0005281048361212015
1738772347476420400,10.19542041015625,0.0014942996203899384,0.0043619913049042225,0.00020506340661086142
1738772347486412500,10.20541259765625,0.0007134608458727598,0.004248008131980896,0.00013662016135640442
1738772347496403500,10.215403564453124,0.0014538196846842766,0.004671717062592506,-0.0003398193512111902
1738772347506394400,10.225394287109374,0.0009552759001962841,0.0033563817851245403,0.0008333030855283141
1738772347516385500,10.235385498046876,0.00213612150400877,0.004156128969043493,-0.00033955302205868065
1738772347526376400,10.24537646484375,0.002126800362020731,0.0041276332922279835,0.0010343717876821756
1738772347536367400,10.255367431640625,0.0006849650526419282,0.0034461303148418665,0.00098190747667104
1738772347546359600,10.265359619140625,-0.0008098672842606902,0.003153715282678604,-0.00034594463068060577
1738772347556350500,10.2753505859375,0.0017749968683347106,0.002826146548613906,-0.0012575446162372828
1738772347566341400,10.28534130859375,0.0001400822657160461,0.004171309061348438,0.00020985709852539003
1738772347576332500,10.29533251953125,0.00020532972121145576,0.0039020637050271034,0.001785383210517466
1738772347586323500,10.305323486328126,0.0010511496802791953,0.003495398908853531,-0.0014149374328553677
1738772347596315400,10.3153154296875,0.0021028320770710707,0.004238154739141464,0.00009454221435589716
1738772347606306600,10.325306640625,0.0030085730832070112,0.0038634478114545345,0.00011424961121520028
1738772347616297500,10.33529736328125,0.0018346516881138086,0.004342550411820412,-0.000865793670527637
1738772347626288400,10.345288330078125,0.0007656587986275554,0.003858387703076005,0.0002711098059080541
1738772347636279600,10.355279541015625,0.0005438174703158438,0.003436809405684471,-0.00041012681322172284
1738772347646271500,10.365271484375,0.0021065603941679,0.004521781112998724,0.0001757686259225011
1738772347656262400,10.375262451171874,0.0023289343807846308,0.003727626521140337,0.0006684534018859267
1738772347666253600,10.385253662109376,0.0030312100425362587,0.0033004553988575935,-0.0006982808117754757
1738772347676244500,10.395244384765626,0.0003632551815826446,0.0029933929909020662,-0.0005350290448404849
1738772347686235400,10.4052353515625,0.0017036241479218006,0.0034445326309651136,0.0017504957504570484
1738772347696226300,10.415226318359375,0.00022264027211349458,0.0033390712924301624,0.0010034791193902493
1738772347706218500,10.425218505859375,0.0011880361707881093,0.0036067189648747444,-0.0005677859298884869
1738772347716209400,10.43520947265625,0.0003350256592966616,0.004553738981485367,0.001109739183448255
1738772347726200600,10.44520068359375,0.0011195929255336523,0.0027507790364325047,0.0007326356135308743
1738772347736191500,10.45519140625,0.0028277444653213024,0.0032708945218473673,0.0010045443195849657
1738772347746182400,10.465182373046876,0.0020602215081453323,0.0031614385079592466,0.0010420948965474963
1738772347756174600,10.475174560546876,0.0021973741240799427,0.0034384073223918676,-0.0007430219557136297
1738772347766165500,10.48516552734375,0.001558748190291226,0.00264851376414299,0.0008620652370154858
1738772347776156400,10.495156494140625,0.0013946974650025368,0.0025806031189858913,0.0003296993381809443
1738772347786147300,10.505147216796875,0.0017022925894707441,0.003579554846510291,0.0009379653492942452
1738772347796138500,10.515138427734374,0.0015185344964265823,0.0027779433876276016,0.00013875069271307439
1738772347806130400,10.52513037109375,0.00022530343267135322,0.003403253620490432,-0.0016905746888369322
1738772347816121600,10.53512158203125,0.0014538196846842766,0.0036514601670205593,0.0005776396137662232
1738772347826112500,10.545112548828126,0.0016234630020335317,0.004932973068207502,-0.00045673211570829153
1738772347836103400,10.555103515625,0.0014833806781098247,0.003909520339220762,-0.0006892260862514377
1738772347846094300,10.56509423828125,0.002662628423422575,0.003439472522586584,0.00034461304312571883
1738772347856085500,10.57508544921875,0.001716939965263009,0.004424575716257095,-0.00013901700731366873
1738772347866077400,10.585077392578125,0.0020700751338154078,0.003982490859925747,-0.0011377023765817285
1738772347876068400,10.595068359375,0.00177899154368788,0.00433029979467392,0.0006317017832770944
1738772347886059500,10.6050595703125,0.0009414274245500565,0.0038280277512967587,-0.0016674051294103265
1738772347896050400,10.615050537109376,0.0001805623178370297,0.00452737370505929,-0.0004471447318792343
1738772347906041300,10.625041259765625,0.00043995422311127186,0.0031550468411296606,-0.000182959163794294
1738772347916033500,10.635033447265625,-0.00043542683124542236,0.005081311333924532,0.001546763931401074
1738772347926024400,10.6450244140625,0.0008335694437846541,0.003862116253003478,0.0003014698449987918
1738772347936015400,10.655015380859375,0.0014349111588671803,0.005029379855841398,0.0015640745405107737
1738772347946006500,10.665006591796875,0.0013353090034797788,0.004003529902547598,0.0009366337326355278
1738772347955997400,10.67499755859375,0.0012809804175049067,0.00336090917699039,0.0015970977256074548
1738772347965989400,10.6849892578125,0.0020871192682534456,0.0028280108235776424,-0.003192064817994833
1738772347975980500,10.69498046875,0.0016924388473853469,0.004534298088401556,-0.000045273736759554595
1738772347985971500,10.704971435546875,0.000657534459605813,0.0025784724857658148,0.00015100123709999025
1738772347995962400,10.71496240234375,0.0013757890556007624,0.0035273567773401737,-0.0005933523061685264
1738772348005953500,10.72495361328125,0.00007004113285802305,0.00449807895347476,-0.0010902981739491224
1738772348015944400,10.7349443359375,0.002317216480150819,0.0031103058718144894,0.0016788567882031202
1738772348025936400,10.744936279296875,0.0008375641773454845,0.005554821342229843,0.00017976337403524667
1738772348035927600,10.754927490234374,0.00044900894863530993,0.0032658344134688377,-0.00015393071225844324
1738772348045918500,10.76491845703125,0.0025244103744626045,0.003893807763233781,-0.001597363967448473
1738772348055909400,10.774909423828126,0.0011877698125317693,0.002672215923666954,0.0002801645314320922
1738772348065900500,10.784900634765625,0.001972869737073779,0.003424825146794319,0.0016266588354483247
1738772348075892500,10.794892578125,0.001100950757972896,0.0018514295807108283,0.0011685950448736548
1738772348085883400,10.80488330078125,0.002828276949003339,0.005256014876067638,-0.0002926813904196024
1738772348095874600,10.81487451171875,0.0006018743733875453,0.0029462550301104784,0.0006745787104591727
1738772348105865500,10.824865478515624,0.0018967032665386796,0.0042144525796175,-0.0012343751732259989
1738772348115856400,10.8348564453125,0.0019742012955248356,0.004048803821206093,-0.0007044061203487217
1738772348125848600,10.8448486328125,0.0019837887957692146,0.0033518546260893345,0.0006767092272639275
1738772348135839500,10.854839599609376,0.001912948559038341,0.004612594842910767,0.0011467571603134274
1738772348145830400,10.864830322265625,0.002728142309933901,0.00418515782803297,0.0007621967233717442
1738772348155821600,10.874821533203125,0.002603506203740835,0.002261556452140212,0.00022796659322921187
1738772348165812500,10.8848125,0.0016900419723242521,0.0029984530992805958,-0.00042504051816649735
1738772348175803400,10.894803466796875,0.0017214673571288586,0.004298341926187277,-0.0000900148443179205
1738772348185795600,10.904795654296874,0.002275671111419797,0.0046269758604466915,-0.0015853798249736428
1738772348195786500,10.914786376953124,0.002031725598499179,0.004312989301979542,-0.0002820287481881678
1738772348205777200,10.924777099609376,0.0015590144321322441,0.0034815503749996424,0.00014807176194153726
1738772348215768000,10.93476806640625,0.0009685916593298316,0.002641855739057064,0.0017326525412499905
1738772348225759000,10.944759033203125,0.002183792181313038,0.004299673717468977,0.00115394766908139
1738772348235751200,10.954751220703125,0.0013081447687000036,0.003322825999930501,-0.0007448861724697053
1738772348245742000,10.9647421875,0.0011531487107276917,0.004555337131023407,0.00005246427463134751
1738772348255733000,10.97473291015625,0.002389121800661087,0.00333134806714952,-0.0008016114588826895
1738772348265724000,10.984723876953124,0.001990979304537177,0.003754524514079094,0.0004218447138555348
1738772348275715000,10.994715087890626,0.00112438655924052,0.003546797903254628,0.0013827132061123848
1738772348285707000,11.00470703125,0.0007009439868852496,0.004026699345558882,-0.0008127967594191432
1738772348295698200,11.0146982421875,0.0003557983145583421,0.004050135146826506,0.000907338981050998
1738772348305689000,11.024689208984375,0.0009483516332693398,0.00478516798466444,0.0005760417552664876
1738772348315680000,11.034679931640625,0.001847434788942337,0.005616073962301016,0.00039068571641109884
1738772348325671000,11.0446708984375,0.0009174589649774134,0.0032738239970058203,-0.0010058758780360222
1738772348335662000,11.054662109375,0.0029643645975738764,0.003323092358186841,0.0011182613670825958
1738772348345654000,11.064654052734374,0.0007771103992126882,0.004356931429356337,-0.0007605988066643476
1738772348355645000,11.07464501953125,0.000251402409048751,0.004240551497787237,0.000035686356568476185
1738772348365636000,11.084635986328125,0.002240517409518361,0.00358860963024199,-0.000853809411637485
1738772348375627000,11.094626953125,0.0012500877492129803,0.004761465825140476,-0.001169127761386335
1738772348385618000,11.104617919921875,0.0018154769204556942,0.003509779926389456,-0.00007057376933516935
1738772348395610000,11.114610107421875,0.0015744607662782073,0.0035774242132902145,0.0010045443195849657
1738772348405601000,11.12460107421875,0.0027457191608846188,0.002320678671821952,0.0009622001089155674
1738772348415592000,11.134592041015624,0.0007965514669194818,0.004091148264706135,0.0006205165409483016
1738772348425583000,11.1445830078125,0.0026612968649715185,0.0028935244772583246,0.0003110571997240186
1738772348435574000,11.154573974609375,0.001823732745833695,0.004464789759367704,0.00042104575550183654
1738772348445566000,11.16456591796875,0.001389104756526649,0.0034943337086588144,0.0004340952436905354
1738772348455557000,11.17455712890625,0.001799764228053391,0.003999002743512392,-0.0020575581584125757
1738772348465548000,11.184548095703125,0.002414954360574484,0.0037771612405776978,0.0001613875647308305
1738772348475539000,11.1945390625,0.0008072041091509163,0.004564924165606499,-0.0004420847399160266
1738772348485530000,11.204530029296874,0.0007536745979450643,0.004526042379438877,-0.0006623281515203416
1738772348495521000,11.21452099609375,0.0002849582233466208,0.002195776207372546,-0.0003174488083459437
1738772348505513000,11.224512939453126,0.0006884271278977394,0.0034013893455266953,-0.000003994741746282671
1738772348515504000,11.234504150390626,0.0016767261549830437,0.004570517223328352,0.0007115966291166842
1738772348525495000,11.2444951171875,0.0006410228670574725,0.004211256746202707,-0.0017907095607370138
1738772348535486000,11.25448583984375,0.0027353328187018633,0.0040884846821427345,0.00101146858651191
1738772348545477000,11.26447705078125,0.0009379653492942452,0.0032530513126403093,0.00011398329661460593
1738772348555469000,11.274468994140625,0.0019086875254288316,0.004632302559912205,-0.0012540825409814715
1738772348565460000,11.2844599609375,0.00219551008194685,0.003710582386702299,0.00046845004544593394
1738772348575451100,11.294451171875,0.001008272753097117,0.0037760960403829813,0.00043329631444066763
1738772348585442000,11.304442138671876,-0.00041438787593506277,0.004354001954197884,0.00010865696822293103
1738772348595433000,11.314432861328125,-0.00013422331539914012,0.003222158644348383,0.0011582087026908994
1738772348605424000,11.324424072265625,0.002150236163288355,0.0038011297583580017,0.000032490566809428856
1738772348615416000,11.334416015625,0.0016940367640927434,0.003736148588359356,-0.000362988852430135
1738772348625407000,11.344406982421875,0.0018258632626384497,0.002288188086822629,-0.00048389637959189713
1738772348635398100,11.354398193359375,0.0013691311469301581,0.003959055058658123,0.00014807176194153726
1738772348645389000,11.36438916015625,0.0026114957872778177,0.003480485174804926,-0.0015342470724135637
1738772348655380000,11.3743798828125,-0.00018082863243762404,0.003329217666760087,0.0008080030675046146
1738772348665372200,11.3843720703125,0.00224957219325006,0.003977697342634201,-0.0005581985460594296
1738772348675363000,11.394363037109375,0.0007803061744198203,0.004566522315144539,0.0001382180635118857
1738772348685354000,11.40435400390625,0.0009574064170010388,0.00404454255476594,-0.000023435817638528533
1738772348695345200,11.41434521484375,0.0016503608785569668,0.003695135936141014,0.0011606055777519941
1738772348705336000,11.424336181640625,0.0011438276851549745,0.003893807763233781,0.0016737966798245907
1738772348715328000,11.434327880859374,0.0007076018955558538,0.0033816818613559008,0.0006727144937030971
1738772348725319200,11.444319091796874,0.001044491771608591,0.002945456188172102,0.0023816649336367846
1738772348735310000,11.45431005859375,0.0014689996605738997,0.003519101068377495,0.001193096162751317
1738772348745301000,11.464301025390625,0.0005603290628641844,0.004369182046502829,-0.00004873584839515388
1738772348755292000,11.4742919921875,0.0011595403775572777,0.0037409423384815454,-0.00006498113361885771
1738772348765283000,11.484282958984375,0.0010349043877795339,0.002719087526202202,-0.000004793690095539205
1738772348775275000,11.49427490234375,0.0005936186062172055,0.0035121769178658724,0.00009454221435589716
1738772348785266200,11.50426611328125,0.0011827098205685616,0.002645584288984537,0.001838646363466978
1738772348795257000,11.514257080078124,0.0012005530297756195,0.005154814571142197,0.0007241134881041944
1738772348805248000,11.524248046875,0.0015550197567790747,0.002885801251977682,0.0016245282022282481
1738772348815239000,11.534239013671876,0.000669518718495965,0.004007524810731411,-0.0011387676931917667
1738772348825231000,11.544231201171876,0.0005584649043157697,0.003707120195031166,0.0014239922165870667
1738772348835222000,11.554221923828125,0.0025031049735844135,0.004971588961780071,0.00019228023302275687
1738772348845213000,11.564212890625,0.002481799805536866,0.0035595810040831566,0.000176301269675605
1738772348855204000,11.5742041015625,0.0017723336350172758,0.003905792022123933,0.0017235978739336133
1738772348865195000,11.584195068359374,0.0009960222523659468,0.0030599720776081085,-0.0009893643436953425
1738772348875187200,11.594187255859374,0.0008878979133442044,0.004246410448104143,-0.0011142665753141046
1738772348885178000,11.60417822265625,0.0018647453980520368,0.004208060912787914,0.0005696501466445625
1738772348895169000,11.6141689453125,-0.0009691243176348507,0.0035582494456321,0.0010434264549985528
1738772348905160000,11.624159912109375,0.0005169195355847478,0.00347489258274436,-0.0011313108261674643
1738772348915151000,11.634151123046875,-0.0004902879591099918,0.002885801251977682,0.0003222425002604723
1738772348925142000,11.64414208984375,0.0013957626651972532,0.003501524217426777,-0.0008069378091022372
1738772348935134000,11.654134033203125,0.00159443449229002,0.002267149044200778,0.0015670040156692266
