time,seconds_elapsed,z,y,x
1738773043459832800,0.021832763671875,-0.4492034912109375,-0.0120391845703125,-0.90283203125
1738773043469823700,0.03182373046875,-0.448822021484375,-0.010589599609375,-0.902252197265625
1738773043479814700,0.041814697265625,-0.4485626220703125,-0.011077880859375,-0.90216064453125
1738773043489805800,0.051805908203125,-0.45062255859375,-0.01080322265625,-0.902069091796875
1738773043499797000,0.061796875,-0.4488525390625,-0.0103302001953125,-0.903167724609375
1738773043509788700,0.07178857421875,-0.4486083984375,-0.0106201171875,-0.9023895263671875
1738773043519779800,0.08177978515625,-0.4491424560546875,-0.010772705078125,-0.9029388427734375
1738773043529770800,0.091770751953125,-0.449005126953125,-0.01031494140625,-0.902435302734375
1738773043539761700,0.10176171875,-0.448974609375,-0.0092926025390625,-0.903076171875
1738773043549752800,0.1117529296875,-0.4488525390625,-0.0104522705078125,-0.9034576416015625
1738773043559744000,0.121743896484375,-0.4504852294921875,-0.0107421875,-0.9017486572265625
1738773043569735000,0.13173486328125,-0.44921875,-0.01007080078125,-0.9015350341796875
1738773043579726800,0.141726806640625,-0.4479522705078125,-0.01141357421875,-0.90167236328125
1738773043589717800,0.1517177734375,-0.4496002197265625,-0.010467529296875,-0.901641845703125
1738773043599708700,0.161708740234375,-0.4499053955078125,-0.0110626220703125,-0.9024810791015625
1738773043609699800,0.171699951171875,-0.4493560791015625,-0.0102386474609375,-0.9015045166015625
1738773043619691000,0.18169091796875,-0.448699951171875,-0.0113677978515625,-0.902801513671875
1738773043629682000,0.191681884765625,-0.447723388671875,-0.0116424560546875,-0.9022979736328125
1738773043639672800,0.2016728515625,-0.449798583984375,-0.0113067626953125,-0.90191650390625
1738773043649664800,0.211664794921875,-0.4483642578125,-0.011199951171875,-0.901153564453125
1738773043659656000,0.221656005859375,-0.44915771484375,-0.0120086669921875,-0.902923583984375
1738773043669646800,0.231646728515625,-0.450103759765625,-0.0110321044921875,-0.902313232421875
1738773043679638000,0.241637939453125,-0.4495391845703125,-0.0115966796875,-0.902435302734375
1738773043689629000,0.25162890625,-0.44952392578125,-0.0105743408203125,-0.9015960693359375
1738773043699619800,0.261619873046875,-0.449127197265625,-0.0095367431640625,-0.90185546875
1738773043709611000,0.271611083984375,-0.44921875,-0.0087738037109375,-0.902313232421875
1738773043719603000,0.28160302734375,-0.4487762451171875,-0.0108642578125,-0.9019622802734375
1738773043729593900,0.29159375,-0.4488067626953125,-0.0121307373046875,-0.9023284912109375
1738773043739585000,0.3015849609375,-0.449127197265625,-0.010772705078125,-0.9014739990234375
1738773043749576000,0.311575927734375,-0.448822021484375,-0.010528564453125,-0.903900146484375
1738773043759566800,0.32156689453125,-0.45013427734375,-0.0097808837890625,-0.902496337890625
1738773043769558000,0.33155810546875,-0.4484405517578125,-0.011688232421875,-0.9014739990234375
1738773043779549000,0.341548828125,-0.4480438232421875,-0.01043701171875,-0.9029541015625
1738773043789540900,0.351540771484375,-0.4480438232421875,-0.0106964111328125,-0.9021453857421875
1738773043799532000,0.361531982421875,-0.4486236572265625,-0.0120849609375,-0.90228271484375
1738773043809523000,0.37152294921875,-0.4496307373046875,-0.011505126953125,-0.902313232421875
1738773043819513900,0.381513916015625,-0.4483489990234375,-0.0110626220703125,-0.90240478515625
1738773043829504800,0.3915048828125,-0.4478302001953125,-0.0110931396484375,-0.9009552001953125
1738773043839496000,0.401495849609375,-0.449432373046875,-0.0108489990234375,-0.902435302734375
1738773043849486800,0.41148681640625,-0.448974609375,-0.01239013671875,-0.901458740234375
1738773043859479000,0.42147900390625,-0.44879150390625,-0.0121002197265625,-0.9026031494140625
1738773043869470000,0.431469970703125,-0.451751708984375,-0.01220703125,-0.9025726318359375
1738773043879460900,0.4414609375,-0.4500885009765625,-0.0115509033203125,-0.9021148681640625
1738773043889451800,0.45145166015625,-0.4486846923828125,-0.008758544921875,-0.9017181396484375
1738773043899443000,0.46144287109375,-0.4478302001953125,-0.0086669921875,-0.903106689453125
1738773043909433900,0.471433837890625,-0.449249267578125,-0.00860595703125,-0.9019927978515625
1738773043919424800,0.4814248046875,-0.448211669921875,-0.010223388671875,-0.9020233154296875
1738773043929417000,0.4914169921875,-0.44818115234375,-0.0101470947265625,-0.9030303955078125
1738773043939408000,0.501407958984375,-0.44891357421875,-0.010406494140625,-0.9033050537109375
1738773043949398800,0.511398681640625,-0.449188232421875,-0.010223388671875,-0.902099609375
1738773043959390000,0.521389892578125,-0.4487152099609375,-0.0096893310546875,-0.902008056640625
1738773043969380900,0.531380859375,-0.4481964111328125,-0.010986328125,-0.9025421142578125
1738773043979371800,0.541371826171875,-0.449951171875,-0.0098876953125,-0.9024658203125
1738773043989362700,0.55136279296875,-0.44970703125,-0.0099945068359375,-0.9023284912109375
1738773043999355000,0.56135498046875,-0.4486846923828125,-0.0092315673828125,-0.9022369384765625
1738773044009345800,0.571345703125,-0.4470062255859375,-0.0099029541015625,-0.902984619140625
1738773044019337000,0.5813369140625,-0.447967529296875,-0.0095062255859375,-0.9029388427734375
1738773044029328000,0.591327880859375,-0.45013427734375,-0.01043701171875,-0.9017791748046875
1738773044039318800,0.60131884765625,-0.44854736328125,-0.011077880859375,-0.902374267578125
1738773044049309700,0.611309814453125,-0.44964599609375,-0.0110015869140625,-0.902862548828125
1738773044059300900,0.62130078125,-0.45037841796875,-0.0102691650390625,-0.9014129638671875
1738773044069292800,0.631292724609375,-0.4490203857421875,-0.0114593505859375,-0.903106689453125
1738773044079283700,0.64128369140625,-0.4480438232421875,-0.0106048583984375,-0.9022369384765625
1738773044089275000,0.65127490234375,-0.4490509033203125,-0.009979248046875,-0.9024810791015625
1738773044099265800,0.661265869140625,-0.44842529296875,-0.010345458984375,-0.9028472900390625
1738773044109256700,0.671256591796875,-0.4494781494140625,-0.0099334716796875,-0.901580810546875
1738773044119248000,0.681247802734375,-0.45025634765625,-0.0124969482421875,-0.901763916015625
1738773044129238800,0.69123876953125,-0.4492034912109375,-0.01177978515625,-0.901123046875
1738773044139230700,0.701230712890625,-0.448638916015625,-0.008392333984375,-0.9021453857421875
1738773044149222000,0.711221923828125,-0.44793701171875,-0.0081329345703125,-0.9030914306640625
1738773044159212800,0.721212890625,-0.4484100341796875,-0.0103607177734375,-0.9033660888671875
1738773044169203700,0.73120361328125,-0.4498138427734375,-0.01202392578125,-0.9014129638671875
1738773044179195000,0.74119482421875,-0.4483184814453125,-0.01116943359375,-0.9019927978515625
1738773044189185800,0.751185791015625,-0.4493865966796875,-0.009521484375,-0.9019775390625
1738773044199176700,0.7611767578125,-0.447906494140625,-0.011016845703125,-0.9018707275390625
1738773044209167600,0.771167724609375,-0.4494171142578125,-0.0108795166015625,-0.902374267578125
1738773044219160600,0.78116064453125,-0.449249267578125,-0.011260986328125,-0.9034271240234375
1738773044229151500,0.7911513671875,-0.44903564453125,-0.0098876953125,-0.902587890625
1738773044239142700,0.801142578125,-0.4499359130859375,-0.009063720703125,-0.9015045166015625
1738773044249133600,0.811133544921875,-0.4493865966796875,-0.01019287109375,-0.9029541015625
1738773044259124500,0.82112451171875,-0.448455810546875,-0.0113983154296875,-0.902587890625
1738773044269115600,0.83111572265625,-0.449737548828125,-0.011260986328125,-0.9020538330078125
1738773044279106600,0.8411064453125,-0.4491119384765625,-0.009735107421875,-0.9015045166015625
1738773044289098500,0.851098388671875,-0.448455810546875,-0.01025390625,-0.902252197265625
1738773044299089700,0.861089599609375,-0.44976806640625,-0.0099334716796875,-0.903167724609375
1738773044309080600,0.87108056640625,-0.45050048828125,-0.010955810546875,-0.901763916015625
1738773044319071500,0.881071533203125,-0.448516845703125,-0.0120086669921875,-0.9015960693359375
1738773044329062700,0.891062744140625,-0.448883056640625,-0.0108642578125,-0.9020843505859375
1738773044339053600,0.901053466796875,-0.449676513671875,-0.0107574462890625,-0.90185546875
1738773044349044500,0.91104443359375,-0.449615478515625,-0.0115966796875,-0.9018096923828125
1738773044359036700,0.92103662109375,-0.4480133056640625,-0.0100555419921875,-0.9017791748046875
1738773044369027600,0.931027587890625,-0.4463348388671875,-0.0117340087890625,-0.9015960693359375
1738773044379018500,0.9410185546875,-0.450592041015625,-0.009979248046875,-0.9022674560546875
1738773044389009400,0.951009521484375,-0.4475555419921875,-0.0101776123046875,-0.9012451171875
1738773044399000600,0.96100048828125,-0.4503173828125,-0.0093231201171875,-0.9017791748046875
1738773044408991500,0.970991455078125,-0.4482879638671875,-0.0113525390625,-0.902069091796875
1738773044418982400,0.980982421875,-0.447998046875,-0.0109100341796875,-0.9027099609375
1738773044428974600,0.990974609375,-0.4491424560546875,-0.00958251953125,-0.9027252197265625
1738773044438965500,1.000965576171875,-0.449920654296875,-0.0096893310546875,-0.900665283203125
1738773044448956400,1.010956298828125,-0.448333740234375,-0.010223388671875,-0.9027557373046875
1738773044458947600,1.020947509765625,-0.4492034912109375,-0.010406494140625,-0.9026031494140625
1738773044468938500,1.0309384765625,-0.4482421875,-0.0114593505859375,-0.903289794921875
1738773044478929400,1.040929443359375,-0.4486846923828125,-0.010650634765625,-0.9019317626953125
1738773044488920600,1.050920654296875,-0.4481048583984375,-0.01055908203125,-0.9018707275390625
1738773044498912500,1.06091259765625,-0.4491424560546875,-0.0118865966796875,-0.9031982421875
1738773044508903400,1.0709033203125,-0.4503326416015625,-0.0096588134765625,-0.9020233154296875
1738773044518894600,1.08089453125,-0.4473724365234375,-0.01007080078125,-0.90313720703125
1738773044528885500,1.090885498046875,-0.44818115234375,-0.011444091796875,-0.9029083251953125
1738773044538876400,1.10087646484375,-0.448455810546875,-0.0087890625,-0.902801513671875
1738773044548867600,1.11086767578125,-0.4491424560546875,-0.0087432861328125,-0.903076171875
1738773044558858800,1.120858642578125,-0.4477386474609375,-0.01043701171875,-0.9023590087890625
1738773044568850400,1.130850341796875,-0.4482574462890625,-0.0103302001953125,-0.901214599609375
1738773044578841600,1.140841552734375,-0.449127197265625,-0.0102386474609375,-0.900787353515625
1738773044588832500,1.15083251953125,-0.4482879638671875,-0.010528564453125,-0.9034271240234375
1738773044598823400,1.160823486328125,-0.448974609375,-0.0113067626953125,-0.902496337890625
1738773044608814600,1.170814697265625,-0.44866943359375,-0.009552001953125,-0.9017333984375
1738773044618805800,1.1808056640625,-0.4484100341796875,-0.0085906982421875,-0.901519775390625
1738773044628796700,1.190796630859375,-0.448577880859375,-0.0102691650390625,-0.9013671875
1738773044638788600,1.20078857421875,-0.4490203857421875,-0.0108795166015625,-0.9016571044921875
1738773044648779500,1.210779541015625,-0.4495086669921875,-0.010223388671875,-0.9027252197265625
1738773044658770700,1.220770751953125,-0.449798583984375,-0.0092010498046875,-0.90325927734375
1738773044668761600,1.23076171875,-0.4500579833984375,-0.0108642578125,-0.902801513671875
1738773044678752800,1.240752685546875,-0.4479827880859375,-0.0100860595703125,-0.901641845703125
1738773044688743700,1.25074365234375,-0.448455810546875,-0.010040283203125,-0.9028778076171875
1738773044698734600,1.260734619140625,-0.4499664306640625,-0.0107574462890625,-0.9026336669921875
1738773044708726500,1.2707265625,-0.448638916015625,-0.0100250244140625,-0.9012451171875
1738773044718717700,1.2807177734375,-0.44781494140625,-0.0103302001953125,-0.9018707275390625
1738773044728708600,1.29070849609375,-0.4478759765625,-0.011505126953125,-0.901580810546875
1738773044738699800,1.30069970703125,-0.4483184814453125,-0.009765625,-0.901611328125
1738773044748690700,1.310690673828125,-0.4485931396484375,-0.010711669921875,-0.90185546875
1738773044758681600,1.320681640625,-0.4496002197265625,-0.0093536376953125,-0.90277099609375
1738773044768672500,1.330672607421875,-0.449066162109375,-0.0111541748046875,-0.9033203125
1738773044778664700,1.340664794921875,-0.450592041015625,-0.0106048583984375,-0.9022674560546875
1738773044788655600,1.350655517578125,-0.449249267578125,-0.011474609375,-0.9019927978515625
1738773044798646800,1.360646728515625,-0.448822021484375,-0.01141357421875,-0.903289794921875
1738773044808637700,1.3706376953125,-0.448760986328125,-0.0108795166015625,-0.9026947021484375
1738773044818628600,1.380628662109375,-0.448516845703125,-0.009185791015625,-0.9011993408203125
1738773044828619500,1.39061962890625,-0.4504852294921875,-0.010223388671875,-0.9012451171875
1738773044838610700,1.400610595703125,-0.44879150390625,-0.0084991455078125,-0.9023284912109375
1738773044848601600,1.4106015625,-0.449920654296875,-0.009521484375,-0.9027862548828125
1738773044858593800,1.42059375,-0.44879150390625,-0.0106201171875,-0.9033660888671875
1738773044868584700,1.430584716796875,-0.448516845703125,-0.01104736328125,-0.9028778076171875
1738773044878575600,1.44057568359375,-0.447723388671875,-0.0102996826171875,-0.9027862548828125
1738773044888566500,1.45056640625,-0.449554443359375,-0.0102386474609375,-0.902679443359375
1738773044898557700,1.4605576171875,-0.4493865966796875,-0.0102996826171875,-0.9017181396484375
1738773044908548600,1.470548583984375,-0.4479217529296875,-0.0103759765625,-0.90167236328125
1738773044918539500,1.48053955078125,-0.4496002197265625,-0.0106964111328125,-0.902374267578125
1738773044928531700,1.49053173828125,-0.44921875,-0.011566162109375,-0.9027557373046875
1738773044938522600,1.500522705078125,-0.4487152099609375,-0.0110626220703125,-0.9022369384765625
1738773044948513500,1.510513427734375,-0.4481658935546875,-0.0103302001953125,-0.9026336669921875
1738773044958504700,1.520504638671875,-0.4499969482421875,-0.011444091796875,-0.90087890625
1738773044968495600,1.53049560546875,-0.44940185546875,-0.0091400146484375,-0.903656005859375
1738773044978486500,1.540486572265625,-0.45013427734375,-0.010650634765625,-0.902618408203125
1738773044988477400,1.5504775390625,-0.449371337890625,-0.01025390625,-0.9012603759765625
1738773044998469600,1.5604697265625,-0.448516845703125,-0.0106048583984375,-0.90179443359375
1738773045008460500,1.57046044921875,-0.44854736328125,-0.01123046875,-0.9022674560546875
1738773045018451700,1.58045166015625,-0.449676513671875,-0.0103607177734375,-0.9035186767578125
1738773045028442600,1.590442626953125,-0.448699951171875,-0.009185791015625,-0.9021148681640625
1738773045038433500,1.60043359375,-0.4499664306640625,-0.01019287109375,-0.90216064453125
1738773045048424400,1.610424560546875,-0.4506683349609375,-0.01068115234375,-0.9034881591796875
1738773045058415600,1.62041552734375,-0.448089599609375,-0.0093536376953125,-0.90228271484375
1738773045068406500,1.630406494140625,-0.4489288330078125,-0.0100555419921875,-0.9024810791015625
1738773045078398500,1.6403984375,-0.44879150390625,-0.0106353759765625,-0.9026336669921875
1738773045088389600,1.6503896484375,-0.4495086669921875,-0.0108184814453125,-0.901336669921875
1738773045098380500,1.660380615234375,-0.44891357421875,-0.00970458984375,-0.903717041015625
1738773045108371500,1.670371337890625,-0.447662353515625,-0.00970458984375,-0.902862548828125
1738773045118362600,1.680362548828125,-0.4488677978515625,-0.0094146728515625,-0.901580810546875
1738773045128353500,1.690353515625,-0.4494781494140625,-0.010528564453125,-0.901153564453125
1738773045138344400,1.700344482421875,-0.4484405517578125,-0.0102081298828125,-0.902130126953125
1738773045148336600,1.710336669921875,-0.4479522705078125,-0.0100250244140625,-0.901397705078125
1738773045158327600,1.72032763671875,-0.449188232421875,-0.008880615234375,-0.9017791748046875
1738773045168318500,1.730318359375,-0.449371337890625,-0.0097503662109375,-0.902374267578125
1738773045178309600,1.7403095703125,-0.44927978515625,-0.01043701171875,-0.9026031494140625
1738773045188300500,1.750300537109375,-0.449920654296875,-0.0104827880859375,-0.90142822265625
1738773045198291500,1.76029150390625,-0.4498138427734375,-0.0101776123046875,-0.9014739990234375
1738773045208282400,1.770282470703125,-0.4480438232421875,-0.0093536376953125,-0.902862548828125
1738773045218274600,1.780274658203125,-0.4486083984375,-0.0087890625,-0.9028472900390625
1738773045228265500,1.790265380859375,-0.448486328125,-0.011016845703125,-0.9011383056640625
1738773045238256400,1.80025634765625,-0.4488372802734375,-0.01123046875,-0.9032135009765625
1738773045248247600,1.81024755859375,-0.4478759765625,-0.0096282958984375,-0.9023895263671875
1738773045258238500,1.820238525390625,-0.449676513671875,-0.01025390625,-0.9024658203125
1738773045268229400,1.8302294921875,-0.44989013671875,-0.0106201171875,-0.9022064208984375
1738773045278220500,1.840220458984375,-0.4481048583984375,-0.01092529296875,-0.9034576416015625
1738773045288211700,1.850211669921875,-0.4481964111328125,-0.0093841552734375,-0.9035186767578125
1738773045298203400,1.860203369140625,-0.449981689453125,-0.0096435546875,-0.9030303955078125
1738773045308194600,1.870194580078125,-0.4492340087890625,-0.0108642578125,-0.902099609375
1738773045318185500,1.880185546875,-0.44854736328125,-0.0105438232421875,-0.9014434814453125
1738773045328176400,1.89017626953125,-0.4502410888671875,-0.008819580078125,-0.9021453857421875
1738773045338167600,1.90016748046875,-0.4491729736328125,-0.0095062255859375,-0.9029998779296875
1738773045348158700,1.91015869140625,-0.448944091796875,-0.010650634765625,-0.902130126953125
1738773045358149600,1.920149658203125,-0.448883056640625,-0.010894775390625,-0.9025115966796875
1738773045368141600,1.9301416015625,-0.449951171875,-0.0100555419921875,-0.9023590087890625
1738773045378132500,1.940132568359375,-0.4491729736328125,-0.0095672607421875,-0.9015350341796875
1738773045388123400,1.950123291015625,-0.44842529296875,-0.010772705078125,-0.9021148681640625
1738773045398114600,1.960114501953125,-0.4497222900390625,-0.0112152099609375,-0.901123046875
1738773045408105700,1.970105712890625,-0.4498291015625,-0.0104522705078125,-0.902252197265625
1738773045418096600,1.9800966796875,-0.44915771484375,-0.0102081298828125,-0.903167724609375
1738773045428087600,1.990087646484375,-0.4496307373046875,-0.0101318359375,-0.9019317626953125
1738773045438078700,2.00007861328125,-0.4488067626953125,-0.0102081298828125,-0.902679443359375
1738773045448070400,2.0100703125,-0.449676513671875,-0.010772705078125,-0.901641845703125
1738773045458061600,2.0200615234375,-0.448028564453125,-0.0103607177734375,-0.9025726318359375
1738773045468052700,2.030052734375,-0.4491729736328125,-0.00982666015625,-0.902191162109375
1738773045478043600,2.040043701171875,-0.4490509033203125,-0.0101470947265625,-0.902862548828125
1738773045488034600,2.05003466796875,-0.4499664306640625,-0.0108489990234375,-0.901580810546875
1738773045498025700,2.060025634765625,-0.4493560791015625,-0.0104827880859375,-0.9018402099609375
1738773045508016600,2.0700166015625,-0.4490203857421875,-0.010894775390625,-0.9017791748046875
1738773045518008600,2.080008544921875,-0.4483184814453125,-0.0096435546875,-0.902313232421875
1738773045527999700,2.089999755859375,-0.4490509033203125,-0.010772705078125,-0.90179443359375
1738773045537990700,2.09999072265625,-0.4481658935546875,-0.0109405517578125,-0.9022979736328125
1738773045547981600,2.109981689453125,-0.450653076171875,-0.009674072265625,-0.9020843505859375
1738773045557972500,2.119972412109375,-0.4501495361328125,-0.0119781494140625,-0.90093994140625
1738773045567963600,2.129963623046875,-0.4494171142578125,-0.00970458984375,-0.901123046875
1738773045577954600,2.13995458984375,-0.44818115234375,-0.0107269287109375,-0.9015655517578125
1738773045587945500,2.149945556640625,-0.4480438232421875,-0.010986328125,-0.903472900390625
1738773045597937700,2.159937744140625,-0.448211669921875,-0.010528564453125,-0.90203857421875
1738773045607928600,2.169928466796875,-0.4489288330078125,-0.011627197265625,-0.903594970703125
1738773045617919500,2.17991943359375,-0.4483642578125,-0.010009765625,-0.90252685546875
1738773045627910700,2.18991064453125,-0.4492645263671875,-0.0096435546875,-0.901611328125
1738773045637901600,2.199901611328125,-0.4483642578125,-0.0111236572265625,-0.90216064453125
1738773045647892500,2.209892578125,-0.44940185546875,-0.009857177734375,-0.9031982421875
1738773045657883600,2.219883544921875,-0.449493408203125,-0.0100555419921875,-0.90185546875
1738773045667875600,2.22987548828125,-0.449066162109375,-0.009796142578125,-0.901947021484375
1738773045677866500,2.239866455078125,-0.44940185546875,-0.01055908203125,-0.90228271484375
1738773045687857700,2.249857666015625,-0.448822021484375,-0.0099639892578125,-0.9029998779296875
1738773045697848600,2.2598486328125,-0.448974609375,-0.0101165771484375,-0.9029083251953125
1738773045707839500,2.269839599609375,-0.450286865234375,-0.0094146728515625,-0.903564453125
1738773045717830700,2.27983056640625,-0.449981689453125,-0.0104522705078125,-0.9025726318359375
1738773045727821600,2.289821533203125,-0.44940185546875,-0.01141357421875,-0.901641845703125
1738773045737812500,2.2998125,-0.4488525390625,-0.0102386474609375,-0.902801513671875
1738773045747804700,2.3098046875,-0.448822021484375,-0.010223388671875,-0.902618408203125
1738773045757795600,2.319795654296875,-0.44683837890625,-0.009918212890625,-0.9015350341796875
1738773045767786500,2.329786376953125,-0.4490966796875,-0.010589599609375,-0.901092529296875
1738773045777777400,2.33977734375,-0.4490203857421875,-0.0111541748046875,-0.901153564453125
1738773045787768600,2.3497685546875,-0.4497222900390625,-0.0095977783203125,-0.9010009765625
1738773045797759500,2.359759521484375,-0.4498138427734375,-0.011199951171875,-0.9016265869140625
1738773045807750400,2.36975048828125,-0.4494476318359375,-0.0105133056640625,-0.901763916015625
1738773045817741600,2.379741455078125,-0.450958251953125,-0.01025390625,-0.9027252197265625
1738773045827733500,2.3897333984375,-0.4486846923828125,-0.0100860595703125,-0.9021759033203125
1738773045837724400,2.399724365234375,-0.448394775390625,-0.010711669921875,-0.90185546875
1738773045847715600,2.409715576171875,-0.4499664306640625,-0.010284423828125,-0.9020843505859375
1738773045857706500,2.41970654296875,-0.4493408203125,-0.010833740234375,-0.9019317626953125
1738773045867697400,2.429697509765625,-0.448822021484375,-0.00994873046875,-0.901885986328125
1738773045877688600,2.4396884765625,-0.448944091796875,-0.01104736328125,-0.901641845703125
1738773045887679500,2.449679443359375,-0.4492340087890625,-0.0103759765625,-0.9026031494140625
1738773045897671400,2.45967138671875,-0.4485015869140625,-0.010223388671875,-0.902496337890625
1738773045907662600,2.46966259765625,-0.449737548828125,-0.0090484619140625,-0.9026641845703125
1738773045917653500,2.479653564453125,-0.4515228271484375,-0.0109405517578125,-0.9024658203125
1738773045927644400,2.48964453125,-0.4490966796875,-0.0107574462890625,-0.902587890625
1738773045937635600,2.499635498046875,-0.4492950439453125,-0.01007080078125,-0.902496337890625
1738773045947626500,2.50962646484375,-0.44989013671875,-0.0105743408203125,-0.9016876220703125
1738773045957617400,2.519617431640625,-0.4489288330078125,-0.0106048583984375,-0.9027099609375
1738773045967608600,2.529608642578125,-0.4500885009765625,-0.0104827880859375,-0.9016876220703125
1738773045977600500,2.5396005859375,-0.44873046875,-0.0111541748046875,-0.9019012451171875
1738773045987591400,2.54959130859375,-0.448699951171875,-0.00946044921875,-0.9028472900390625
1738773045997582300,2.559582275390625,-0.449066162109375,-0.0106658935546875,-0.9026947021484375
1738773046007573500,2.569573486328125,-0.449005126953125,-0.0106353759765625,-0.90289306640625
1738773046017564400,2.579564453125,-0.4485626220703125,-0.0100555419921875,-0.90216064453125
1738773046027555600,2.5895556640625,-0.448486328125,-0.009674072265625,-0.9022674560546875
1738773046037546800,2.599546630859375,-0.4496917724609375,-0.0108184814453125,-0.9032440185546875
1738773046047538400,2.609538330078125,-0.4490509033203125,-0.01043701171875,-0.902923583984375
1738773046057529300,2.619529296875,-0.44940185546875,-0.010589599609375,-0.9024200439453125
1738773046067520500,2.6295205078125,-0.449951171875,-0.011322021484375,-0.9028778076171875
1738773046077511400,2.639511474609375,-0.4499969482421875,-0.0103912353515625,-0.9025115966796875
1738773046087502600,2.649502685546875,-0.449493408203125,-0.0105743408203125,-0.9020233154296875
1738773046097493800,2.65949365234375,-0.44927978515625,-0.009521484375,-0.901519775390625
1738773046107484700,2.669484619140625,-0.449462890625,-0.009918212890625,-0.902496337890625
1738773046117475600,2.6794755859375,-0.44903564453125,-0.009796142578125,-0.9034576416015625
1738773046127467500,2.689467529296875,-0.4488677978515625,-0.009765625,-0.9022064208984375
1738773046137458700,2.699458740234375,-0.4498443603515625,-0.009918212890625,-0.9011688232421875
1738773046147449600,2.70944970703125,-0.4489593505859375,-0.0105438232421875,-0.903564453125
1738773046157440500,2.7194404296875,-0.44866943359375,-0.0105743408203125,-0.9028472900390625
1738773046167431700,2.729431640625,-0.4486083984375,-0.0099029541015625,-0.9021453857421875
1738773046177422600,2.739422607421875,-0.449005126953125,-0.0103302001953125,-0.90234375
1738773046187413500,2.74941357421875,-0.450408935546875,-0.01092529296875,-0.902435302734375
1738773046197405700,2.75940576171875,-0.4501190185546875,-0.0104827880859375,-0.9027252197265625
1738773046207396600,2.769396728515625,-0.450103759765625,-0.0100555419921875,-0.9030914306640625
1738773046217387800,2.7793876953125,-0.4494476318359375,-0.01080322265625,-0.902191162109375
1738773046227379000,2.78937890625,-0.4495849609375,-0.0092620849609375,-0.9018096923828125
1738773046237369900,2.799369873046875,-0.4492340087890625,-0.0103912353515625,-0.9026947021484375
1738773046247360800,2.80936083984375,-0.4489593505859375,-0.0107269287109375,-0.902496337890625
1738773046257352000,2.81935205078125,-0.4502410888671875,-0.011627197265625,-0.901336669921875
1738773046267342800,2.8293427734375,-0.4493560791015625,-0.01025390625,-0.9015045166015625
1738773046277334800,2.839334716796875,-0.4492340087890625,-0.0112457275390625,-0.902679443359375
1738773046287326000,2.849325927734375,-0.449249267578125,-0.0109710693359375,-0.903411865234375
1738773046297316900,2.85931689453125,-0.44854736328125,-0.010406494140625,-0.9023284912109375
1738773046307307800,2.869307861328125,-0.44818115234375,-0.0105133056640625,-0.9017486572265625
1738773046317299000,2.879298828125,-0.45037841796875,-0.0090484619140625,-0.9044189453125
1738773046327289900,2.889289794921875,-0.450042724609375,-0.00933837890625,-0.902679443359375
1738773046337280800,2.89928076171875,-0.4482879638671875,-0.0108642578125,-0.902801513671875
1738773046347271700,2.909271728515625,-0.4496307373046875,-0.0112152099609375,-0.902984619140625
1738773046357264000,2.919263916015625,-0.4499359130859375,-0.0104522705078125,-0.90185546875
1738773046367254800,2.9292548828125,-0.44915771484375,-0.0098114013671875,-0.9020843505859375
1738773046377246000,2.939245849609375,-0.4488677978515625,-0.01025390625,-0.9015350341796875
1738773046387236900,2.94923681640625,-0.448699951171875,-0.0098419189453125,-0.90216064453125
1738773046397227800,2.959227783203125,-0.4478302001953125,-0.009735107421875,-0.9023895263671875
1738773046407218700,2.96921875,-0.4493408203125,-0.009979248046875,-0.902130126953125
1738773046417209900,2.9792099609375,-0.4481658935546875,-0.0098114013671875,-0.9038238525390625
1738773046427201800,2.989201904296875,-0.4487457275390625,-0.010101318359375,-0.90185546875
1738773046437192700,2.999192626953125,-0.4493865966796875,-0.00970458984375,-0.9024505615234375
1738773046447184000,3.009183837890625,-0.4489288330078125,-0.010986328125,-0.9029541015625
1738773046457174800,3.0191748046875,-0.449005126953125,-0.0109100341796875,-0.9020843505859375
1738773046467165700,3.029165771484375,-0.449249267578125,-0.0101776123046875,-0.9024810791015625
1738773046477156900,3.039156982421875,-0.4491424560546875,-0.0099639892578125,-0.903594970703125
1738773046487147800,3.049147705078125,-0.44970703125,-0.0108184814453125,-0.90252685546875
1738773046497138700,3.059138671875,-0.4481353759765625,-0.0107574462890625,-0.902679443359375
1738773046507131000,3.069130859375,-0.450225830078125,-0.011474609375,-0.901824951171875
1738773046517121800,3.079121826171875,-0.448944091796875,-0.0104217529296875,-0.9028778076171875
1738773046527112700,3.08911279296875,-0.449066162109375,-0.0103607177734375,-0.9028167724609375
1738773046537104000,3.099103759765625,-0.448699951171875,-0.0091400146484375,-0.90203857421875
1738773046547094800,3.1090947265625,-0.4487152099609375,-0.0114898681640625,-0.903717041015625
1738773046557085700,3.119085693359375,-0.449127197265625,-0.00958251953125,-0.903045654296875
1738773046567076600,3.12907666015625,-0.4490814208984375,-0.0100250244140625,-0.901641845703125
1738773046577067800,3.13906787109375,-0.448455810546875,-0.0102081298828125,-0.9021453857421875
1738773046587059700,3.149059814453125,-0.4480133056640625,-0.0099029541015625,-0.902008056640625
1738773046597051000,3.15905078125,-0.450439453125,-0.0106353759765625,-0.90081787109375
1738773046607041800,3.169041748046875,-0.44940185546875,-0.0105133056640625,-0.901153564453125
1738773046617032700,3.17903271484375,-0.44927978515625,-0.010162353515625,-0.90264892578125
1738773046627023600,3.189023681640625,-0.4487152099609375,-0.009246826171875,-0.903472900390625
1738773046637014800,3.199014892578125,-0.4488677978515625,-0.0093536376953125,-0.9012908935546875
1738773046647005700,3.209005615234375,-0.4487152099609375,-0.0095367431640625,-0.9008331298828125
1738773046656996600,3.21899658203125,-0.44866943359375,-0.0100860595703125,-0.9035186767578125
1738773046666988800,3.22898876953125,-0.4489593505859375,-0.01043701171875,-0.9017181396484375
1738773046676979700,3.238979736328125,-0.4488525390625,-0.009613037109375,-0.9025421142578125
1738773046686970600,3.248970703125,-0.4492340087890625,-0.010955810546875,-0.9031219482421875
1738773046696961800,3.2589619140625,-0.450775146484375,-0.0107421875,-0.901153564453125
1738773046706952700,3.26895263671875,-0.448699951171875,-0.0101470947265625,-0.9019775390625
1738773046716943600,3.278943603515625,-0.44793701171875,-0.0092926025390625,-0.9029083251953125
1738773046726934800,3.288934814453125,-0.4489898681640625,-0.0110931396484375,-0.9026031494140625
1738773046736926700,3.2989267578125,-0.447296142578125,-0.009552001953125,-0.9014739990234375
1738773046746917600,3.308917724609375,-0.4487762451171875,-0.010528564453125,-0.9024810791015625
1738773046756908800,3.31890869140625,-0.448211669921875,-0.010711669921875,-0.9013671875
1738773046766899700,3.328899658203125,-0.4487152099609375,-0.0094146728515625,-0.90142822265625
1738773046776891000,3.338890869140625,-0.4488677978515625,-0.0109710693359375,-0.9023590087890625
1738773046786881800,3.3488818359375,-0.4493865966796875,-0.0105438232421875,-0.9029388427734375
1738773046796873000,3.358873046875,-0.448394775390625,-0.0088653564453125,-0.9011077880859375
1738773046806864000,3.36886376953125,-0.4496307373046875,-0.0100860595703125,-0.9013519287109375
1738773046816855800,3.378855712890625,-0.4487152099609375,-0.0099639892578125,-0.9031829833984375
1738773046826846700,3.3888466796875,-0.448944091796875,-0.010528564453125,-0.9032745361328125
1738773046836838000,3.398837890625,-0.4490966796875,-0.0107574462890625,-0.9016571044921875
1738773046846828800,3.408828857421875,-0.44927978515625,-0.010589599609375,-0.9027099609375
1738773046856820000,3.418820068359375,-0.45001220703125,-0.0093231201171875,-0.9015960693359375
1738773046866811000,3.428810791015625,-0.4484405517578125,-0.009613037109375,-0.90203857421875
1738773046876801800,3.4388017578125,-0.44842529296875,-0.010955810546875,-0.902496337890625
1738773046886793000,3.44879296875,-0.446990966796875,-0.0103302001953125,-0.9026336669921875
1738773046896785000,3.458784912109375,-0.448394775390625,-0.0099639892578125,-0.9018096923828125
1738773046906775800,3.46877587890625,-0.4495086669921875,-0.0100250244140625,-0.9034576416015625
1738773046916767000,3.47876708984375,-0.4485626220703125,-0.0098419189453125,-0.9023895263671875
1738773046926758000,3.4887578125,-0.451446533203125,-0.010406494140625,-0.9015655517578125
1738773046936748800,3.498748779296875,-0.4491424560546875,-0.0108642578125,-0.9020538330078125
1738773046946739700,3.50873974609375,-0.44915771484375,-0.0100860595703125,-0.9019012451171875
1738773046956731000,3.51873095703125,-0.448272705078125,-0.0107421875,-0.9030609130859375
1738773046966722800,3.528722900390625,-0.4492645263671875,-0.0095672607421875,-0.9026336669921875
1738773046976714000,3.5387138671875,-0.450347900390625,-0.0117645263671875,-0.902008056640625
1738773046986705000,3.548704833984375,-0.448516845703125,-0.0112762451171875,-0.9022369384765625
1738773046996695800,3.55869580078125,-0.4483489990234375,-0.0103912353515625,-0.902557373046875
1738773047006686700,3.568686767578125,-0.449554443359375,-0.010406494140625,-0.9019775390625
1738773047016678000,3.578677978515625,-0.4483184814453125,-0.0111236572265625,-0.902435302734375
1738773047026668800,3.588668701171875,-0.4480133056640625,-0.011077880859375,-0.9018402099609375
1738773047036659700,3.59865966796875,-0.4475555419921875,-0.0101470947265625,-0.9008636474609375
1738773047046652000,3.60865185546875,-0.4484405517578125,-0.0091400146484375,-0.90179443359375
1738773047056642800,3.618642822265625,-0.448516845703125,-0.0098724365234375,-0.902313232421875
1738773047066633700,3.6286337890625,-0.448760986328125,-0.0106658935546875,-0.9033050537109375
1738773047076625000,3.638625,-0.448883056640625,-0.0103912353515625,-0.9034271240234375
1738773047086615800,3.64861572265625,-0.4483184814453125,-0.0103607177734375,-0.9024200439453125
1738773047096606700,3.658606689453125,-0.448944091796875,-0.0107421875,-0.9024810791015625
1738773047106598000,3.668597900390625,-0.449127197265625,-0.010528564453125,-0.9022064208984375
1738773047116588800,3.6785888671875,-0.4485015869140625,-0.010894775390625,-0.9019927978515625
1738773047126580700,3.688580810546875,-0.4495391845703125,-0.010589599609375,-0.902252197265625
1738773047136572000,3.698572021484375,-0.4503173828125,-0.009521484375,-0.9031524658203125
1738773047146562800,3.708562744140625,-0.448516845703125,-0.0099639892578125,-0.9017333984375
1738773047156553700,3.7185537109375,-0.4489898681640625,-0.0099945068359375,-0.902740478515625
1738773047166544600,3.728544677734375,-0.4484710693359375,-0.0101165771484375,-0.90179443359375
1738773047176535800,3.738535888671875,-0.44842529296875,-0.0112152099609375,-0.90191650390625
1738773047186526700,3.748526611328125,-0.4494781494140625,-0.0121917724609375,-0.902008056640625
1738773047196517600,3.758517578125,-0.4496307373046875,-0.010650634765625,-0.9027862548828125
1738773047206509800,3.768509765625,-0.44964599609375,-0.01116943359375,-0.902069091796875
1738773047216500700,3.778500732421875,-0.4493408203125,-0.0098419189453125,-0.9021759033203125
1738773047226491000,3.788490966796875,-0.4489593505859375,-0.0101318359375,-0.90234375
1738773047236482000,3.79848193359375,-0.449981689453125,-0.009521484375,-0.903167724609375
1738773047246473000,3.808472900390625,-0.449432373046875,-0.0094146728515625,-0.9014739990234375
1738773047256464100,3.818464111328125,-0.44830322265625,-0.0099945068359375,-0.90203857421875
1738773047266455000,3.828455078125,-0.449951171875,-0.0108489990234375,-0.9011993408203125
1738773047276446200,3.8384462890625,-0.4508056640625,-0.0102691650390625,-0.902252197265625
1738773047286438000,3.84843798828125,-0.4479522705078125,-0.011138916015625,-0.90264892578125
1738773047296429000,3.858428955078125,-0.449462890625,-0.01092529296875,-0.9027252197265625
1738773047306420000,3.868419921875,-0.4484405517578125,-0.01104736328125,-0.90301513671875
1738773047316411100,3.8784111328125,-0.4496307373046875,-0.01104736328125,-0.9031219482421875
1738773047326402000,3.888402099609375,-0.4492645263671875,-0.0107269287109375,-0.9030609130859375
1738773047336393200,3.898393310546875,-0.4489593505859375,-0.0093536376953125,-0.9020233154296875
1738773047346384100,3.908384033203125,-0.449798583984375,-0.0111846923828125,-0.902099609375
1738773047356375000,3.918375,-0.449127197265625,-0.0103759765625,-0.903076171875
1738773047366367000,3.928366943359375,-0.448883056640625,-0.0087432861328125,-0.902618408203125
1738773047376358100,3.938358154296875,-0.4481201171875,-0.0106353759765625,-0.902313232421875
1738773047386349000,3.94834912109375,-0.4493408203125,-0.0093536376953125,-0.9029083251953125
1738773047396340200,3.95834033203125,-0.4490203857421875,-0.0098114013671875,-0.902618408203125
1738773047406331100,3.9683310546875,-0.45013427734375,-0.01043701171875,-0.902587890625
1738773047416322000,3.978322021484375,-0.44769287109375,-0.0106048583984375,-0.90301513671875
1738773047426313000,3.98831298828125,-0.4491119384765625,-0.010284423828125,-0.9019927978515625
1738773047436304100,3.99830419921875,-0.449432373046875,-0.010162353515625,-0.9027099609375
1738773047446296000,4.008296142578125,-0.45001220703125,-0.010162353515625,-0.90234375
1738773047456287200,4.018287353515625,-0.4493255615234375,-0.010284423828125,-0.90228271484375
1738773047466278100,4.028278076171875,-0.4496612548828125,-0.0099945068359375,-0.9023590087890625
1738773047476269000,4.03826904296875,-0.449798583984375,-0.0104217529296875,-0.9023895263671875
1738773047486260000,4.048260009765625,-0.4498748779296875,-0.011016845703125,-0.902252197265625
1738773047496251100,4.058251220703125,-0.450042724609375,-0.0115203857421875,-0.9025115966796875
1738773047506242000,4.068241943359375,-0.449249267578125,-0.0108795166015625,-0.90289306640625
1738773047516234200,4.078234130859375,-0.447998046875,-0.010223388671875,-0.9030303955078125
1738773047526225200,4.08822509765625,-0.4494476318359375,-0.0109100341796875,-0.9014892578125
1738773047536216000,4.098216064453125,-0.4499969482421875,-0.0109100341796875,-0.9024200439453125
1738773047546207000,4.10820703125,-0.4498138427734375,-0.01019287109375,-0.9019927978515625
1738773047556198100,4.1181982421875,-0.44921875,-0.01068115234375,-0.90264892578125
1738773047566189000,4.12818896484375,-0.4485626220703125,-0.0107879638671875,-0.9027862548828125
1738773047576180000,4.138179931640625,-0.44891357421875,-0.0100555419921875,-0.90216064453125
1738773047586171100,4.148171142578125,-0.4495849609375,-0.0103607177734375,-0.902130126953125
1738773047596163000,4.1581630859375,-0.44732666015625,-0.01007080078125,-0.90325927734375
1738773047606154000,4.168154052734375,-0.4492950439453125,-0.011138916015625,-0.901947021484375
1738773047616145200,4.178145263671875,-0.448699951171875,-0.0097198486328125,-0.901763916015625
1738773047626136000,4.188135986328125,-0.44927978515625,-0.01092529296875,-0.9015045166015625
1738773047636127000,4.198126953125,-0.4502716064453125,-0.0096588134765625,-0.901397705078125
1738773047646118000,4.208117919921875,-0.449127197265625,-0.009429931640625,-0.9031982421875
1738773047656109000,4.218109130859375,-0.4487152099609375,-0.0097198486328125,-0.90234375
1738773047666100000,4.228099853515625,-0.448455810546875,-0.009490966796875,-0.9020538330078125
1738773047676092200,4.238092041015625,-0.44805908203125,-0.009979248046875,-0.902099609375
1738773047686083000,4.2480830078125,-0.4490966796875,-0.009613037109375,-0.9040985107421875
1738773047696074000,4.258073974609375,-0.4490814208984375,-0.0113983154296875,-0.9021148681640625
1738773047706065000,4.26806494140625,-0.448974609375,-0.01068115234375,-0.9026947021484375
1738773047716056000,4.27805615234375,-0.4489288330078125,-0.009613037109375,-0.9030914306640625
1738773047726047000,4.288046875,-0.4495849609375,-0.010772705078125,-0.90283203125
1738773047736038000,4.298037841796875,-0.4491119384765625,-0.0113067626953125,-0.9020843505859375
1738773047746029000,4.308029052734375,-0.4498748779296875,-0.01080322265625,-0.9029083251953125
1738773047756021000,4.31802099609375,-0.4495697021484375,-0.0103759765625,-0.90252685546875
1738773047766012000,4.328011962890625,-0.448944091796875,-0.0100555419921875,-0.9027099609375
1738773047776003000,4.338003173828125,-0.4491424560546875,-0.0095977783203125,-0.9030914306640625
1738773047785994000,4.347993896484375,-0.449615478515625,-0.0095672607421875,-0.9022979736328125
1738773047795985000,4.35798486328125,-0.448883056640625,-0.0106201171875,-0.9025115966796875
1738773047805976000,4.36797607421875,-0.4486236572265625,-0.0098114013671875,-0.901763916015625
1738773047815967000,4.377967041015625,-0.4486541748046875,-0.0103759765625,-0.9026947021484375
1738773047825958000,4.3879580078125,-0.4482421875,-0.00982666015625,-0.9016571044921875
1738773047835950000,4.3979501953125,-0.44952392578125,-0.0103759765625,-0.9026031494140625
1738773047845941000,4.40794091796875,-0.4499664306640625,-0.0088348388671875,-0.9019775390625
1738773047855932000,4.417931884765625,-0.4501190185546875,-0.009246826171875,-0.902801513671875
1738773047865922800,4.4279228515625,-0.449127197265625,-0.0086669921875,-0.903076171875
1738773047875914000,4.4379140625,-0.4503326416015625,-0.011016845703125,-0.9026947021484375
1738773047885905200,4.4479052734375,-0.45062255859375,-0.010284423828125,-0.9022216796875
1738773047895896000,4.45789599609375,-0.449127197265625,-0.011077880859375,-0.902008056640625
1738773047905887200,4.46788720703125,-0.4495697021484375,-0.0106048583984375,-0.9012298583984375
1738773047915879000,4.47787890625,-0.4486846923828125,-0.01007080078125,-0.90240478515625
1738773047925869800,4.487869873046875,-0.447784423828125,-0.010772705078125,-0.9028472900390625
1738773047935861000,4.497861083984375,-0.448394775390625,-0.011016845703125,-0.9020538330078125
1738773047945852200,4.50785205078125,-0.4495697021484375,-0.010009765625,-0.9009552001953125
1738773047955843000,4.517843017578125,-0.448760986328125,-0.0092315673828125,-0.903045654296875
1738773047965834200,4.527834228515625,-0.448577880859375,-0.01068115234375,-0.9013214111328125
1738773047975825200,4.5378251953125,-0.4490814208984375,-0.010406494140625,-0.901611328125
1738773047985816000,4.547816162109375,-0.4491424560546875,-0.0111541748046875,-0.9007568359375
1738773047995808000,4.55780810546875,-0.44830322265625,-0.009002685546875,-0.902740478515625
1738773048005799200,4.567799072265625,-0.4477081298828125,-0.0109710693359375,-0.9014739990234375
1738773048015790000,4.5777900390625,-0.44976806640625,-0.011688232421875,-0.902801513671875
1738773048025781200,4.58778125,-0.4494476318359375,-0.0096588134765625,-0.9032745361328125
1738773048035772200,4.597772216796875,-0.4489593505859375,-0.011138916015625,-0.902191162109375
1738773048045763000,4.60776318359375,-0.4502410888671875,-0.00970458984375,-0.9020538330078125
1738773048055754000,4.61775390625,-0.4488677978515625,-0.0108184814453125,-0.90118408203125
1738773048065745200,4.6277451171875,-0.4493408203125,-0.0105438232421875,-0.9032440185546875
1738773048075737000,4.637737060546875,-0.450042724609375,-0.0109405517578125,-0.9033050537109375
1738773048085728000,4.64772802734375,-0.44921875,-0.0106353759765625,-0.902008056640625
1738773048095719200,4.65771923828125,-0.4491424560546875,-0.00958251953125,-0.9029693603515625
1738773048105710000,4.6677099609375,-0.4494781494140625,-0.0101165771484375,-0.9024810791015625
1738773048115701000,4.677700927734375,-0.449462890625,-0.0105438232421875,-0.9019775390625
1738773048125692200,4.687692138671875,-0.447967529296875,-0.0103607177734375,-0.9022979736328125
1738773048135683000,4.69768310546875,-0.449859619140625,-0.011444091796875,-0.9026031494140625
1738773048145674000,4.707674072265625,-0.4487457275390625,-0.0108642578125,-0.9017791748046875
1738773048155666200,4.717666259765625,-0.448974609375,-0.0098724365234375,-0.903045654296875
1738773048165657000,4.727656982421875,-0.450897216796875,-0.01104736328125,-0.902557373046875
1738773048175648000,4.73764794921875,-0.449462890625,-0.0098114013671875,-0.9025726318359375
1738773048185639200,4.74763916015625,-0.4491424560546875,-0.0110931396484375,-0.903411865234375
1738773048195630000,4.757630126953125,-0.449493408203125,-0.0103302001953125,-0.9028472900390625
1738773048205621000,4.76762109375,-0.450958251953125,-0.0095367431640625,-0.9026336669921875
1738773048215612000,4.77761181640625,-0.4495697021484375,-0.00946044921875,-0.9025726318359375
1738773048225604400,4.787604248046875,-0.44818115234375,-0.009521484375,-0.902984619140625
1738773048235595300,4.79759521484375,-0.4486236572265625,-0.010345458984375,-0.9029541015625
1738773048245586400,4.80758642578125,-0.4490814208984375,-0.01190185546875,-0.9018707275390625
1738773048255577300,4.817577392578125,-0.45062255859375,-0.0086669921875,-0.901214599609375
1738773048265568300,4.827568359375,-0.44879150390625,-0.009613037109375,-0.9027099609375
1738773048275559200,4.83755908203125,-0.450103759765625,-0.0119476318359375,-0.9022064208984375
1738773048285550300,4.84755029296875,-0.4491119384765625,-0.0102081298828125,-0.9022369384765625
1738773048295541200,4.857541259765625,-0.44818115234375,-0.0095367431640625,-0.9012908935546875
1738773048305533400,4.867533447265625,-0.449859619140625,-0.0091705322265625,-0.9027099609375
1738773048315524400,4.8775244140625,-0.4514617919921875,-0.0101165771484375,-0.9019927978515625
1738773048325515300,4.887515380859375,-0.451385498046875,-0.010345458984375,-0.9017333984375
1738773048335506200,4.897506103515625,-0.450897216796875,-0.0119171142578125,-0.9021148681640625
1738773048345497300,4.907497314453125,-0.4486083984375,-0.0112457275390625,-0.901885986328125
1738773048355488300,4.91748828125,-0.4498291015625,-0.0108184814453125,-0.902374267578125
1738773048365479200,4.927479248046875,-0.44989013671875,-0.010711669921875,-0.902618408203125
1738773048375470300,4.93747021484375,-0.4494171142578125,-0.01031494140625,-0.901519775390625
1738773048385462300,4.947462158203125,-0.4494476318359375,-0.0106353759765625,-0.90118408203125
1738773048395453200,4.957453125,-0.4484710693359375,-0.0095367431640625,-0.9029541015625
1738773048405444400,4.9674443359375,-0.4481201171875,-0.0106964111328125,-0.901885986328125
1738773048415435300,4.977435302734375,-0.4490814208984375,-0.0093536376953125,-0.902587890625
1738773048425426200,4.98742626953125,-0.449920654296875,-0.009368896484375,-0.90277099609375
1738773048435417000,4.9974169921875,-0.4500732421875,-0.010345458984375,-0.9025421142578125
1738773048445408300,5.007408203125,-0.4498443603515625,-0.010101318359375,-0.90338134765625
1738773048455399200,5.017399169921875,-0.4491729736328125,-0.00927734375,-0.901702880859375
1738773048465390000,5.02739013671875,-0.4481964111328125,-0.01007080078125,-0.9024810791015625
1738773048475382300,5.03738232421875,-0.4487762451171875,-0.0094757080078125,-0.9022979736328125
1738773048485373200,5.047373291015625,-0.4497222900390625,-0.0100860595703125,-0.9015350341796875
1738773048495364000,5.057364013671875,-0.448944091796875,-0.0108489990234375,-0.9033203125
1738773048505355300,5.067355224609375,-0.44940185546875,-0.01007080078125,-0.9028167724609375
1738773048515346200,5.07734619140625,-0.4494171142578125,-0.0102386474609375,-0.9022064208984375
1738773048525337300,5.08733740234375,-0.44927978515625,-0.0105133056640625,-0.90179443359375
1738773048535328500,5.09732861328125,-0.4502105712890625,-0.01123046875,-0.90240478515625
1738773048545319400,5.1073193359375,-0.449981689453125,-0.009552001953125,-0.9019317626953125
1738773048555311000,5.11731103515625,-0.4507904052734375,-0.010528564453125,-0.9022064208984375
1738773048565302300,5.12730224609375,-0.4498748779296875,-0.010498046875,-0.9016876220703125
1738773048575293200,5.137293212890625,-0.449371337890625,-0.0105438232421875,-0.9024810791015625
1738773048585284400,5.147284423828125,-0.448883056640625,-0.0101470947265625,-0.9027099609375
1738773048595275500,5.157275634765625,-0.448516845703125,-0.0103302001953125,-0.9017486572265625
1738773048605266400,5.167266357421875,-0.448486328125,-0.01031494140625,-0.9023590087890625
1738773048615257300,5.17725732421875,-0.4500579833984375,-0.01068115234375,-0.90185546875
1738773048625249300,5.187249267578125,-0.449493408203125,-0.010101318359375,-0.902557373046875
1738773048635240200,5.197240234375,-0.4488372802734375,-0.010650634765625,-0.9017486572265625
1738773048645231400,5.2072314453125,-0.4489898681640625,-0.0109100341796875,-0.902191162109375
1738773048655222300,5.21722216796875,-0.4478607177734375,-0.0117340087890625,-0.9012603759765625
1738773048665213400,5.22721337890625,-0.4477996826171875,-0.0095672607421875,-0.90338134765625
1738773048675204400,5.237204345703125,-0.4503173828125,-0.009002685546875,-0.902130126953125
1738773048685195300,5.2471953125,-0.4491424560546875,-0.0111541748046875,-0.902587890625
1738773048695186400,5.2571865234375,-0.4491424560546875,-0.009796142578125,-0.90179443359375
1738773048705178400,5.267178466796875,-0.448272705078125,-0.00970458984375,-0.902191162109375
1738773048715169300,5.277169189453125,-0.4496002197265625,-0.0110015869140625,-0.901947021484375
1738773048725160400,5.287160400390625,-0.4500885009765625,-0.011322021484375,-0.900421142578125
1738773048735151400,5.2971513671875,-0.4490966796875,-0.011016845703125,-0.902008056640625
1738773048745142300,5.307142333984375,-0.4489288330078125,-0.009857177734375,-0.90301513671875
1738773048755133400,5.317133544921875,-0.4508209228515625,-0.0106658935546875,-0.9015045166015625
1738773048765124400,5.327124267578125,-0.449798583984375,-0.0096893310546875,-0.9020538330078125
1738773048775115300,5.337115234375,-0.4478912353515625,-0.010498046875,-0.90289306640625
1738773048785106200,5.347106201171875,-0.4489898681640625,-0.01019287109375,-0.9018096923828125
1738773048795098400,5.357098388671875,-0.4492950439453125,-0.0088958740234375,-0.9035186767578125
1738773048805089300,5.36708935546875,-0.44952392578125,-0.0098114013671875,-0.903350830078125
1738773048815080400,5.37708056640625,-0.4495697021484375,-0.012054443359375,-0.9029083251953125
1738773048825071400,5.3870712890625,-0.44970703125,-0.0102081298828125,-0.901824951171875
1738773048835062300,5.397062255859375,-0.449615478515625,-0.0103912353515625,-0.9015350341796875
1738773048845053200,5.40705322265625,-0.4488677978515625,-0.010498046875,-0.903350830078125
1738773048855044400,5.41704443359375,-0.4496612548828125,-0.010894775390625,-0.902618408203125
1738773048865036300,5.427036376953125,-0.4501800537109375,-0.010528564453125,-0.9027099609375
1738773048875027200,5.437027099609375,-0.449249267578125,-0.011016845703125,-0.902923583984375
1738773048885018400,5.447018310546875,-0.4495849609375,-0.0095367431640625,-0.9012298583984375
1738773048895009300,5.45700927734375,-0.4484710693359375,-0.0101165771484375,-0.9017333984375
1738773048905000200,5.467000244140625,-0.448822021484375,-0.011260986328125,-0.901824951171875
1738773048914991400,5.476991455078125,-0.449920654296875,-0.010406494140625,-0.9033660888671875
1738773048924982300,5.486982177734375,-0.447723388671875,-0.009674072265625,-0.9005126953125
1738773048934973200,5.49697314453125,-0.447540283203125,-0.0107269287109375,-0.90106201171875
1738773048944964400,5.50696435546875,-0.4506378173828125,-0.009857177734375,-0.9032745361328125
1738773048954956300,5.516956298828125,-0.4488983154296875,-0.010528564453125,-0.902313232421875
1738773048964947200,5.526947265625,-0.450531005859375,-0.0107269287109375,-0.903533935546875
1738773048974938400,5.5369384765625,-0.448486328125,-0.0110931396484375,-0.9019317626953125
1738773048984929300,5.54692919921875,-0.44879150390625,-0.011260986328125,-0.9014739990234375
1738773048994920200,5.556920166015625,-0.448089599609375,-0.00970458984375,-0.9023895263671875
1738773049004911000,5.5669111328125,-0.447845458984375,-0.010986328125,-0.9019927978515625
1738773049014902300,5.57690234375,-0.4488983154296875,-0.0106658935546875,-0.90191650390625
1738773049024893200,5.58689306640625,-0.4501953125,-0.009918212890625,-0.9030914306640625
1738773049034885400,5.596885498046875,-0.44854736328125,-0.0115814208984375,-0.9011077880859375
1738773049044876300,5.606876220703125,-0.4498748779296875,-0.0104217529296875,-0.9027099609375
1738773049054867200,5.6168671875,-0.4494781494140625,-0.01068115234375,-0.9022216796875
1738773049064858000,5.626858154296875,-0.4503631591796875,-0.010162353515625,-0.901458740234375
1738773049074849300,5.636849365234375,-0.4488677978515625,-0.010040283203125,-0.902862548828125
1738773049084840200,5.646840087890625,-0.4495086669921875,-0.009979248046875,-0.902435302734375
1738773049094831000,5.6568310546875,-0.44940185546875,-0.0095367431640625,-0.902069091796875
1738773049104822300,5.666822265625,-0.44873046875,-0.00958251953125,-0.9022064208984375
1738773049114814200,5.676814208984375,-0.4487762451171875,-0.0101470947265625,-0.90203857421875
1738773049124805000,5.68680517578125,-0.448883056640625,-0.009674072265625,-0.9024200439453125
1738773049134796300,5.69679638671875,-0.4499053955078125,-0.0095367431640625,-0.9032440185546875
1738773049144787200,5.706787109375,-0.44927978515625,-0.010467529296875,-0.901214599609375
1738773049154778400,5.7167783203125,-0.4493255615234375,-0.00958251953125,-0.902191162109375
1738773049164769300,5.726769287109375,-0.4473876953125,-0.010772705078125,-0.9034423828125
1738773049174760400,5.736760498046875,-0.44769287109375,-0.0117645263671875,-0.9019622802734375
1738773049184751400,5.74675146484375,-0.4495849609375,-0.009765625,-0.9015960693359375
1738773049194743300,5.756743408203125,-0.448638916015625,-0.009796142578125,-0.9015350341796875
1738773049204734200,5.766734130859375,-0.4495849609375,-0.0095672607421875,-0.9035797119140625
1738773049214725400,5.776725341796875,-0.4501800537109375,-0.010498046875,-0.9022674560546875
1738773049224716300,5.78671630859375,-0.44921875,-0.0108642578125,-0.90179443359375
1738773049234707200,5.796707275390625,-0.4498138427734375,-0.0103607177734375,-0.90142822265625
1738773049244698000,5.806697998046875,-0.4488067626953125,-0.0096588134765625,-0.902252197265625
1738773049254689000,5.81668896484375,-0.448638916015625,-0.0097198486328125,-0.9017333984375
1738773049264680200,5.82668017578125,-0.448486328125,-0.009857177734375,-0.9019927978515625
1738773049274672000,5.836672119140625,-0.4487457275390625,-0.0103912353515625,-0.9023895263671875
1738773049284663300,5.846663330078125,-0.4494781494140625,-0.0107421875,-0.9032745361328125
1738773049294654200,5.856654296875,-0.44866943359375,-0.0099334716796875,-0.90142822265625
1738773049304645000,5.86664501953125,-0.4498443603515625,-0.0106048583984375,-0.9021453857421875
1738773049314636000,5.876635986328125,-0.4500274658203125,-0.010528564453125,-0.9024658203125
1738773049324627200,5.886627197265625,-0.4484100341796875,-0.011199951171875,-0.90203857421875
1738773049334618000,5.8966181640625,-0.448638916015625,-0.0092926025390625,-0.9026031494140625
1738773049344609000,5.906609130859375,-0.44842529296875,-0.0109405517578125,-0.902130126953125
1738773049354601200,5.916601318359375,-0.44940185546875,-0.0098419189453125,-0.9019927978515625
1738773049364592000,5.926592041015625,-0.4496307373046875,-0.010101318359375,-0.9028778076171875
1738773049374583000,5.9365830078125,-0.450042724609375,-0.01043701171875,-0.9026336669921875
1738773049384574200,5.94657421875,-0.447906494140625,-0.0101318359375,-0.903045654296875
1738773049394565000,5.956565185546875,-0.44970703125,-0.0090789794921875,-0.902618408203125
1738773049404556000,5.96655615234375,-0.44879150390625,-0.0098114013671875,-0.900970458984375
1738773049414547000,5.976546875,-0.4497222900390625,-0.01068115234375,-0.90087890625
1738773049424538000,5.9865380859375,-0.44915771484375,-0.010772705078125,-0.9040679931640625
1738773049434530000,5.996530029296875,-0.4501190185546875,-0.009674072265625,-0.901611328125
1738773049444521200,6.006521240234375,-0.4488372802734375,-0.009857177734375,-0.90106201171875
1738773049454512000,6.01651220703125,-0.4498138427734375,-0.010406494140625,-0.9039764404296875
1738773049464503000,6.0265029296875,-0.4496002197265625,-0.010101318359375,-0.902496337890625
1738773049474494000,6.036493896484375,-0.4498138427734375,-0.0102996826171875,-0.9019927978515625
1738773049484485000,6.046485107421875,-0.4494476318359375,-0.0100555419921875,-0.902984619140625
1738773049494476000,6.05647607421875,-0.4485626220703125,-0.0104522705078125,-0.9020538330078125
1738773049504467000,6.066467041015625,-0.4488677978515625,-0.010101318359375,-0.9011077880859375
1738773049514459100,6.076459228515625,-0.449188232421875,-0.0116424560546875,-0.902313232421875
1738773049524450000,6.086449951171875,-0.4483795166015625,-0.0109710693359375,-0.9029541015625
1738773049534441000,6.09644091796875,-0.4485626220703125,-0.009521484375,-0.90155029296875
1738773049544432000,6.10643212890625,-0.4489898681640625,-0.011474609375,-0.903167724609375
1738773049554423000,6.116423095703125,-0.4485321044921875,-0.01104736328125,-0.902801513671875
1738773049564414000,6.1264140625,-0.44970703125,-0.0105133056640625,-0.902618408203125
1738773049574405000,6.136405029296875,-0.45074462890625,-0.00970458984375,-0.902374267578125
1738773049584396000,6.14639599609375,-0.449310302734375,-0.010498046875,-0.901641845703125
1738773049594388000,6.156387939453125,-0.4486083984375,-0.0105438232421875,-0.90118408203125
1738773049604379100,6.166379150390625,-0.448883056640625,-0.0101470947265625,-0.901092529296875
1738773049614370000,6.1763701171875,-0.448974609375,-0.009918212890625,-0.9026947021484375
1738773049624361000,6.18636083984375,-0.4497528076171875,-0.0108489990234375,-0.9037933349609375
1738773049634351900,6.196351806640625,-0.448944091796875,-0.01080322265625,-0.9028472900390625
1738773049644343000,6.206343017578125,-0.4487457275390625,-0.009674072265625,-0.9027099609375
1738773049654334000,6.216333984375,-0.449066162109375,-0.0093536376953125,-0.9029693603515625
1738773049664325000,6.2263251953125,-0.4495849609375,-0.0098419189453125,-0.902435302734375
1738773049674317000,6.236317138671875,-0.4491119384765625,-0.0096435546875,-0.9019622802734375
1738773049684308000,6.246307861328125,-0.4491424560546875,-0.0113525390625,-0.9016265869140625
1738773049694299000,6.256298828125,-0.449554443359375,-0.0111541748046875,-0.903594970703125
1738773049704290000,6.2662900390625,-0.4473876953125,-0.0101776123046875,-0.903564453125
1738773049714281000,6.276281005859375,-0.449554443359375,-0.0106964111328125,-0.9024810791015625
1738773049724272000,6.286272216796875,-0.4485321044921875,-0.010772705078125,-0.90283203125
1738773049734263300,6.29626318359375,-0.44866943359375,-0.00982666015625,-0.9034271240234375
1738773049744254200,6.306254150390625,-0.4491729736328125,-0.01092529296875,-0.902130126953125
1738773049754246000,6.316245849609375,-0.4488067626953125,-0.0103912353515625,-0.901580810546875
1738773049764237000,6.326237060546875,-0.4492340087890625,-0.010345458984375,-0.90203857421875
1738773049774228200,6.336228271484375,-0.4489898681640625,-0.011016845703125,-0.9010009765625
1738773049784219100,6.34621923828125,-0.4485626220703125,-0.0116119384765625,-0.9029693603515625
1738773049794210300,6.356210205078125,-0.44940185546875,-0.0107574462890625,-0.9025421142578125
1738773049804201200,6.366201171875,-0.45001220703125,-0.011199951171875,-0.9022216796875
1738773049814192000,6.376192138671875,-0.4471588134765625,-0.01141357421875,-0.9010162353515625
1738773049824183000,6.38618310546875,-0.4488067626953125,-0.0104827880859375,-0.9011993408203125
1738773049834175200,6.39617529296875,-0.44866943359375,-0.010101318359375,-0.901275634765625
1738773049844166100,6.406166259765625,-0.4491424560546875,-0.011505126953125,-0.9024658203125
1738773049854157000,6.416156982421875,-0.448974609375,-0.01104736328125,-0.9007110595703125
1738773049864148200,6.426148193359375,-0.449493408203125,-0.01043701171875,-0.9023590087890625
1738773049874139100,6.43613916015625,-0.4490203857421875,-0.0111846923828125,-0.90252685546875
1738773049884130000,6.446130126953125,-0.449249267578125,-0.0096588134765625,-0.9029388427734375
1738773049894121200,6.456121337890625,-0.4478759765625,-0.0096893310546875,-0.901580810546875
1738773049904112000,6.466112060546875,-0.449249267578125,-0.0095367431640625,-0.903350830078125
1738773049914104000,6.47610400390625,-0.4505767822265625,-0.010772705078125,-0.9025421142578125
1738773049924095200,6.48609521484375,-0.4490966796875,-0.010284423828125,-0.901092529296875
1738773049934086100,6.496086181640625,-0.4483795166015625,-0.01190185546875,-0.9045562744140625
1738773049944077000,6.5060771484375,-0.44781494140625,-0.0100250244140625,-0.9021453857421875
1738773049954068200,6.516068115234375,-0.4510498046875,-0.0091705322265625,-0.9015655517578125
1738773049964059100,6.52605908203125,-0.4496307373046875,-0.0106048583984375,-0.90289306640625
1738773049974050000,6.536050048828125,-0.44805908203125,-0.0096282958984375,-0.90216064453125
1738773049984041000,6.546041015625,-0.448974609375,-0.009368896484375,-0.9026641845703125
1738773049994033200,6.556033203125,-0.4477691650390625,-0.00970458984375,-0.9030914306640625
1738773050004024000,6.566024169921875,-0.4475860595703125,-0.0103302001953125,-0.902587890625
1738773050014015200,6.57601513671875,-0.4493560791015625,-0.0096435546875,-0.90203857421875
1738773050024006100,6.586006103515625,-0.4497833251953125,-0.01055908203125,-0.90338134765625
1738773050033997000,6.5959970703125,-0.44830322265625,-0.010162353515625,-0.902984619140625
1738773050043988000,6.605988037109375,-0.448211669921875,-0.009613037109375,-0.9018707275390625
1738773050053979100,6.615979248046875,-0.4488983154296875,-0.0105743408203125,-0.9016876220703125
1738773050063970000,6.625969970703125,-0.448638916015625,-0.0102691650390625,-0.902679443359375
1738773050073961000,6.6359609375,-0.449249267578125,-0.0094757080078125,-0.902679443359375
1738773050083953200,6.645953125,-0.4488677978515625,-0.0104522705078125,-0.9011077880859375
1738773050093944000,6.655944091796875,-0.4489593505859375,-0.0097503662109375,-0.9018707275390625
1738773050103935000,6.66593505859375,-0.4487762451171875,-0.0096588134765625,-0.9025115966796875
1738773050113926100,6.675926025390625,-0.4490509033203125,-0.01092529296875,-0.903289794921875
1738773050123917000,6.6859169921875,-0.4486083984375,-0.0099639892578125,-0.903472900390625
1738773050133908000,6.695907958984375,-0.4491424560546875,-0.01141357421875,-0.9017486572265625
1738773050143899100,6.705899169921875,-0.4485015869140625,-0.009765625,-0.902740478515625
1738773050153890000,6.71589013671875,-0.44970703125,-0.012237548828125,-0.9021759033203125
1738773050163882000,6.725882080078125,-0.4491119384765625,-0.011932373046875,-0.9013519287109375
1738773050173873200,6.735873046875,-0.449127197265625,-0.0097808837890625,-0.902069091796875
1738773050183864000,6.745864013671875,-0.4505767822265625,-0.0105133056640625,-0.9031219482421875
1738773050193855000,6.75585498046875,-0.4492034912109375,-0.01031494140625,-0.90130615234375
1738773050203846000,6.765845947265625,-0.4473419189453125,-0.0101318359375,-0.90203857421875
1738773050213837000,6.775837158203125,-0.448974609375,-0.010009765625,-0.901153564453125
1738773050223828200,6.785828125,-0.449493408203125,-0.01007080078125,-0.9015655517578125
1738773050233819100,6.795819091796875,-0.4483184814453125,-0.0093536376953125,-0.9025726318359375
1738773050243811300,6.805811279296875,-0.449737548828125,-0.010406494140625,-0.9027099609375
1738773050253802200,6.81580224609375,-0.4487457275390625,-0.0095977783203125,-0.9016571044921875
1738773050263793200,6.825793212890625,-0.4477081298828125,-0.0107879638671875,-0.903228759765625
1738773050273784300,6.835784423828125,-0.44830322265625,-0.0100860595703125,-0.9025115966796875
1738773050283775200,6.845775146484375,-0.4496917724609375,-0.0105438232421875,-0.90087890625
1738773050293766100,6.85576611328125,-0.45123291015625,-0.010955810546875,-0.902435302734375
1738773050303757300,6.86575732421875,-0.449615478515625,-0.0103912353515625,-0.9027252197265625
1738773050313748500,6.87574853515625,-0.4481201171875,-0.0092620849609375,-0.9015045166015625
1738773050323740200,6.885740234375,-0.447906494140625,-0.009246826171875,-0.902923583984375
1738773050333731000,6.89573095703125,-0.449462890625,-0.0107269287109375,-0.9016265869140625
1738773050343722200,6.90572216796875,-0.4484405517578125,-0.010467529296875,-0.9012908935546875
1738773050353713200,6.915713134765625,-0.450164794921875,-0.0100250244140625,-0.9020538330078125
1738773050363704300,6.925704345703125,-0.450439453125,-0.0088958740234375,-0.901641845703125
1738773050373695500,6.935695556640625,-0.4488372802734375,-0.010009765625,-0.903167724609375
1738773050383686400,6.945686279296875,-0.4486083984375,-0.0100555419921875,-0.9026336669921875
1738773050393677300,6.95567724609375,-0.44915771484375,-0.0097198486328125,-0.9021148681640625
1738773050403669200,6.965669189453125,-0.4498138427734375,-0.0102386474609375,-0.9018707275390625
1738773050413660200,6.97566015625,-0.4482421875,-0.0101776123046875,-0.9018096923828125
1738773050423651300,6.9856513671875,-0.4495697021484375,-0.0093994140625,-0.9026947021484375
1738773050433642500,6.995642578125,-0.448822021484375,-0.0111846923828125,-0.9016876220703125
1738773050443633400,7.00563330078125,-0.4487762451171875,-0.0111541748046875,-0.90216064453125
1738773050453624300,7.015624267578125,-0.4488525390625,-0.0104217529296875,-0.902008056640625
1738773050463615200,7.025615234375,-0.4481048583984375,-0.0098876953125,-0.902587890625
1738773050473607400,7.035607421875,-0.4488372802734375,-0.01055908203125,-0.903289794921875
1738773050483598300,7.045598388671875,-0.4482269287109375,-0.0113525390625,-0.9030609130859375
1738773050493589500,7.055589599609375,-0.4490509033203125,-0.00970458984375,-0.90252685546875
1738773050503580400,7.065580322265625,-0.4493255615234375,-0.0100555419921875,-0.9016265869140625
1738773050513571300,7.0755712890625,-0.4478607177734375,-0.0107421875,-0.9018402099609375
1738773050523562200,7.085562255859375,-0.4492950439453125,-0.01055908203125,-0.90155029296875
1738773050533553400,7.095553466796875,-0.4491729736328125,-0.0109100341796875,-0.9025421142578125
1738773050543544300,7.10554443359375,-0.4493408203125,-0.0110321044921875,-0.9027252197265625
1738773050553535200,7.11553515625,-0.450164794921875,-0.0104522705078125,-0.903045654296875
1738773050563527400,7.12552734375,-0.4495391845703125,-0.0106964111328125,-0.9017486572265625
1738773050573518300,7.135518310546875,-0.45001220703125,-0.0107269287109375,-0.901214599609375
1738773050583509200,7.14550927734375,-0.4481201171875,-0.0099334716796875,-0.9014892578125
1738773050593500400,7.15550048828125,-0.449737548828125,-0.011138916015625,-0.9027252197265625
1738773050603491300,7.1654912109375,-0.4492034912109375,-0.01165771484375,-0.9019775390625
1738773050613482200,7.175482177734375,-0.4493255615234375,-0.0107269287109375,-0.901702880859375
1738773050623473400,7.185473388671875,-0.448760986328125,-0.0101318359375,-0.901458740234375
1738773050633464300,7.19546435546875,-0.448516845703125,-0.009796142578125,-0.90191650390625
1738773050643456300,7.205456298828125,-0.4482574462890625,-0.0095367431640625,-0.9016571044921875
1738773050653447400,7.215447509765625,-0.4495086669921875,-0.00927734375,-0.901519775390625
1738773050663438300,7.225438232421875,-0.44842529296875,-0.0095367431640625,-0.9022064208984375
1738773050673429200,7.23542919921875,-0.44683837890625,-0.0109405517578125,-0.902496337890625
1738773050683420200,7.245420166015625,-0.44903564453125,-0.010528564453125,-0.901824951171875
1738773050693411300,7.255411376953125,-0.4478302001953125,-0.0093841552734375,-0.9024505615234375
1738773050703402200,7.26540234375,-0.4489593505859375,-0.0096282958984375,-0.9017486572265625
1738773050713394400,7.27539453125,-0.4480438232421875,-0.010711669921875,-0.902740478515625
1738773050723385300,7.28538525390625,-0.4478759765625,-0.0111846923828125,-0.902557373046875
1738773050733376300,7.295376220703125,-0.4485626220703125,-0.0099639892578125,-0.902130126953125
1738773050743367200,7.3053671875,-0.4499053955078125,-0.0108184814453125,-0.902740478515625
1738773050753358300,7.3153583984375,-0.4496917724609375,-0.010986328125,-0.901397705078125
1738773050763349200,7.325349365234375,-0.448486328125,-0.0096282958984375,-0.9020233154296875
1738773050773340200,7.335340087890625,-0.4495849609375,-0.0104522705078125,-0.9027862548828125
1738773050783331300,7.345331298828125,-0.4492950439453125,-0.009429931640625,-0.901092529296875
1738773050793323300,7.3553232421875,-0.4496612548828125,-0.0092926025390625,-0.902557373046875
1738773050803314200,7.365314208984375,-0.44903564453125,-0.010589599609375,-0.9025421142578125
1738773050813305300,7.375305419921875,-0.44891357421875,-0.0105438232421875,-0.9015045166015625
1738773050823296300,7.385296142578125,-0.4482879638671875,-0.0114288330078125,-0.9017181396484375
1738773050833287200,7.395287109375,-0.448760986328125,-0.010589599609375,-0.902069091796875
1738773050843278300,7.4052783203125,-0.44830322265625,-0.0095367431640625,-0.90277099609375
1738773050853269200,7.415269287109375,-0.4484100341796875,-0.0109710693359375,-0.9023590087890625
1738773050863260200,7.42526025390625,-0.4492340087890625,-0.0102691650390625,-0.9018707275390625
1738773050873252400,7.43525244140625,-0.448333740234375,-0.0107879638671875,-0.9028778076171875
1738773050883243300,7.4452431640625,-0.44915771484375,-0.009918212890625,-0.90203857421875
1738773050893234200,7.455234130859375,-0.4496917724609375,-0.01043701171875,-0.903472900390625
1738773050903225000,7.46522509765625,-0.4489288330078125,-0.01068115234375,-0.9022369384765625
1738773050913216300,7.47521630859375,-0.44952392578125,-0.010467529296875,-0.9014739990234375
1738773050923207200,7.485207275390625,-0.4495086669921875,-0.0099639892578125,-0.9026641845703125
1738773050933198300,7.4951982421875,-0.4493408203125,-0.010040283203125,-0.9015045166015625
1738773050943189500,7.505189453125,-0.44989013671875,-0.01031494140625,-0.9008941650390625
1738773050953181200,7.51518115234375,-0.449005126953125,-0.0113983154296875,-0.902252197265625
1738773050963172000,7.525172119140625,-0.448028564453125,-0.00994873046875,-0.9020538330078125
1738773050973163300,7.535163330078125,-0.4490203857421875,-0.010345458984375,-0.9025115966796875
1738773050983154200,7.545154296875,-0.44921875,-0.01025390625,-0.9018402099609375
1738773050993145300,7.555145263671875,-0.4496917724609375,-0.011077880859375,-0.9016876220703125
1738773051003136500,7.565136474609375,-0.4501190185546875,-0.0105438232421875,-0.903045654296875
1738773051013127400,7.57512744140625,-0.4500732421875,-0.0099945068359375,-0.9030609130859375
1738773051023118300,7.585118408203125,-0.4490509033203125,-0.0114898681640625,-0.9024200439453125
1738773051033110300,7.5951103515625,-0.4493255615234375,-0.00994873046875,-0.9016265869140625
1738773051043101200,7.60510107421875,-0.449127197265625,-0.0105743408203125,-0.90338134765625
1738773051053092400,7.61509228515625,-0.449371337890625,-0.0101318359375,-0.9029998779296875
1738773051063083500,7.62508349609375,-0.4492950439453125,-0.0098724365234375,-0.902801513671875
1738773051073074400,7.635074462890625,-0.44940185546875,-0.010162353515625,-0.9027557373046875
1738773051083065300,7.6450654296875,-0.4491729736328125,-0.0109100341796875,-0.902313232421875
1738773051093056300,7.65505615234375,-0.4490814208984375,-0.009765625,-0.9024200439453125
1738773051103047400,7.66504736328125,-0.448394775390625,-0.010284423828125,-0.90313720703125
1738773051113038300,7.675038330078125,-0.4487762451171875,-0.0106353759765625,-0.901824951171875
1738773051123030300,7.6850302734375,-0.44903564453125,-0.0113677978515625,-0.9015655517578125
1738773051133021400,7.695021484375,-0.4491119384765625,-0.010833740234375,-0.902191162109375
1738773051143012400,7.705012451171875,-0.44915771484375,-0.010467529296875,-0.9030609130859375
1738773051153003300,7.715003173828125,-0.4487152099609375,-0.010223388671875,-0.9018707275390625
1738773051162994400,7.724994384765625,-0.4490966796875,-0.009765625,-0.90234375
1738773051172985300,7.7349853515625,-0.448699951171875,-0.0100250244140625,-0.9023895263671875
1738773051182976300,7.744976318359375,-0.4490509033203125,-0.009765625,-0.90179443359375
1738773051192968400,7.754968505859375,-0.449432373046875,-0.0105438232421875,-0.9024200439453125
1738773051202959400,7.76495947265625,-0.44921875,-0.011566162109375,-0.902557373046875
1738773051212950300,7.7749501953125,-0.45013427734375,-0.0107269287109375,-0.9022369384765625
1738773051222942700,7.784942626953125,-0.4488983154296875,-0.011016845703125,-0.903076171875
1738773051232934000,7.794933837890625,-0.4485931396484375,-0.0095672607421875,-0.9022064208984375
1738773051242925000,7.804925048828125,-0.4490814208984375,-0.0099639892578125,-0.9014892578125
1738773051252916000,7.814916015625,-0.449951171875,-0.0103912353515625,-0.9026641845703125
1738773051262907100,7.8249072265625,-0.44952392578125,-0.0103759765625,-0.9026947021484375
1738773051272898000,7.83489794921875,-0.449005126953125,-0.010528564453125,-0.902130126953125
1738773051282889700,7.8448896484375,-0.4486236572265625,-0.01031494140625,-0.902252197265625
1738773051292881000,7.854880859375,-0.4492034912109375,-0.0113677978515625,-0.9024658203125
1738773051302872000,7.8648720703125,-0.4491119384765625,-0.0103759765625,-0.902313232421875
1738773051312863000,7.874863037109375,-0.4491119384765625,-0.009429931640625,-0.9022369384765625
1738773051322854000,7.88485400390625,-0.4496917724609375,-0.0093231201171875,-0.9014129638671875
1738773051332845000,7.894844970703125,-0.44921875,-0.0110931396484375,-0.901123046875
1738773051342836000,7.9048359375,-0.447845458984375,-0.0089263916015625,-0.901336669921875
1738773051352827000,7.914826904296875,-0.449676513671875,-0.00909423828125,-0.9027862548828125
1738773051362819000,7.924819091796875,-0.4490509033203125,-0.010528564453125,-0.9034271240234375
1738773051372810000,7.93481005859375,-0.4486236572265625,-0.0107879638671875,-0.9013214111328125
1738773051382801000,7.94480078125,-0.4486541748046875,-0.0105438232421875,-0.902923583984375
1738773051392792000,7.9547919921875,-0.4488372802734375,-0.01019287109375,-0.9028778076171875
1738773051402783000,7.964782958984375,-0.44927978515625,-0.0099029541015625,-0.901580810546875
1738773051412774000,7.97477392578125,-0.4478759765625,-0.0101318359375,-0.903167724609375
1738773051422765000,7.98476513671875,-0.4493560791015625,-0.0100250244140625,-0.902130126953125
1738773051432756000,7.994755859375,-0.4502105712890625,-0.009918212890625,-0.9014434814453125
1738773051442748000,8.004747802734375,-0.450103759765625,-0.01080322265625,-0.90203857421875
1738773051452739000,8.014739013671875,-0.4491729736328125,-0.0109405517578125,-0.9021148681640625
1738773051462730000,8.02472998046875,-0.44891357421875,-0.0099945068359375,-0.9030914306640625
1738773051472721000,8.034720947265624,-0.4477386474609375,-0.0096588134765625,-0.902008056640625
1738773051482712000,8.044712158203126,-0.4482574462890625,-0.0104522705078125,-0.90167236328125
1738773051492703000,8.054702880859375,-0.44915771484375,-0.0104217529296875,-0.9028167724609375
1738773051502694000,8.06469384765625,-0.448455810546875,-0.0101318359375,-0.9020843505859375
1738773051512684800,8.074684814453125,-0.44793701171875,-0.01019287109375,-0.9022674560546875
1738773051522677000,8.084677001953125,-0.4496917724609375,-0.01177978515625,-0.9026641845703125
1738773051532668000,8.09466796875,-0.4501953125,-0.0102081298828125,-0.901580810546875
1738773051542658800,8.104658935546874,-0.44873046875,-0.010101318359375,-0.902069091796875
1738773051552650000,8.11464990234375,-0.449951171875,-0.0106658935546875,-0.90081787109375
1738773051562641000,8.124640869140626,-0.4489898681640625,-0.010284423828125,-0.902740478515625
1738773051572631800,8.1346318359375,-0.4481964111328125,-0.0101165771484375,-0.9025421142578125
1738773051582623000,8.144623046875,-0.449737548828125,-0.0103607177734375,-0.901947021484375
1738773051592614000,8.15461376953125,-0.4491729736328125,-0.011260986328125,-0.9011688232421875
1738773051602605800,8.164605712890625,-0.4481201171875,-0.011138916015625,-0.9026336669921875
1738773051612597000,8.174596923828124,-0.4490203857421875,-0.0108642578125,-0.902496337890625
1738773051622588000,8.184587890625,-0.4485015869140625,-0.011688232421875,-0.90142822265625
1738773051632578800,8.194578857421876,-0.4496002197265625,-0.01025390625,-0.900787353515625
1738773051642570000,8.204570068359375,-0.449920654296875,-0.0103302001953125,-0.9022674560546875
1738773051652561000,8.214560791015625,-0.4486236572265625,-0.011444091796875,-0.90264892578125
1738773051662551800,8.2245517578125,-0.449951171875,-0.0104217529296875,-0.90240478515625
1738773051672542700,8.234542724609375,-0.448638916015625,-0.0105743408203125,-0.902191162109375
1738773051682535000,8.244534912109375,-0.4488372802734375,-0.010009765625,-0.9028472900390625
1738773051692525800,8.25452587890625,-0.448516845703125,-0.0096588134765625,-0.9026336669921875
1738773051702517000,8.26451708984375,-0.448822021484375,-0.0108795166015625,-0.9031219482421875
1738773051712508000,8.2745078125,-0.4495391845703125,-0.0096893310546875,-0.9033966064453125
1738773051722498800,8.284498779296875,-0.449554443359375,-0.01116943359375,-0.9025726318359375
1738773051732489700,8.29448974609375,-0.4492340087890625,-0.0110321044921875,-0.9013824462890625
1738773051742481000,8.30448095703125,-0.4491119384765625,-0.0092620849609375,-0.902099609375
1738773051752471800,8.314471923828124,-0.4499969482421875,-0.0103302001953125,-0.90240478515625
1738773051762463000,8.324462890625,-0.4495086669921875,-0.0114898681640625,-0.902557373046875
1738773051772455000,8.334454833984376,-0.4483184814453125,-0.010162353515625,-0.902313232421875
1738773051782445800,8.34444580078125,-0.44989013671875,-0.0103607177734375,-0.9030914306640625
1738773051792436700,8.354436767578125,-0.4493865966796875,-0.010833740234375,-0.901824951171875
1738773051802428000,8.364427978515625,-0.44879150390625,-0.0104217529296875,-0.9019317626953125
1738773051812418800,8.374418701171875,-0.4495086669921875,-0.0095977783203125,-0.902923583984375
1738773051822410000,8.384409912109374,-0.4497222900390625,-0.0101318359375,-0.90185546875
1738773051832401000,8.39440087890625,-0.448577880859375,-0.01025390625,-0.902496337890625
1738773051842392000,8.40439208984375,-0.449249267578125,-0.009033203125,-0.9016571044921875
1738773051852383700,8.4143837890625,-0.4482269287109375,-0.010894775390625,-0.903350830078125
1738773051862375000,8.424375,-0.448760986328125,-0.0108184814453125,-0.9019927978515625
1738773051872365800,8.43436572265625,-0.449371337890625,-0.0104522705078125,-0.9019775390625
1738773051882357000,8.44435693359375,-0.4496307373046875,-0.010955810546875,-0.9030609130859375
1738773051892348000,8.454347900390625,-0.448944091796875,-0.0093231201171875,-0.90264892578125
1738773051902339000,8.464339111328124,-0.4500274658203125,-0.010498046875,-0.9033203125
1738773051912330000,8.474330078125,-0.449737548828125,-0.0092315673828125,-0.90283203125
1738773051922321000,8.48432080078125,-0.4484100341796875,-0.009552001953125,-0.90301513671875
1738773051932313000,8.49431298828125,-0.4488677978515625,-0.0100860595703125,-0.901641845703125
1738773051942304000,8.504303955078125,-0.4485626220703125,-0.0093536376953125,-0.9018707275390625
1738773051952295000,8.514294921875,-0.4495849609375,-0.010986328125,-0.9027557373046875
1738773051962286000,8.5242861328125,-0.4491119384765625,-0.0097503662109375,-0.9021453857421875
1738773051972277000,8.534277099609374,-0.4468994140625,-0.0108184814453125,-0.901702880859375
1738773051982268000,8.544267822265626,-0.4496917724609375,-0.0110321044921875,-0.9016265869140625
1738773051992259000,8.554259033203126,-0.44891357421875,-0.009429931640625,-0.9023284912109375
1738773052002250000,8.56425,-0.44952392578125,-0.009735107421875,-0.9029083251953125
1738773052012242000,8.574241943359375,-0.4491424560546875,-0.0124664306640625,-0.901763916015625
1738773052022233000,8.584233154296875,-0.4477081298828125,-0.0117950439453125,-0.9011993408203125
1738773052032224000,8.59422412109375,-0.4487457275390625,-0.009368896484375,-0.902313232421875
1738773052042215000,8.60421484375,-0.4498138427734375,-0.01019287109375,-0.9028778076171875
1738773052052205800,8.614205810546874,-0.448455810546875,-0.0104827880859375,-0.9034881591796875
1738773052062197000,8.624197021484376,-0.4499359130859375,-0.011688232421875,-0.90252685546875
1738773052072188000,8.63418798828125,-0.450439453125,-0.01068115234375,-0.90167236328125
1738773052082178800,8.6441787109375,-0.4478912353515625,-0.0086517333984375,-0.9033203125
1738773052092171000,8.6541708984375,-0.448211669921875,-0.009918212890625,-0.903778076171875
1738773052102162000,8.664161865234375,-0.4493560791015625,-0.0096282958984375,-0.9034271240234375
1738773052112152800,8.67415283203125,-0.449310302734375,-0.0114593505859375,-0.9021453857421875
1738773052122144000,8.68414404296875,-0.450225830078125,-0.010833740234375,-0.90106201171875
1738773052132135000,8.694135009765626,-0.4497528076171875,-0.0102081298828125,-0.902557373046875
1738773052142125800,8.704125732421875,-0.4489288330078125,-0.0110321044921875,-0.9016265869140625
1738773052152117000,8.714116943359375,-0.449188232421875,-0.0100555419921875,-0.9024505615234375
1738773052162108000,8.72410791015625,-0.448944091796875,-0.0103302001953125,-0.90283203125
1738773052172098800,8.734098876953125,-0.4491729736328125,-0.0105438232421875,-0.9033203125
1738773052182091000,8.744091064453125,-0.4497528076171875,-0.0110015869140625,-0.901519775390625
1738773052192082000,8.75408203125,-0.448516845703125,-0.0115203857421875,-0.9024505615234375
1738773052202072800,8.76407275390625,-0.4483489990234375,-0.0113372802734375,-0.902252197265625
1738773052212064000,8.77406396484375,-0.4499053955078125,-0.0110626220703125,-0.902191162109375
1738773052222052900,8.784052978515625,-0.4488983154296875,-0.0102996826171875,-0.9033355712890625
1738773052232043800,8.794043701171875,-0.4485321044921875,-0.0106048583984375,-0.903839111328125
1738773052242034700,8.80403466796875,-0.4488983154296875,-0.009429931640625,-0.902923583984375
1738773052252025900,8.81402587890625,-0.44866943359375,-0.0101165771484375,-0.902740478515625
1738773052262017800,8.824017822265626,-0.4501190185546875,-0.0108489990234375,-0.9022369384765625
1738773052272009000,8.834009033203126,-0.448211669921875,-0.01007080078125,-0.902191162109375
1738773052282000000,8.843999755859375,-0.4488677978515625,-0.00970458984375,-0.90289306640625
1738773052291990800,8.85399072265625,-0.4486541748046875,-0.0107879638671875,-0.903228759765625
1738773052301981700,8.863981689453125,-0.448272705078125,-0.0087432861328125,-0.9031219482421875
1738773052311972900,8.873972900390624,-0.447662353515625,-0.0109100341796875,-0.9015655517578125
1738773052321963800,8.8839638671875,-0.4501953125,-0.0100250244140625,-0.90069580078125
1738773052331954700,8.89395458984375,-0.44970703125,-0.0095672607421875,-0.9033966064453125
1738773052341947000,8.90394677734375,-0.4476470947265625,-0.011260986328125,-0.9017486572265625
1738773052351937800,8.913937744140625,-0.4480743408203125,-0.0110626220703125,-0.90203857421875
1738773052361928700,8.9239287109375,-0.4488677978515625,-0.0103912353515625,-0.9040374755859375
1738773052371920000,8.933919921875,-0.4486541748046875,-0.0102996826171875,-0.902496337890625
1738773052381910800,8.943910888671875,-0.4488525390625,-0.0106353759765625,-0.90240478515625
1738773052391901700,8.953901611328124,-0.4496002197265625,-0.0114593505859375,-0.9025115966796875
1738773052401892900,8.963892822265626,-0.450927734375,-0.0113067626953125,-0.90283203125
1738773052411883800,8.9738837890625,-0.449798583984375,-0.0106048583984375,-0.9026641845703125
1738773052421874700,8.983874755859375,-0.44915771484375,-0.0109100341796875,-0.9017486572265625
1738773052431867000,8.993866943359375,-0.4483489990234375,-0.0102386474609375,-0.9018402099609375
1738773052441857800,9.00385791015625,-0.4494476318359375,-0.00994873046875,-0.9020538330078125
1738773052451848700,9.0138486328125,-0.4491424560546875,-0.01025390625,-0.9023590087890625
1738773052461839600,9.023839599609374,-0.4477691650390625,-0.01068115234375,-0.9034423828125
1738773052471830800,9.033830810546876,-0.450103759765625,-0.011016845703125,-0.9017181396484375
1738773052481821700,9.04382177734375,-0.4504241943359375,-0.009918212890625,-0.90234375
1738773052491812600,9.0538125,-0.448822021484375,-0.0104522705078125,-0.9019012451171875
1738773052501803800,9.0638037109375,-0.449249267578125,-0.010406494140625,-0.902069091796875
1738773052511795700,9.073795654296875,-0.4489593505859375,-0.010498046875,-0.902374267578125
1738773052521786600,9.08378662109375,-0.44793701171875,-0.009979248046875,-0.90191650390625
1738773052531777800,9.09377783203125,-0.4489898681640625,-0.010711669921875,-0.9029083251953125
1738773052541768700,9.103768798828124,-0.4494171142578125,-0.0099639892578125,-0.904052734375
1738773052551759600,9.113759521484376,-0.44781494140625,-0.0091400146484375,-0.903228759765625
1738773052561750800,9.123750732421875,-0.44842529296875,-0.0114593505859375,-0.9022674560546875
1738773052571741700,9.13374169921875,-0.449066162109375,-0.0093994140625,-0.903045654296875
1738773052581732900,9.14373291015625,-0.4481048583984375,-0.0102081298828125,-0.903900146484375
1738773052591724800,9.153724853515625,-0.449249267578125,-0.00897216796875,-0.9024200439453125
1738773052601715700,9.1637158203125,-0.4484100341796875,-0.010345458984375,-0.9025115966796875
1738773052611706600,9.17370654296875,-0.4487152099609375,-0.0103912353515625,-0.901519775390625
1738773052621697800,9.18369775390625,-0.4488983154296875,-0.0108795166015625,-0.902069091796875
1738773052631689000,9.19368896484375,-0.4485626220703125,-0.00958251953125,-0.90185546875
1738773052641680000,9.203679931640625,-0.4489288330078125,-0.00970458984375,-0.9019012451171875
1738773052651670800,9.2136708984375,-0.449859619140625,-0.0113677978515625,-0.9023895263671875
1738773052661662000,9.223661865234375,-0.447967529296875,-0.010528564453125,-0.9024200439453125
1738773052671653600,9.233653564453125,-0.448486328125,-0.0114593505859375,-0.902587890625
1738773052681644800,9.243644775390624,-0.4501800537109375,-0.0103302001953125,-0.9017333984375
1738773052691636000,9.253635986328124,-0.44818115234375,-0.009674072265625,-0.9011688232421875
1738773052701627000,9.263626953125,-0.4483184814453125,-0.01080322265625,-0.902069091796875
1738773052711617800,9.27361767578125,-0.449462890625,-0.0098876953125,-0.9022064208984375
1738773052721609000,9.28360888671875,-0.4489898681640625,-0.01043701171875,-0.9021148681640625
1738773052731600000,9.293599853515625,-0.449371337890625,-0.0105743408203125,-0.900970458984375
1738773052741590800,9.3035908203125,-0.44818115234375,-0.01043701171875,-0.9026031494140625
1738773052751582000,9.31358203125,-0.4479827880859375,-0.00921630859375,-0.9030609130859375
1738773052761574000,9.323573974609374,-0.449249267578125,-0.010986328125,-0.902252197265625
1738773052771564800,9.333564697265626,-0.450225830078125,-0.0113525390625,-0.9019317626953125
1738773052781556000,9.343555908203125,-0.44952392578125,-0.010650634765625,-0.9035797119140625
1738773052791547000,9.353546875,-0.449951171875,-0.0099639892578125,-0.9016571044921875
1738773052801537800,9.363537841796875,-0.450531005859375,-0.0109710693359375,-0.9028778076171875
1738773052811528700,9.37352880859375,-0.451385498046875,-0.0105438232421875,-0.902587890625
1738773052821520000,9.383519775390624,-0.448028564453125,-0.0103302001953125,-0.9023284912109375
1738773052831510800,9.3935107421875,-0.4499969482421875,-0.01116943359375,-0.9024810791015625
1738773052841503000,9.4035029296875,-0.4493408203125,-0.01019287109375,-0.90191650390625
1738773052851494000,9.413493896484376,-0.4488677978515625,-0.010589599609375,-0.902435302734375
1738773052861484800,9.42348486328125,-0.449493408203125,-0.0098876953125,-0.9025115966796875
1738773052871475700,9.433475830078125,-0.4485626220703125,-0.0106048583984375,-0.90252685546875
1738773052881467000,9.443466796875,-0.4500579833984375,-0.01123046875,-0.9027099609375
1738773052891457800,9.453457763671874,-0.4486846923828125,-0.0107574462890625,-0.9024810791015625
1738773052901448700,9.46344873046875,-0.45001220703125,-0.0104217529296875,-0.9016571044921875
1738773052911440000,9.47343994140625,-0.4495849609375,-0.0094757080078125,-0.9024658203125
1738773052921431800,9.483431884765626,-0.4489593505859375,-0.0103759765625,-0.9028778076171875
1738773052931422700,9.493422607421875,-0.4495391845703125,-0.0093231201171875,-0.9031524658203125
1738773052941414000,9.503413818359375,-0.4486846923828125,-0.010650634765625,-0.90203857421875
1738773052951404800,9.51340478515625,-0.4495086669921875,-0.0098114013671875,-0.90240478515625
1738773052961395700,9.523395751953124,-0.4490966796875,-0.0103912353515625,-0.9020538330078125
1738773052971387000,9.533386962890624,-0.4489898681640625,-0.0110015869140625,-0.9023590087890625
1738773052981377800,9.543377685546876,-0.448944091796875,-0.0104217529296875,-0.899749755859375
1738773052991368700,9.55336865234375,-0.4491424560546875,-0.010101318359375,-0.902252197265625
1738773053001359600,9.563359619140625,-0.4499664306640625,-0.0098419189453125,-0.9024505615234375
1738773053011351800,9.573351806640625,-0.44891357421875,-0.011688232421875,-0.9028167724609375
1738773053021342700,9.5833427734375,-0.448577880859375,-0.01019287109375,-0.9019775390625
1738773053031333600,9.593333740234375,-0.449188232421875,-0.010101318359375,-0.9024658203125
1738773053041324800,9.60332470703125,-0.449310302734375,-0.011077880859375,-0.9033966064453125
1738773053051315700,9.613315673828126,-0.4486846923828125,-0.01165771484375,-0.9020233154296875
1738773053061306600,9.623306640625,-0.450103759765625,-0.01031494140625,-0.901947021484375
1738773053071297800,9.6332978515625,-0.449310302734375,-0.0100250244140625,-0.901824951171875
1738773053081288700,9.643288818359375,-0.447845458984375,-0.0103607177734375,-0.9026641845703125
1738773053091280600,9.65328076171875,-0.4488372802734375,-0.0115966796875,-0.9019012451171875
1738773053101271800,9.663271728515625,-0.449615478515625,-0.011016845703125,-0.9018402099609375
1738773053111262700,9.6732626953125,-0.44879150390625,-0.0100250244140625,-0.902496337890625
1738773053121253600,9.683253662109376,-0.448944091796875,-0.0106048583984375,-0.902252197265625
1738773053131244800,9.693244873046876,-0.4491119384765625,-0.0097503662109375,-0.90155029296875
1738773053141235700,9.703235595703125,-0.44921875,-0.010772705078125,-0.902252197265625
1738773053151227000,9.713226806640625,-0.448150634765625,-0.0099029541015625,-0.9033966064453125
1738773053161217800,9.7232177734375,-0.448028564453125,-0.0102386474609375,-0.9022979736328125
1738773053171209700,9.733209716796875,-0.4498443603515625,-0.011138916015625,-0.901275634765625
1738773053181200600,9.74320068359375,-0.450775146484375,-0.011444091796875,-0.903106689453125
1738773053191191600,9.753191650390624,-0.449188232421875,-0.0104522705078125,-0.9018707275390625
1738773053201182700,9.7631826171875,-0.4485321044921875,-0.010589599609375,-0.902435302734375
1738773053211174000,9.773173828125,-0.4488067626953125,-0.0098419189453125,-0.9024810791015625
1738773053221164800,9.783164794921875,-0.447906494140625,-0.00982666015625,-0.9022674560546875
1738773053231156000,9.793156005859375,-0.4495697021484375,-0.0107269287109375,-0.902557373046875
1738773053241147000,9.80314697265625,-0.449127197265625,-0.0108642578125,-0.9022064208984375
1738773053251138000,9.813137939453124,-0.449676513671875,-0.010406494140625,-0.9021453857421875
1738773053261130000,9.8231298828125,-0.4492645263671875,-0.01019287109375,-0.90185546875
1738773053271121200,9.83312109375,-0.44903564453125,-0.0106201171875,-0.901611328125
1738773053281112000,9.843112060546876,-0.4498443603515625,-0.0101470947265625,-0.9014129638671875
1738773053291103000,9.85310302734375,-0.4492340087890625,-0.0110321044921875,-0.90228271484375
1738773053301094000,9.863093994140625,-0.4495697021484375,-0.008819580078125,-0.9030914306640625
1738773053311085000,9.8730849609375,-0.449310302734375,-0.00927734375,-0.9031219482421875
1738773053321076000,9.883075927734374,-0.4496002197265625,-0.0100555419921875,-0.901947021484375
1738773053331067000,9.89306689453125,-0.4485015869140625,-0.010650634765625,-0.9032135009765625
1738773053341059000,9.90305908203125,-0.4502716064453125,-0.0102691650390625,-0.9020233154296875
1738773053351050000,9.913050048828126,-0.4479827880859375,-0.008453369140625,-0.9012298583984375
1738773053361041000,9.923041015625,-0.448638916015625,-0.0100555419921875,-0.9011993408203125
1738773053371032000,9.933031982421875,-0.4503021240234375,-0.0085296630859375,-0.9022064208984375
1738773053381023000,9.94302294921875,-0.4492340087890625,-0.0102691650390625,-0.90283203125
1738773053391014000,9.953013916015625,-0.45025634765625,-0.0104827880859375,-0.902496337890625
1738773053401005000,9.963005126953124,-0.448211669921875,-0.0098724365234375,-0.9031219482421875
1738773053410996000,9.972995849609376,-0.44989013671875,-0.009796142578125,-0.9014892578125
1738773053420988000,9.98298779296875,-0.4485321044921875,-0.011077880859375,-0.90240478515625
1738773053430979000,9.99297900390625,-0.4501800537109375,-0.009246826171875,-0.9028472900390625
1738773053440970000,10.002969970703125,-0.449188232421875,-0.0103759765625,-0.90185546875
1738773053450961000,10.0129609375,-0.4494171142578125,-0.01025390625,-0.901885986328125
1738773053460951800,10.022951904296875,-0.4500274658203125,-0.0091705322265625,-0.90313720703125
1738773053470943000,10.03294287109375,-0.4489288330078125,-0.010162353515625,-0.901824951171875
1738773053480934000,10.042933837890626,-0.4498138427734375,-0.0112152099609375,-0.9009552001953125
1738773053490924800,10.0529248046875,-0.44903564453125,-0.0110931396484375,-0.9029541015625
1738773053500916000,10.062916015625,-0.44866943359375,-0.0102386474609375,-0.902435302734375
1738773053510908000,10.072907958984375,-0.4486846923828125,-0.0117340087890625,-0.902740478515625
1738773053520898800,10.08289892578125,-0.449310302734375,-0.0102996826171875,-0.901885986328125
1738773053530890000,10.092889892578125,-0.449493408203125,-0.0100555419921875,-0.9017486572265625
1738773053540881000,10.102880859375,-0.44873046875,-0.010284423828125,-0.90301513671875
1738773053550871800,10.112871826171874,-0.449554443359375,-0.0111541748046875,-0.9022216796875
1738773053560863000,10.122863037109376,-0.4487457275390625,-0.010467529296875,-0.9022216796875
1738773053570854000,10.13285400390625,-0.450286865234375,-0.0098114013671875,-0.9032745361328125
1738773053580844800,10.1428447265625,-0.4484710693359375,-0.0109100341796875,-0.9025115966796875
1738773053590837000,10.1528369140625,-0.4485321044921875,-0.0099639892578125,-0.9031829833984375
1738773053600828000,10.162827880859375,-0.4493408203125,-0.0108184814453125,-0.9011688232421875
1738773053610818800,10.17281884765625,-0.4495086669921875,-0.0096893310546875,-0.9030303955078125
1738773053620810000,10.18281005859375,-0.448699951171875,-0.0101165771484375,-0.90283203125
1738773053630801000,10.19280078125,-0.44873046875,-0.009765625,-0.90203857421875
1738773053640791800,10.202791748046875,-0.4478607177734375,-0.0108489990234375,-0.9020233154296875
1738773053650782700,10.21278271484375,-0.4501495361328125,-0.01153564453125,-0.9027099609375
1738773053660774000,10.22277392578125,-0.44879150390625,-0.0104217529296875,-0.90301513671875
1738773053670765800,10.232765869140625,-0.44964599609375,-0.0105133056640625,-0.9020538330078125
1738773053680756700,10.2427568359375,-0.447998046875,-0.0106353759765625,-0.9037628173828125
1738773053690748000,10.252747802734374,-0.4494171142578125,-0.0110015869140625,-0.9020843505859375
1738773053700738800,10.26273876953125,-0.4483642578125,-0.01092529296875,-0.903076171875
1738773053710729700,10.272729736328126,-0.4494781494140625,-0.0091705322265625,-0.903289794921875
1738773053720721000,10.282720947265625,-0.45001220703125,-0.0107879638671875,-0.90008544921875
1738773053730712000,10.292712158203125,-0.448486328125,-0.0108795166015625,-0.9026641845703125
1738773053740703000,10.302702880859375,-0.4502410888671875,-0.0093536376953125,-0.9029083251953125
1738773053750694000,10.31269384765625,-0.449432373046875,-0.0101776123046875,-0.9021453857421875
1738773053760685800,10.322685791015624,-0.4493408203125,-0.01007080078125,-0.9009857177734375
1738773053770676700,10.3326767578125,-0.4486846923828125,-0.0093536376953125,-0.9031524658203125
1738773053780668000,10.34266796875,-0.4492340087890625,-0.009765625,-0.9023895263671875
1738773053790659000,10.3526591796875,-0.4471893310546875,-0.0106964111328125,-0.901031494140625
1738773053800650000,10.36264990234375,-0.4483184814453125,-0.010528564453125,-0.9026336669921875
1738773053810641000,10.372640869140625,-0.44952392578125,-0.011016845703125,-0.9019927978515625
1738773053820632000,10.382632080078125,-0.4498748779296875,-0.01007080078125,-0.903045654296875
1738773053830623000,10.392623046875,-0.4504852294921875,-0.0104827880859375,-0.9023895263671875
1738773053840615000,10.402614990234374,-0.450439453125,-0.010101318359375,-0.9009246826171875
1738773053850606000,10.412606201171876,-0.4486083984375,-0.0102386474609375,-0.901763916015625
1738773053860597000,10.422596923828126,-0.4486236572265625,-0.0102996826171875,-0.9026947021484375
1738773053870588000,10.432587890625,-0.44891357421875,-0.011016845703125,-0.9027557373046875
1738773053880579000,10.4425791015625,-0.449066162109375,-0.0110626220703125,-0.9025726318359375
1738773053890570000,10.452570068359375,-0.4489288330078125,-0.009979248046875,-0.9014434814453125
1738773053900561000,10.462560791015624,-0.4496002197265625,-0.0099334716796875,-0.90179443359375
1738773053910552000,10.472552001953124,-0.4492034912109375,-0.0095672607421875,-0.902435302734375
1738773053920543000,10.48254296875,-0.4502716064453125,-0.0113372802734375,-0.901763916015625
1738773053930535000,10.492534912109376,-0.4481201171875,-0.010589599609375,-0.9022979736328125
1738773053940526000,10.502526123046875,-0.44921875,-0.010498046875,-0.9027099609375
1738773053950517000,10.51251708984375,-0.449127197265625,-0.0091400146484375,-0.9027862548828125
1738773053960508000,10.5225078125,-0.4495391845703125,-0.0104827880859375,-0.9020233154296875
1738773053970498800,10.532498779296875,-0.44903564453125,-0.0110321044921875,-0.9013824462890625
1738773053980490000,10.542489990234374,-0.4478912353515625,-0.0094757080078125,-0.90252685546875
1738773053990481000,10.55248095703125,-0.4482574462890625,-0.011077880859375,-0.902923583984375
1738773054000471800,10.562471923828125,-0.449615478515625,-0.0103759765625,-0.9021148681640625
1738773054010464000,10.572464111328125,-0.448455810546875,-0.0096588134765625,-0.9020538330078125
1738773054020455000,10.582454833984375,-0.448211669921875,-0.0106964111328125,-0.90325927734375
1738773054030445800,10.59244580078125,-0.449066162109375,-0.0106964111328125,-0.9037017822265625
1738773054040437000,10.60243701171875,-0.448760986328125,-0.0102691650390625,-0.9021759033203125
1738773054050428000,10.612427978515624,-0.449127197265625,-0.0101318359375,-0.902557373046875
1738773054060418800,10.622418701171876,-0.4479522705078125,-0.010284423828125,-0.903167724609375
1738773054070410000,10.632409912109376,-0.44976806640625,-0.0086517333984375,-0.901275634765625
1738773054080401000,10.64240087890625,-0.4490509033203125,-0.010162353515625,-0.9011383056640625
1738773054090391800,10.652391845703125,-0.4505615234375,-0.0110931396484375,-0.90301513671875
1738773054100384000,10.662384033203125,-0.4506988525390625,-0.0105743408203125,-0.9024658203125
1738773054110375000,10.672375,-0.4487762451171875,-0.0100860595703125,-0.90264892578125
1738773054120365800,10.68236572265625,-0.447601318359375,-0.0105438232421875,-0.90179443359375
1738773054130357000,10.69235693359375,-0.4489593505859375,-0.0101776123046875,-0.9024200439453125
1738773054140348000,10.702347900390626,-0.44873046875,-0.0106048583984375,-0.9017181396484375
1738773054150338800,10.7123388671875,-0.4495849609375,-0.009613037109375,-0.9011993408203125
1738773054160329700,10.722329833984375,-0.4493408203125,-0.010589599609375,-0.9026336669921875
1738773054170321000,10.73232080078125,-0.4484405517578125,-0.01031494140625,-0.900909423828125
1738773054180312800,10.742312744140625,-0.4478302001953125,-0.0091094970703125,-0.903289794921875
1738773054190303700,10.7523037109375,-0.4490966796875,-0.0103302001953125,-0.901092529296875
1738773054200295000,10.762294921875,-0.4485931396484375,-0.01007080078125,-0.9018402099609375
1738773054210285800,10.772285888671876,-0.44879150390625,-0.010284423828125,-0.9029541015625
1738773054220276700,10.78227685546875,-0.4489288330078125,-0.01123046875,-0.9024810791015625
1738773054230268200,10.79226806640625,-0.4493560791015625,-0.0096893310546875,-0.9009246826171875
1738773054240259000,10.802259033203125,-0.4495391845703125,-0.009796142578125,-0.90216064453125
1738773054250250000,10.81225,-0.449798583984375,-0.011474609375,-0.902130126953125
1738773054260242200,10.8222421875,-0.449127197265625,-0.010223388671875,-0.9023590087890625
1738773054270233000,10.832233154296874,-0.4488677978515625,-0.010833740234375,-0.9020233154296875
1738773054280224300,10.842224365234374,-0.449493408203125,-0.0112457275390625,-0.901641845703125
1738773054290215200,10.852215087890626,-0.4495391845703125,-0.0103759765625,-0.9027099609375
1738773054300206000,10.8622060546875,-0.449249267578125,-0.010345458984375,-0.9012603759765625
1738773054310197000,10.872197021484375,-0.4483184814453125,-0.0107879638671875,-0.901885986328125
1738773054320188200,10.882188232421875,-0.4485626220703125,-0.010955810546875,-0.902252197265625
1738773054330179300,10.892179443359375,-0.4477081298828125,-0.0108795166015625,-0.90118408203125
1738773054340170200,10.902170166015624,-0.448974609375,-0.01025390625,-0.90155029296875
1738773054350162200,10.912162109375,-0.4498748779296875,-0.0092315673828125,-0.9026031494140625
1738773054360153000,10.922153076171876,-0.448089599609375,-0.0107269287109375,-0.9018096923828125
1738773054370144300,10.932144287109375,-0.4505462646484375,-0.01153564453125,-0.9019775390625
1738773054380135400,10.942135498046875,-0.448486328125,-0.009918212890625,-0.902130126953125
1738773054390126300,10.952126220703125,-0.449493408203125,-0.01055908203125,-0.901519775390625
1738773054400117200,10.9621171875,-0.448272705078125,-0.0104522705078125,-0.902862548828125
1738773054410108200,10.972108154296874,-0.4491424560546875,-0.0098419189453125,-0.90191650390625
1738773054420099300,10.982099365234374,-0.4492034912109375,-0.0105743408203125,-0.9029998779296875
1738773054430091300,10.99209130859375,-0.4485321044921875,-0.0106353759765625,-0.90325927734375
1738773054440082400,11.00208251953125,-0.44989013671875,-0.01055908203125,-0.90216064453125
1738773054450073300,11.0120732421875,-0.4486846923828125,-0.0103302001953125,-0.9026641845703125
1738773054460064300,11.022064208984375,-0.4484100341796875,-0.010467529296875,-0.9024810791015625
1738773054470055200,11.03205517578125,-0.44952392578125,-0.0113983154296875,-0.9017333984375
1738773054480046300,11.04204638671875,-0.448638916015625,-0.010711669921875,-0.9022369384765625
1738773054490037200,11.052037353515624,-0.4492950439453125,-0.0108642578125,-0.9012451171875
1738773054500028200,11.062028076171876,-0.4478607177734375,-0.0099029541015625,-0.9026031494140625
1738773054510020400,11.072020263671876,-0.4485931396484375,-0.01019287109375,-0.902862548828125
1738773054520011300,11.08201123046875,-0.4489593505859375,-0.0109710693359375,-0.90252685546875
1738773054530002200,11.092002197265625,-0.44879150390625,-0.0111846923828125,-0.9032745361328125
1738773054539993300,11.101993408203125,-0.4503173828125,-0.01019287109375,-0.9023590087890625
1738773054549984300,11.111984375,-0.4495849609375,-0.010223388671875,-0.9024505615234375
1738773054559975200,11.12197509765625,-0.448516845703125,-0.009979248046875,-0.9014892578125
1738773054569966300,11.13196630859375,-0.44915771484375,-0.01007080078125,-0.9026336669921875
1738773054579957200,11.141957275390626,-0.4473876953125,-0.0100860595703125,-0.9025115966796875
1738773054589948200,11.1519482421875,-0.449432373046875,-0.0086212158203125,-0.9024505615234375
1738773054599940400,11.1619404296875,-0.4489288330078125,-0.010589599609375,-0.901702880859375
1738773054609931300,11.17193115234375,-0.449249267578125,-0.0115203857421875,-0.9023284912109375
1738773054619922200,11.181922119140625,-0.44891357421875,-0.009765625,-0.9011688232421875
1738773054629913000,11.1919130859375,-0.4492950439453125,-0.0103759765625,-0.9020843505859375
1738773054639904300,11.201904296875,-0.4490966796875,-0.0108184814453125,-0.9015960693359375
1738773054649895200,11.211895263671876,-0.44970703125,-0.0105743408203125,-0.902557373046875
1738773054659886000,11.221885986328125,-0.44940185546875,-0.0103912353515625,-0.9040985107421875
1738773054669877200,11.231877197265625,-0.44970703125,-0.010528564453125,-0.9017181396484375
1738773054679869200,11.241869140625,-0.4491729736328125,-0.01092529296875,-0.9033050537109375
1738773054689860000,11.251860107421875,-0.44873046875,-0.01019287109375,-0.9030609130859375
1738773054699851300,11.261851318359374,-0.4489898681640625,-0.0099945068359375,-0.902130126953125
1738773054709842200,11.27184228515625,-0.448944091796875,-0.00897216796875,-0.9019012451171875
1738773054719833000,11.2818330078125,-0.4490966796875,-0.009979248046875,-0.9017333984375
1738773054729824300,11.29182421875,-0.4497833251953125,-0.01055908203125,-0.901031494140625
1738773054739815200,11.301815185546875,-0.4486846923828125,-0.0109405517578125,-0.90283203125
1738773054749806000,11.31180615234375,-0.44940185546875,-0.0101165771484375,-0.9015655517578125
1738773054759797000,11.321796875,-0.4492950439453125,-0.0108489990234375,-0.9022216796875
1738773054769789200,11.3317890625,-0.450164794921875,-0.0101165771484375,-0.9021148681640625
1738773054779780000,11.341780029296874,-0.4492950439453125,-0.0101776123046875,-0.901824951171875
1738773054789771300,11.351771240234376,-0.4488983154296875,-0.0112152099609375,-0.902099609375
1738773054799762200,11.36176220703125,-0.449615478515625,-0.0104827880859375,-0.9009552001953125
1738773054809753000,11.371753173828125,-0.448333740234375,-0.010467529296875,-0.902740478515625
1738773054819744000,11.381743896484375,-0.448822021484375,-0.010162353515625,-0.9025726318359375
1738773054829735200,11.391735107421875,-0.44873046875,-0.0098114013671875,-0.9014434814453125
1738773054839726300,11.401726318359374,-0.44793701171875,-0.0113525390625,-0.9030609130859375
1738773054849718000,11.411718017578124,-0.4485931396484375,-0.010009765625,-0.9019012451171875
1738773054859709200,11.421709228515626,-0.448760986328125,-0.009857177734375,-0.9025421142578125
1738773054869700000,11.4317001953125,-0.4478912353515625,-0.009246826171875,-0.90374755859375
1738773054879691000,11.44169091796875,-0.448211669921875,-0.010009765625,-0.9024200439453125
1738773054889682200,11.45168212890625,-0.4496002197265625,-0.009124755859375,-0.901824951171875
1738773054899673300,11.46167333984375,-0.448577880859375,-0.011138916015625,-0.9030914306640625
1738773054909664300,11.471664306640625,-0.4490509033203125,-0.0098876953125,-0.902252197265625
1738773054919655400,11.481655517578124,-0.4490203857421875,-0.0101470947265625,-0.9023590087890625
1738773054929646300,11.491646240234376,-0.4489898681640625,-0.0108184814453125,-0.9027099609375
1738773054939638000,11.501637939453126,-0.4499359130859375,-0.0087738037109375,-0.9008026123046875
1738773054949629200,11.511629150390625,-0.450592041015625,-0.01025390625,-0.9026031494140625
1738773054959620400,11.521620361328125,-0.4488525390625,-0.0107421875,-0.9024200439453125
1738773054969611300,11.531611328125,-0.4492645263671875,-0.00921630859375,-0.9030303955078125
1738773054979602200,11.541602294921875,-0.448822021484375,-0.010467529296875,-0.902618408203125
1738773054989593300,11.55159326171875,-0.4494171142578125,-0.010711669921875,-0.9029693603515625
1738773054999584300,11.561584228515626,-0.4505767822265625,-0.01104736328125,-0.902252197265625
1738773055009575200,11.5715751953125,-0.4483184814453125,-0.01104736328125,-0.90252685546875
1738773055019567400,11.5815673828125,-0.45001220703125,-0.0107574462890625,-0.901824951171875
1738773055029558300,11.591558349609375,-0.4486083984375,-0.010498046875,-0.901641845703125
1738773055039549200,11.601549072265625,-0.4490966796875,-0.009429931640625,-0.9017791748046875
1738773055049540400,11.611540283203125,-0.449310302734375,-0.0103302001953125,-0.902740478515625
1738773055059531300,11.62153125,-0.4491424560546875,-0.0108489990234375,-0.9019622802734375
1738773055069522200,11.631522216796874,-0.450103759765625,-0.0094451904296875,-0.9021759033203125
1738773055079513300,11.641513427734376,-0.447723388671875,-0.0104522705078125,-0.9029541015625
1738773055089504300,11.651504150390625,-0.44842529296875,-0.010772705078125,-0.9022979736328125
1738773055099496200,11.66149609375,-0.4496307373046875,-0.010650634765625,-0.9021759033203125
1738773055109487400,11.6714873046875,-0.4492950439453125,-0.01116943359375,-0.9023284912109375
1738773055119478300,11.681478271484375,-0.4492034912109375,-0.0098114013671875,-0.9027557373046875
1738773055129469200,11.69146923828125,-0.4488983154296875,-0.010528564453125,-0.9019012451171875
1738773055139460400,11.70146044921875,-0.448760986328125,-0.0099945068359375,-0.902618408203125
1738773055149451300,11.711451171875,-0.4481353759765625,-0.009429931640625,-0.9021453857421875
1738773055159442200,11.721442138671875,-0.4503936767578125,-0.0101470947265625,-0.9027557373046875
1738773055169433000,11.73143310546875,-0.4483795166015625,-0.0101318359375,-0.9015960693359375
1738773055179424300,11.74142431640625,-0.4488677978515625,-0.01104736328125,-0.902099609375
1738773055189416200,11.751416259765625,-0.4503173828125,-0.0104217529296875,-0.9019622802734375
1738773055199407000,11.761406982421875,-0.4487762451171875,-0.0112457275390625,-0.90155029296875
1738773055209398300,11.771398193359374,-0.4494171142578125,-0.0091705322265625,-0.9034576416015625
1738773055219389200,11.78138916015625,-0.449310302734375,-0.0104217529296875,-0.9038543701171875
1738773055229380000,11.791380126953126,-0.4500885009765625,-0.0110321044921875,-0.90264892578125
1738773055239371000,11.80137109375,-0.448944091796875,-0.0114593505859375,-0.9019317626953125
1738773055249362000,11.81136181640625,-0.448638916015625,-0.0096588134765625,-0.901885986328125
1738773055259353000,11.82135302734375,-0.4488067626953125,-0.009368896484375,-0.9031524658203125
1738773055269345000,11.831344970703125,-0.44976806640625,-0.0106658935546875,-0.9015045166015625
1738773055279336000,11.8413359375,-0.4488067626953125,-0.0103912353515625,-0.901947021484375
1738773055289327000,11.8513271484375,-0.4485931396484375,-0.0103912353515625,-0.901336669921875
1738773055299318000,11.861318115234376,-0.4496917724609375,-0.0095977783203125,-0.9015655517578125
1738773055309309000,11.871308837890625,-0.45111083984375,-0.009002685546875,-0.9018096923828125
1738773055319299800,11.8812998046875,-0.447967529296875,-0.009368896484375,-0.90167236328125
1738773055329291000,11.891291015625,-0.4477386474609375,-0.01055908203125,-0.9025115966796875
1738773055339282000,11.901281982421875,-0.447906494140625,-0.0102081298828125,-0.902008056640625
1738773055349273000,11.911273193359374,-0.449798583984375,-0.00982666015625,-0.9027252197265625
1738773055359265000,11.92126513671875,-0.4491424560546875,-0.0099334716796875,-0.9024810791015625
1738773055369256000,11.931255859375,-0.4490203857421875,-0.010406494140625,-0.9008636474609375
1738773055379246800,11.941246826171875,-0.4493408203125,-0.0099639892578125,-0.9021148681640625
1738773055389238000,11.951238037109375,-0.4478607177734375,-0.011199951171875,-0.9012603759765625
1738773055399229000,11.96122900390625,-0.4475555419921875,-0.010528564453125,-0.901214599609375
1738773055409220000,11.97122021484375,-0.447265625,-0.0103759765625,-0.9010009765625
1738773055419211300,11.981211181640624,-0.4494781494140625,-0.01171875,-0.90216064453125
1738773055429203000,11.991202880859374,-0.4492645263671875,-0.0102996826171875,-0.9009857177734375
1738773055439193900,12.00119384765625,-0.44781494140625,-0.0106658935546875,-0.90362548828125
1738773055449185000,12.01118505859375,-0.44854736328125,-0.0101470947265625,-0.9015960693359375
1738773055459176000,12.021176025390625,-0.4492034912109375,-0.009063720703125,-0.90106201171875
1738773055469167000,12.0311669921875,-0.450103759765625,-0.0115814208984375,-0.9020538330078125
1738773055479158000,12.041157958984375,-0.4494476318359375,-0.010009765625,-0.9035186767578125
1738773055489149200,12.051149169921874,-0.448944091796875,-0.0111541748046875,-0.9038543701171875
1738773055499140000,12.06114013671875,-0.448638916015625,-0.010223388671875,-0.9029388427734375
1738773055509131000,12.071131103515626,-0.4491119384765625,-0.009033203125,-0.9013214111328125
1738773055519123200,12.081123291015626,-0.4476776123046875,-0.0109710693359375,-0.902313232421875
1738773055529114000,12.091114013671875,-0.45013427734375,-0.010162353515625,-0.902557373046875
1738773055539105000,12.10110498046875,-0.4495697021484375,-0.0084381103515625,-0.9027252197265625
1738773055549096200,12.11109619140625,-0.44940185546875,-0.0101470947265625,-0.9027862548828125
1738773055559087000,12.121087158203125,-0.4502105712890625,-0.0106353759765625,-0.90118408203125
1738773055569078000,12.131078125,-0.4484100341796875,-0.0109100341796875,-0.90069580078125
1738773055579069200,12.141069091796876,-0.44805908203125,-0.0101776123046875,-0.9029083251953125
1738773055589060000,12.15106005859375,-0.449371337890625,-0.0100860595703125,-0.9028167724609375
1738773055599052000,12.161052001953125,-0.449005126953125,-0.0113067626953125,-0.9030303955078125
1738773055609043200,12.171043212890625,-0.4489898681640625,-0.011077880859375,-0.9024810791015625
1738773055619034000,12.1810341796875,-0.4482269287109375,-0.0097503662109375,-0.9032440185546875
1738773055629025000,12.19102490234375,-0.4488677978515625,-0.0107574462890625,-0.90301513671875
1738773055639016200,12.20101611328125,-0.4488983154296875,-0.0105438232421875,-0.9031219482421875
1738773055649007000,12.211007080078126,-0.4486083984375,-0.0097198486328125,-0.9030303955078125
1738773055658998000,12.220998046875,-0.4482879638671875,-0.01025390625,-0.901824951171875
1738773055668989000,12.230989013671875,-0.4500732421875,-0.009765625,-0.902496337890625
1738773055678980000,12.24097998046875,-0.4482574462890625,-0.0108795166015625,-0.90264892578125
1738773055688972000,12.250971923828125,-0.4498291015625,-0.0094757080078125,-0.90228271484375
1738773055698963000,12.260962890625,-0.4506988525390625,-0.01055908203125,-0.9021148681640625
1738773055708954000,12.2709541015625,-0.4477691650390625,-0.009124755859375,-0.9020233154296875
1738773055718945000,12.280945068359374,-0.4492950439453125,-0.009796142578125,-0.9016571044921875
1738773055728936000,12.29093603515625,-0.4500579833984375,-0.0108642578125,-0.9024810791015625
1738773055738927000,12.300927001953125,-0.4494476318359375,-0.00994873046875,-0.901885986328125
1738773055748918000,12.31091796875,-0.4492034912109375,-0.009063720703125,-0.90277099609375
1738773055758909000,12.320908935546875,-0.4494781494140625,-0.009613037109375,-0.9021453857421875
1738773055768901000,12.330901123046875,-0.448944091796875,-0.0115814208984375,-0.901641845703125
1738773055778892000,12.34089208984375,-0.4501190185546875,-0.0099334716796875,-0.9030609130859375
1738773055788883000,12.350883056640624,-0.4489898681640625,-0.0092620849609375,-0.901824951171875
1738773055798874000,12.3608740234375,-0.4481658935546875,-0.0097503662109375,-0.902557373046875
1738773055808865000,12.370864990234375,-0.4483642578125,-0.011322021484375,-0.9027862548828125
1738773055818856000,12.38085595703125,-0.44818115234375,-0.010894775390625,-0.903472900390625
1738773055828846800,12.390846923828125,-0.449615478515625,-0.0107421875,-0.90179443359375
1738773055838838000,12.400838134765625,-0.4501495361328125,-0.0097198486328125,-0.9020538330078125
1738773055848830000,12.410829833984375,-0.44989013671875,-0.01123046875,-0.903472900390625
1738773055858821000,12.420821044921874,-0.449188232421875,-0.0107574462890625,-0.9022064208984375
1738773055868812000,12.43081201171875,-0.4501800537109375,-0.0089263916015625,-0.90167236328125
1738773055878803000,12.440802978515626,-0.4480438232421875,-0.011932373046875,-0.903564453125
1738773055888793900,12.4507939453125,-0.4485626220703125,-0.010284423828125,-0.9020538330078125
1738773055898785000,12.460784912109375,-0.449066162109375,-0.00946044921875,-0.90313720703125
1738773055908776000,12.47077587890625,-0.4491729736328125,-0.0105743408203125,-0.90283203125
1738773055918766800,12.480766845703124,-0.447998046875,-0.0092315673828125,-0.901519775390625
1738773055928759000,12.490759033203124,-0.44915771484375,-0.0096435546875,-0.9018096923828125
1738773055938750000,12.50075,-0.4492034912109375,-0.0091552734375,-0.90234375
1738773055948740900,12.510740966796876,-0.44818115234375,-0.0098114013671875,-0.9024505615234375
1738773055958732000,12.52073193359375,-0.4480743408203125,-0.0112152099609375,-0.9034271240234375
1738773055968723000,12.530722900390625,-0.4482269287109375,-0.0116729736328125,-0.9021759033203125
1738773055978714000,12.540714111328125,-0.4501190185546875,-0.0100860595703125,-0.902496337890625
1738773055988705300,12.550705322265625,-0.449188232421875,-0.0109710693359375,-0.902130126953125
1738773055998696200,12.5606962890625,-0.44769287109375,-0.0111541748046875,-0.9021759033203125
1738773056008687000,12.57068701171875,-0.4489898681640625,-0.0106964111328125,-0.9017333984375
1738773056018679000,12.580678955078126,-0.450653076171875,-0.0103759765625,-0.901947021484375
1738773056028670000,12.590669921875,-0.448822021484375,-0.0108795166015625,-0.90234375
1738773056038661000,12.6006611328125,-0.4496612548828125,-0.01141357421875,-0.90191650390625
1738773056048652000,12.610652099609375,-0.4497833251953125,-0.010284423828125,-0.9017333984375
1738773056058643200,12.620643310546875,-0.449615478515625,-0.0101165771484375,-0.9021759033203125
1738773056068634000,12.630634033203124,-0.447845458984375,-0.0105133056640625,-0.903228759765625
1738773056078625000,12.640625,-0.448577880859375,-0.0095062255859375,-0.901702880859375
1738773056088616200,12.6506162109375,-0.4496612548828125,-0.010498046875,-0.902313232421875
1738773056098608000,12.660608154296876,-0.44976806640625,-0.010894775390625,-0.901702880859375
1738773056108599000,12.67059912109375,-0.449462890625,-0.01153564453125,-0.9008026123046875
1738773056118590200,12.680590087890625,-0.44891357421875,-0.0103302001953125,-0.9035186767578125
1738773056128581000,12.6905810546875,-0.449188232421875,-0.0106201171875,-0.902069091796875
1738773056138572000,12.700572021484374,-0.449798583984375,-0.0095062255859375,-0.902435302734375
1738773056148563200,12.710563232421874,-0.4481353759765625,-0.010101318359375,-0.902618408203125
1738773056158554000,12.72055419921875,-0.449493408203125,-0.0100555419921875,-0.9024505615234375
1738773056168545000,12.730544921875,-0.44854736328125,-0.009918212890625,-0.9026641845703125
