time,seconds_elapsed,z,y,x
1738773043466077000,0.028076904296875,-0.04673720125555992,-0.02393427168652415,-0.06273147372305393
1738773043476068600,0.038068603515625,-0.0435007035523653,-0.013333455760404466,-0.0608329466253519
1738773043486060000,0.04806005859375,-0.05785246950984001,-0.023126307171350342,-0.05799626189470291
1738773043496051000,0.058051025390625,-0.06078033965528011,-0.012480747921206056,-0.06431318995654582
1738773043506041900,0.068041748046875,-0.042377837002277374,-0.018419006263231858,-0.06072188746631145
1738773043516033000,0.078032958984375,-0.043996378114819525,-0.007281717973388731,-0.06746727007329463
1738773043526024000,0.08802392578125,-0.04757131399214268,-0.015105424735834821,-0.060441901481151576
1738773043536014800,0.098014892578125,-0.0455003529369831,-0.006589991115871816,-0.07135317159593105
1738773043546007000,0.108007080078125,-0.04317454033792019,-0.008058218771219252,-0.06600654987096786
1738773043555998000,0.117998046875,-0.05180675960481167,-0.020854928173264488,-0.06303659414947033
1738773043565988900,0.12798876953125,-0.06031330666542053,-0.014329042669013142,-0.05945639757514
1738773043575980000,0.13797998046875,-0.046446693876385683,-0.018799027689918875,-0.06145195530653
1738773043585971000,0.147970947265625,-0.039597850894927976,-0.015138020964339374,-0.05253156674802303
1738773043595961900,0.1579619140625,-0.05200198991596698,-0.02290769598460756,-0.06660510028600693
1738773043605952800,0.167952880859375,-0.05369418078660965,-0.016134174128528682,-0.06156885968446731
1738773043615945000,0.177945068359375,-0.04381926798224449,-0.010055064277397469,-0.06037058981060981
1738773043625936000,0.187935791015625,-0.04039338518679142,-0.026166487718001008,-0.06365501830875873
1738773043635926800,0.1979267578125,-0.04632511332333088,-0.021125945400679483,-0.063682490837574
1738773043645918000,0.20791796875,-0.04299479985684156,-0.02130252581029199,-0.05337678540050983
1738773043655908900,0.217908935546875,-0.03864215760529041,-0.025776081894617525,-0.06310965938568115
1738773043665899800,0.227899658203125,-0.05292465771883726,-0.02347275512199849,-0.06315174496173859
1738773043675891000,0.237890869140625,-0.04790244564265012,-0.02550749408630654,-0.07598901470303535
1738773043685883000,0.2478828125,-0.04654489355385303,-0.01725321388687007,-0.05758885013759136
1738773043695873800,0.257873779296875,-0.0521843607455492,-0.01700491994791664,-0.05237433035969734
1738773043705865000,0.267864990234375,-0.04702887767851353,-0.003918479484831914,-0.06871873143911361
1738773043715856000,0.27785595703125,-0.0540314499169588,-0.00905625336524099,-0.053771337676048275
1738773043725846800,0.2878466796875,-0.05066285026669502,-0.030594743355875833,-0.057849546900391575
1738773043735838000,0.297837890625,-0.05052724118828773,-0.028834455685084685,-0.06218143862485885
1738773043745828900,0.307828857421875,-0.046863750244677066,-0.016768681772938,-0.07104688212573528
1738773043755820800,0.31782080078125,-0.04773001168519258,-0.01269319422864355,-0.07525251712203025
1738773043765812000,0.32781201171875,-0.048479076486825944,-0.011515382620925083,-0.05370411765873432
1738773043775803000,0.337802978515625,-0.03882657426148653,-0.019077872030762954,-0.0639180531591177
1738773043785793800,0.347793701171875,-0.04063391594439745,-0.013532238868670537,-0.06720423522293567
1738773043795785000,0.357784912109375,-0.03465776414424181,-0.028167908934596923,-0.06824585323035717
1738773043805776000,0.36777587890625,-0.043949324102699756,-0.029329500059876588,-0.06255144098103047
1738773043815766800,0.377766845703125,-0.049744566377997394,-0.018206285961158572,-0.06855623435378075
1738773043825757700,0.3877578125,-0.03666588909626007,-0.028847041172021998,-0.05332300938665867
1738773043835750000,0.39775,-0.0424725295484066,-0.017185592010756954,-0.06216448749005794
1738773043845740800,0.40774072265625,-0.04800853636562824,-0.0238375607132446,-0.06380874756574631
1738773043855731700,0.417731689453125,-0.027851298999786375,-0.029717366866301744,-0.06550561461150646
1738773043865723000,0.427722900390625,-0.06563420942723751,-0.0325004582461901,-0.06658698010742664
1738773043875713800,0.4377138671875,-0.06841039614230394,-0.03028869134769775,-0.062802200871706
1738773043885704700,0.44770458984375,-0.053826282733678815,-0.01883339575040154,-0.0622357991605997
1738773043895697000,0.45769677734375,-0.03009235592484474,0.005339844924304634,-0.06901449951529502
1738773043905687800,0.467687744140625,-0.03902560396492481,-0.002747727805562317,-0.06559329289495945
1738773043915678700,0.4776787109375,-0.04941664959788322,-0.006163436266873032,-0.06451192739903927
1738773043925670000,0.487669921875,-0.03316343393325805,-0.012915805737068875,-0.06799976951479911
1738773043935660800,0.497660888671875,-0.038032793535292146,-0.016520753160165623,-0.07835808192193508
1738773043945651700,0.507651611328125,-0.052413201065361494,-0.01232816030853428,-0.06952186451554299
1738773043955643000,0.517642822265625,-0.036522388972342015,-0.011245479638362303,-0.06549626226127148
1738773043965634800,0.527634765625,-0.043410394920408726,-0.012735243272082879,-0.061603930997848506
1738773043975625700,0.537625732421875,-0.05082885448336601,-0.015058462055260315,-0.06605038901269436
1738773043985617000,0.547616943359375,-0.05953355446457863,-0.014192538541462272,-0.06947919441759585
1738773043995607800,0.55760791015625,-0.04363514358699321,0.0005139408715069294,-0.06650339347720145
1738773044005598700,0.5675986328125,-0.04125730853974819,-0.012056905619101598,-0.06679506990015506
1738773044015590000,0.57758984375,-0.02759060223698616,-0.007523308176919818,-0.07774374941587447
1738773044025580800,0.587580810546875,-0.05250643230676651,-0.009619093146082013,-0.06588496931791304
1738773044035571700,0.59757177734375,-0.05223784449845552,-0.02346345757069066,-0.05524550188183784
1738773044045564000,0.60756396484375,-0.04981295543909073,-0.018551135609764603,-0.06588613836169242
1738773044055554800,0.617554931640625,-0.05648410376608371,-0.015422473062062635,-0.05873685112893581
1738773044065545700,0.627545654296875,-0.046079029607772826,-0.018751617484772578,-0.06251636966764927
1738773044075536600,0.63753662109375,-0.03664543083012104,-0.022605096308840437,-0.06895546280443668
1738773044085527800,0.64752783203125,-0.042187282866239545,-0.011466337581118568,-0.06521160010099411
1738773044095518700,0.657518798828125,-0.041186581391096114,-0.018044711324432864,-0.06788169609308242
1738773044105509600,0.667509521484375,-0.0433960741341114,-0.011749538436671718,-0.06131517718434334
1738773044115501800,0.677501708984375,-0.060170683324337004,-0.02049281686260365,-0.05764204162955284
1738773044125492700,0.68749267578125,-0.052795770642161365,-0.03799287251685746,-0.060131520357728
1738773044135483600,0.697483642578125,-0.05172784914970398,-0.00921642149616964,-0.054904725620150564
1738773044145474800,0.707474853515625,-0.029102760365605353,0.004828580067073926,-0.06419745462238788
1738773044155465700,0.7174658203125,-0.04001636856794357,-0.006692373778112232,-0.07557458868324757
1738773044165457000,0.727456787109375,-0.0486029951274395,-0.017505900873150675,-0.06544423981308936
1738773044175448000,0.737447998046875,-0.0504284569889307,-0.020937519289646298,-0.05734978068470955
1738773044185439700,0.747439697265625,-0.03994125750511884,-0.008231538644665852,-0.06670856066048145
1738773044195430700,0.7574306640625,-0.04636456855088472,-0.014737997929239645,-0.0637958880841732
1738773044205421800,0.767421875,-0.04012625868320465,-0.019398710616119204,-0.05965922667086124
1738773044215413500,0.77741357421875,-0.040970308291912075,-0.017339951455406843,-0.06731704794764519
1738773044225404400,0.787404296875,-0.043835050073266026,-0.017003458643192425,-0.06910159327685833
1738773044235395600,0.7973955078125,-0.045725978386402126,0.0004878474490251392,-0.05640928496420383
1738773044245387500,0.807387451171875,-0.04838672202825546,-0.007879145010421052,-0.06390753176510333
1738773044255378400,0.81737841796875,-0.046484687799215316,-0.024125556474924086,-0.07997194685935974
1738773044265369600,0.82736962890625,-0.042160687120258805,-0.019773316082172095,-0.05759469535648822
1738773044275360500,0.837360595703125,-0.06109101303964853,-0.01775087947701104,-0.05845569609999656
1738773044285351400,0.847351318359375,-0.03624035716056823,-0.01368458901932463,-0.056665305551886556
1738773044295342600,0.857342529296875,-0.04416851981133222,-0.009080182230100035,-0.07447334944307804
1738773044305333500,0.86733349609375,-0.0575587472602725,-0.019870501979487015,-0.06792728880047798
1738773044315325400,0.877325439453125,-0.055874447435140605,-0.02933473335742019,-0.061661214143037796
1738773044325316600,0.887316650390625,-0.04264320994019508,-0.018431655682250855,-0.06363806717395783
1738773044335307500,0.8973076171875,-0.04913052613288164,-0.016966926025087013,-0.06129121178686618
1738773044345298400,0.90729833984375,-0.04966331783533096,-0.022676243582600727,-0.05750760159492492
1738773044355289600,0.91728955078125,-0.053766076979041094,-0.018623680256167424,-0.06503215188086033
1738773044365280500,0.927280517578125,-0.024144261175394057,-0.017849535812204703,-0.06128828917741775
1738773044375271700,0.937271728515625,-0.04727203878462315,-0.017899685963708906,-0.06932721872627735
1738773044385263600,0.947263671875,-0.04343845197111368,-0.013659591575386001,-0.06697919429540634
1738773044395254500,0.957254638671875,-0.03677402564585209,-0.0017929204319138078,-0.049662148791551584
1738773044405245400,0.967245361328125,-0.05477496176064014,-0.012854650134360417,-0.06580079816579819
1738773044415236400,0.977236328125,-0.03701397188156843,-0.029738290923321618,-0.06091419516801834
1738773044425227500,0.9872275390625,-0.04484773424714803,-0.01347015168420039,-0.06627601446211338
1738773044435218700,0.99721875,-0.053982642339169974,-0.008440605684928595,-0.049961423999071115
1738773044445209600,1.007209716796875,-0.042621582630276676,-0.012799129687994718,-0.06110416478216648
1738773044455201500,1.017201416015625,-0.046644262275099754,-0.011968734145304187,-0.06889291896224022
1738773044465192400,1.0271923828125,-0.04587181659787893,-0.015422427396290003,-0.07339315299093722
1738773044475183400,1.037183349609375,-0.03963146090358496,-0.018132480939431116,-0.07209902152717113
1738773044485174500,1.047174560546875,-0.04357669139802456,-0.015384990595886484,-0.0539665679872036
1738773044495165700,1.057165771484375,-0.03019084786325693,-0.028761363049410283,-0.06507365293502808
1738773044505156600,1.067156494140625,-0.05634615660011768,-0.019915656295465305,-0.06823182470500469
1738773044515147800,1.077147705078125,-0.03958294558674097,-0.0023549382288474588,-0.06299684666097163
1738773044525138700,1.087138671875,-0.03299304580241442,-0.01928784325332381,-0.07527122182250022
1738773044535130600,1.097130615234375,-0.04106996927410364,-0.017089383360976353,-0.06390168654620647
1738773044545121800,1.107121826171875,-0.047018940806388854,0.005491126495879143,-0.07379588857293129
1738773044555112700,1.11711279296875,-0.036226913157105446,-0.009268800137378274,-0.0684188717097044
1738773044565103600,1.127103515625,-0.03321428733766079,-0.01990780178257264,-0.06423837115466595
1738773044575094800,1.1370947265625,-0.04756780686080456,-0.007284028661483899,-0.04763502687811851
1738773044585085700,1.147085693359375,-0.0465723660826683,-0.02214609136180952,-0.06347147843539715
1738773044595076600,1.15707666015625,-0.040859249132871624,-0.017156575978826732,-0.07470657367706299
1738773044605068800,1.16706884765625,-0.04437164116799831,-0.017271242733905092,-0.06172784963846206
1738773044615059700,1.177059814453125,-0.04574935926198959,0.006648826897330581,-0.06455693558454513
1738773044625050600,1.187050537109375,-0.03579904313385487,-0.013784962387569247,-0.0502279659807682
1738773044635041500,1.19704150390625,-0.044323125851154326,-0.01960657207998447,-0.06444646094739437
1738773044645032700,1.20703271484375,-0.04282411946505308,-0.017210808650404214,-0.06250234114229679
1738773044655023600,1.217023681640625,-0.05349018264710903,-0.008172200539708137,-0.06824234609901905
1738773044665014500,1.2270146484375,-0.04773498012125492,-0.004377685361262411,-0.0693248806387186
1738773044675006700,1.2370068359375,-0.04449351398199797,-0.018663692606147378,-0.06496084021031856
1738773044684997600,1.24699755859375,-0.03046849576085806,-0.005271930787246674,-0.059853872460126877
1738773044694988500,1.256988525390625,-0.05488397509306669,-0.00975523194745183,-0.06911912893354892
1738773044704979700,1.266979736328125,-0.04974398185610771,-0.014485648869676515,-0.06121463941931724
1738773044714970600,1.276970703125,-0.03658084116131067,-0.010077805832168087,-0.0585194089859724
1738773044724961500,1.28696142578125,-0.03258329595774412,-0.022888260631775483,-0.07076923422813415
1738773044734952700,1.29695263671875,-0.03588175298124552,-0.01767820696644485,-0.05400631547570228
1738773044744944600,1.306944580078125,-0.03674947572648525,-0.01164370344202034,-0.06105448042154312
1738773044754935600,1.316935546875,-0.05430208355188369,-0.0036074225079733876,-0.0544499675899744
1738773044764926700,1.3269267578125,-0.04403495655953884,-0.013364060961222276,-0.07118015311658382
1738773044774917600,1.336917724609375,-0.050936406511068344,-0.016404122776864094,-0.06496142473220824
1738773044784908500,1.346908447265625,-0.0561950576916337,-0.01977474998743273,-0.05642214444577694
1738773044794899700,1.356899658203125,-0.04135755404382944,-0.017167563163721932,-0.07244564300775527
1738773044804890600,1.366890625,-0.043159342768788335,-0.029977415175130587,-0.06585925035476684
1738773044814881500,1.376881591796875,-0.04138064265847206,-0.009172892881697044,-0.06480360382199286
1738773044824873700,1.386873779296875,-0.047801615616679186,-0.004464094136236235,-0.05373626636266708
1738773044834864600,1.39686474609375,-0.04244154988825321,-0.0003341090588830411,-0.05701368059813976
1738773044844855600,1.40685546875,-0.047502340409159655,0.00577072888854891,-0.06465864239335059
1738773044854846500,1.416846435546875,-0.044756256571412086,-0.011563313415879383,-0.07201718846261501
1738773044864837600,1.426837646484375,-0.03664017013311386,-0.02079505121218972,-0.0711374830186367
1738773044874828500,1.43682861328125,-0.040323827081918714,-0.018604591963207347,-0.07640285620093346
1738773044884819500,1.4468193359375,-0.03626256899237632,-0.021269436391443013,-0.062197805237770076
1738773044894811600,1.456811767578125,-0.05551672003865242,-0.006608275691233575,-0.06865677211880683
1738773044904802600,1.466802490234375,-0.03405249172747135,-0.01646831972002983,-0.05567103381752968
1738773044914793500,1.47679345703125,-0.042194297128915786,-0.010727602377254515,-0.06349485931098461
1738773044924784600,1.48678466796875,-0.050851650837063785,-0.021381865523662415,-0.06574994476139545
1738773044934775600,1.496775634765625,-0.04400689950883388,-0.015370003089308738,-0.06154021811187267
1738773044944766500,1.506766357421875,-0.03364361866563558,-0.0162301453162916,-0.06844283710718155
1738773044954757600,1.516757568359375,-0.0451519778907299,-0.009761305495211854,-0.06126724638938903
1738773044964749600,1.52674951171875,-0.04784720832407474,-0.012595999198174104,-0.058573769521713254
1738773044974740500,1.536740478515625,-0.05160743764042854,-0.006393582627782598,-0.07315349901616573
1738773044984731600,1.546731689453125,-0.0562362664848566,-0.013673729698592796,-0.06163666422367096
1738773044994722600,1.55672265625,-0.04128858046084642,-0.006938758887769654,-0.06013210487961769
1738773045004713500,1.56671337890625,-0.035708442240953445,-0.01814498422797769,-0.06090192020833492
1738773045014704400,1.576704345703125,-0.04600713341534138,-0.016869201271655036,-0.06600304273962974
1738773045024695600,1.586695556640625,-0.048432314735651016,-0.007303263084916398,-0.07451777310669422
1738773045034686500,1.5966865234375,-0.044859132423996924,-0.005936303846957162,-0.06388531993329524
1738773045044678700,1.6066787109375,-0.05578969176113605,-0.016855556338792665,-0.07525310164391993
1738773045054669600,1.616669677734375,-0.04596154070794582,-0.003974200860597193,-0.0741828420639038
1738773045064660500,1.626660400390625,-0.03852116157412529,-0.005915507654100656,-0.05972235503494739
1738773045074651400,1.6366513671875,-0.04835574236810207,-0.012772990599740295,-0.07695230677723884
1738773045084642600,1.646642578125,-0.04814648353159427,-0.017650478709302843,-0.06530979977846145
1738773045094633500,1.656633544921875,-0.050149640047550195,-0.005669323473842814,-0.06977087084054946
1738773045104624400,1.666624267578125,-0.03904313962161541,-0.006032064972165972,-0.07397767488062382
1738773045114616600,1.676616455078125,-0.040353053176403045,-0.008427408276638015,-0.06486907027363777
1738773045124607500,1.686607421875,-0.04962824652194976,-0.0028901958830188958,-0.052152212041616436
1738773045134598400,1.696598388671875,-0.03807780172079801,-0.017903613220155237,-0.06294073255956173
1738773045144589600,1.706589599609375,-0.041866964870691296,-0.007865016020368784,-0.05962532440125942
1738773045154580500,1.71658056640625,-0.03316752558648586,-0.0019142452566418796,-0.05559621501564979
1738773045164571600,1.726571533203125,-0.04716594806164503,-0.0017696126215625554,-0.06879939545989036
1738773045174562800,1.736562744140625,-0.0431827236443758,-0.0033926015803590415,-0.06570318301022052
1738773045184554500,1.746554443359375,-0.049962593042850494,-0.014487722095753996,-0.06358546020388603
1738773045194545400,1.75654541015625,-0.05035451496988535,-0.013352133061410858,-0.055308630245923994
1738773045204536600,1.76653662109375,-0.0437578931838274,-0.012758971207542344,-0.06339549058973788
1738773045214527500,1.776527587890625,-0.03831950152218341,0.004930871397769078,-0.07988134596645832
1738773045224518700,1.7865185546875,-0.044344753161072725,-0.007813733357703313,-0.05143032750785351
1738773045234509600,1.796509521484375,-0.03837327753603458,-0.019179158714460208,-0.06638648909926415
1738773045244500700,1.806500732421875,-0.041240357404947275,-0.010305641504982485,-0.06854395939409733
1738773045254491600,1.81649169921875,-0.04576134196072817,-0.00903163951379247,-0.06800210760235786
1738773045264483300,1.8264833984375,-0.05337532409578562,-0.015963475470431147,-0.06516893000304698
1738773045274474500,1.836474609375,-0.03611819208562374,-0.026316426715860142,-0.06833528507947921
1738773045284465700,1.846465576171875,-0.03667056527137756,-0.008902725037652999,-0.08077800254523754
1738773045294456600,1.85645654296875,-0.049534723019599915,-0.004646802892535925,-0.06835983499884606
1738773045304447700,1.86644775390625,-0.056201487432420254,-0.0009439937186893075,-0.07333119367063046
1738773045314438700,1.876438720703125,-0.03431611109972,-0.017663666984438896,-0.05015665431022644
1738773045324429600,1.8864296875,-0.05155015449523925,-0.0012655355569440871,-0.06106675538122654
1738773045334421800,1.896421875,-0.058225978997349735,-0.004449143162276596,-0.0625929420351982
1738773045344412700,1.90641259765625,-0.045503860068321224,-0.0022370200707577167,-0.061246788123250004
1738773045354403600,1.916403564453125,-0.046745969083905214,-0.013650659350259229,-0.06646189242303371
1738773045364394500,1.92639453125,-0.050341363227367396,-0.016563267994485795,-0.06705752022862434
1738773045374385700,1.9363857421875,-0.05434241556227207,-0.003072658044146374,-0.05794950014352798
1738773045384376600,1.94637646484375,-0.03981938469111919,-0.020040597849385812,-0.057952422752976414
1738773045394367500,1.956367431640625,-0.034731121641397474,-0.022382850126596167,-0.05451251143217087
1738773045404359700,1.966359619140625,-0.04711947857141494,-0.011735007587820291,-0.05632394476830959
1738773045414350600,1.9763505859375,-0.0466290647059679,-0.00558001035572961,-0.06846504893898964
1738773045424341500,1.986341552734375,-0.04620411729216575,-0.01006432529608719,-0.06965045933127403
1738773045434332700,1.996332763671875,-0.049618309649825096,-0.007938711444241926,-0.06637187605202198
1738773045444323600,2.006323486328125,-0.04841010290384292,-0.014777307026321067,-0.06772445970475673
1738773045454314500,2.016314453125,-0.044909985828399654,-0.01683838600828312,-0.05847673888802528
1738773045464305700,2.0263056640625,-0.03554302254617214,-0.014024451965559273,-0.06196282743811607
1738773045474296600,2.036296630859375,-0.05081891761124134,-0.0025393000861164182,-0.067194298350811
1738773045484288500,2.04628857421875,-0.047832595276832576,-0.013006169167952612,-0.06734101334512234
1738773045494279700,2.05627978515625,-0.04765256253480911,-0.008905099657829851,-0.06346621773838997
1738773045504270600,2.0662705078125,-0.04849076692461967,-0.01819972835620865,-0.06544190172553062
1738773045514261500,2.076261474609375,-0.0436553095921874,-0.013895245228474958,-0.06531447595357895
1738773045524252700,2.086252685546875,-0.04458148452639579,-0.00926758542782627,-0.06522679767012596
1738773045534243600,2.09624365234375,-0.035255730037391186,-0.01685717290714383,-0.05731997006833553
1738773045544234500,2.106234375,-0.04382335963547229,-0.007229777723597362,-0.06343640712201595
1738773045554225400,2.116225341796875,-0.05425298371315002,-0.010369153461558743,-0.05986790098547935
1738773045564217600,2.126217529296875,-0.05645166280120611,-0.022816684099752453,-0.05869301198720932
1738773045574208500,2.13620849609375,-0.03790712132900953,-0.010665953584201634,-0.056144496548175805
1738773045584199400,2.146199462890625,-0.03067220163941383,-0.014848883558344095,-0.07188391747176646
1738773045594190600,2.156190673828125,-0.03521013732999563,-0.018245120134204627,-0.07313187170624733
1738773045604181500,2.166181396484375,-0.03529898465722799,-0.016703608046937733,-0.06134089614748955
1738773045614172400,2.17617236328125,-0.040973230901360506,-0.018873353301454333,-0.07885492552816867
1738773045624163600,2.18616357421875,-0.0322530410900712,-0.006993968806881457,-0.0636129327327013
1738773045634155500,2.196155517578125,-0.04592734617739916,-0.011703342941077425,-0.06096621761620044
1738773045644146400,2.206146484375,-0.033499826280772686,-0.017999675739463417,-0.07503565950095653
1738773045654137600,2.2161376953125,-0.0514566309928894,-0.012928436889778822,-0.06336334188580513
1738773045664128500,2.22612841796875,-0.03976736224293709,-0.013922946086153387,-0.06636603083312512
1738773045674119400,2.236119384765625,-0.05124971024394035,-0.013407251648977398,-0.06204641406834125
1738773045684110600,2.246110595703125,-0.04363105193376541,-0.012892324396781623,-0.06952244903743267
1738773045694101500,2.2561015625,-0.033410102170705794,-0.0033566443509887903,-0.06774900962412357
1738773045704092400,2.266092529296875,-0.05037526549696922,-0.010758061447599903,-0.08463058632016182
1738773045714084600,2.276084716796875,-0.04748743510097265,-0.006001423238730058,-0.07402794376313686
1738773045724075500,2.286075439453125,-0.04827683191299438,-0.02490252306363545,-0.059792497661709784
1738773045734066400,2.29606640625,-0.04481938493549824,-0.016680619896994903,-0.0665361267030239
1738773045744057600,2.3060576171875,-0.04514847075939178,-0.007316159099107608,-0.07654781762957573
1738773045754048500,2.316048583984375,-0.02799713721126318,-0.007781867781560868,-0.06709200702011585
1738773045764039400,2.326039306640625,-0.02764467051178217,-0.013992449392098932,-0.05664484728574753
1738773045774030300,2.3360302734375,-0.05057341841757297,-0.01774359121969901,-0.05707622444033622
1738773045784022500,2.3460224609375,-0.03990647845268249,-0.008364462575642391,-0.05896773727536201
1738773045794013400,2.356013427734375,-0.050936406511068344,-0.0041391090987250205,-0.05824117656648159
1738773045804004400,2.36600439453125,-0.03713555243462324,-0.02422027642051689,-0.06379471904039383
1738773045813995500,2.37599560546875,-0.06044891574382782,-0.01082232232284732,-0.06515782408714293
1738773045823986400,2.385986328125,-0.04687456389963627,-0.0032587643339298663,-0.07209317630827426
1738773045833977300,2.395977294921875,-0.0396013580262661,-0.014050271393405273,-0.0657785863339901
1738773045843968500,2.405968505859375,-0.03755143975913525,-0.013928334647323935,-0.05977087035179138
1738773045853959700,2.415959716796875,-0.04990180276632308,-0.017483561177179217,-0.06848492268323898
1738773045863951400,2.425951416015625,-0.04673953934311866,-0.003920790172927081,-0.06520341679453849
1738773045873942500,2.435942626953125,-0.04388268860727548,-0.009224924463033676,-0.06924947731494903
1738773045883933400,2.445933349609375,-0.041805590072274204,-0.016693945169448852,-0.05861702414155006
1738773045893924400,2.45592431640625,-0.03844371242374182,-0.010731968025118112,-0.07211831074953079
1738773045903915500,2.46591552734375,-0.03903437179327011,-0.0030276772581040857,-0.06120002637207508
1738773045913906700,2.47590673828125,-0.0636649551808834,-0.009328768429998307,-0.07290040103793144
1738773045923897600,2.485897705078125,-0.04654781616330147,-0.018419645584048704,-0.06844108354151249
1738773045933889500,2.4958896484375,-0.042647009332478045,-0.02161607613833621,-0.06844692876040935
1738773045943880400,2.50588037109375,-0.04885112466961145,-0.0021915095617529,-0.06714052233695983
1738773045953871600,2.51587158203125,-0.045400107432901855,-0.01802358633801341,-0.06250643279552459
1738773045963862800,2.52586279296875,-0.04814093057364225,-0.00975385284111835,-0.07205985856056213
1738773045973853700,2.535853759765625,-0.04568213924467563,-0.02088409946882166,-0.06333996101021766
1738773045983844600,2.5458447265625,-0.03452215506583452,-0.012222982901008799,-0.07258592826128006
1738773045993835500,2.55583544921875,-0.03801321205198765,-0.005484970749728381,-0.07316051327884197
1738773046003826700,2.56582666015625,-0.03963292220830917,-0.012940876246243715,-0.0730237351566553
1738773046013818600,2.575818603515625,-0.04891746790409088,-0.019358698266139254,-0.06568856996297837
1738773046023809500,2.5858095703125,-0.0335012875854969,-0.002858193309558555,-0.061350833019614213
1738773046033800700,2.59580078125,-0.052823827692866324,-0.0063182067034766075,-0.06657821227908134
1738773046043791600,2.60579150390625,-0.046212885120511055,-0.01975644714576192,-0.07661737573444843
1738773046053782500,2.615782470703125,-0.041295886984467504,-0.010866408059746027,-0.06972469361126422
1738773046063773700,2.625773681640625,-0.04714578205645084,-0.013588654364179819,-0.0770499219328165
1738773046073764600,2.6357646484375,-0.043316579157114024,-0.01778648964650929,-0.0709586193203926
1738773046083756500,2.645756591796875,-0.04857289225012064,-0.008803511580033228,-0.05882803654372692
1738773046093747700,2.655747802734375,-0.03728548229932785,-0.013108232169784604,-0.05841185695827007
1738773046103738600,2.665738525390625,-0.04681435814499855,-0.001966642164159566,-0.05678863967061042
1738773046113729500,2.6757294921875,-0.0442284333050251,-0.007108809091895818,-0.07715981204807758
1738773046123720700,2.685720703125,-0.04123626575171947,-0.008330587705504149,-0.07656067711114883
1738773046133711600,2.695711669921875,-0.044103930142521855,-0.008858739765454083,-0.0603887099891901
1738773046143702500,2.70570263671875,-0.0531537902995944,-0.003462004421604797,-0.05758417396247387
1738773046153693400,2.715693359375,-0.03992985932826996,-0.017938109144801272,-0.07631751600503921
1738773046163685600,2.725685546875,-0.037167408877611156,-0.005510607514483854,-0.06752221513092517
1738773046173676500,2.735676513671875,-0.03680208269655704,-0.012651327848294749,-0.06396539943218231
1738773046183667700,2.745667724609375,-0.05154723188579082,-0.006614988559810444,-0.06384966409802437
1738773046193658600,2.75565869140625,-0.053173079521954054,-0.011954796951496973,-0.06580547434091567
1738773046203649500,2.7656494140625,-0.05597761554867029,-0.006331632440630346,-0.07562544208765029
1738773046213640400,2.775640380859375,-0.04967325470745563,-0.013358279674407093,-0.07069792255759239
1738773046223632000,2.7856318359375,-0.0410237920448184,-0.010835857657855375,-0.06088263098597526
1738773046233622800,2.795622802734375,-0.044351475162804126,-0.00256311021996662,-0.06460603542327881
1738773046243614700,2.80561474609375,-0.04273293405026197,-0.006340281537966803,-0.07087678625583649
1738773046253606000,2.81560595703125,-0.052285190771520135,-0.01688952254047617,-0.062059273549914355
1738773046263596800,2.8255966796875,-0.04282002781182527,-0.014559353426704183,-0.05594283649623394
1738773046273587700,2.835587646484375,-0.035436055040359495,-0.009529579098569229,-0.06913608006834983
1738773046283579000,2.845578857421875,-0.042704584738612175,-0.019348076407425103,-0.08039046453237533
1738773046293569800,2.85556982421875,-0.04581891736686229,-0.007495342457760125,-0.07097849306464195
1738773046303560700,2.865560791015625,-0.030684768860042094,-0.005370523190358654,-0.056473582372069356
1738773046313553000,2.875552978515625,-0.04731178627312183,-0.0038809330865740774,-0.06993219888210296
1738773046323543800,2.885543701171875,-0.05377922872155905,-0.0019105919948313385,-0.07769815670847892
1738773046333534700,2.89553466796875,-0.04463116888701915,-0.008082494695950298,-0.0697778851032257
1738773046343526000,2.90552587890625,-0.04047171112000942,-0.019867250576475634,-0.0703618224710226
1738773046353516800,2.915516845703125,-0.05277648141980171,-0.01749449356314726,-0.07199030045568942
1738773046363507700,2.9255078125,-0.04344575849473476,-0.007079957456747069,-0.06438683971464633
1738773046373498600,2.93549853515625,-0.042859190778434274,-0.010307029744470491,-0.055253100666403765
1738773046383489800,2.94548974609375,-0.030621055974066256,-0.010307002345006913,-0.05882862106561661
1738773046393481700,2.955481689453125,-0.032978725016117094,0.00048506183689460153,-0.07411094587147235
1738773046403473000,2.965472900390625,-0.04401274472773075,-0.00955844900002703,-0.054829322296380996
1738773046413463800,2.9754638671875,-0.04317278677225113,-0.0064170731012243775,-0.07327975574433804
1738773046423454700,2.985454833984375,-0.030326164680719372,-0.0025177093088161197,-0.0744663351804018
1738773046433445600,2.995445556640625,-0.04892857381999492,-0.00648422918645665,-0.06434241605103015
1738773046443436800,3.005436767578125,-0.04398234958946705,-0.0020825418950989843,-0.06748948190510272
1738773046453427700,3.015427734375,-0.046404608300328255,-0.01851173518113792,-0.06927110462486744
1738773046463418600,3.025418701171875,-0.04163374063670635,-0.01496526734647341,-0.06552139670252799
1738773046473410800,3.035410888671875,-0.04752279867529869,-0.004827310558594763,-0.07043254961967468
1738773046483401700,3.045401611328125,-0.04913140291571617,-0.008689675942016766,-0.07224749008715152
1738773046493392600,3.055392578125,-0.04341302526891231,-0.012118116020737216,-0.07106617134809494
1738773046503383800,3.0653837890625,-0.03846972364783287,-0.01956099763889797,-0.059846273675560946
1738773046513374700,3.075374755859375,-0.04170388326346874,-0.011929077988350764,-0.06690846714675426
1738773046523365600,3.08536572265625,-0.03763093473613262,-0.014317215233901514,-0.07141396187245845
1738773046533356800,3.095356689453125,-0.040457098072767254,-0.005669250408606603,-0.06618424452543259
1738773046543348700,3.1053486328125,-0.041512452344596384,-0.009917966494802385,-0.07201543489694595
1738773046553339600,3.115339599609375,-0.04525193113386631,-0.00832810348747298,-0.0717167442113161
1738773046563330800,3.125330810546875,-0.03629764030575752,0.004430182733479887,-0.06018295828402042
1738773046573321700,3.13532177734375,-0.05106266323924064,-0.015133737514866515,-0.061255555951595306
1738773046583312600,3.145312744140625,-0.033953707528114316,-0.005085705766454339,-0.07220423546731472
1738773046593303800,3.1553037109375,-0.042675650905072686,-0.010634252404840663,-0.059762687045335765
1738773046603295000,3.165294921875,-0.05268295791745185,-0.013267267789551987,-0.04854805006980896
1738773046613286000,3.175285888671875,-0.04488368234336376,-0.009076172775262967,-0.05888239707946777
1738773046623277800,3.18527783203125,-0.03850011878609657,-0.006616349399834871,-0.07531798357367515
1738773046633268700,3.195268798828125,-0.029014497560262677,0.002100214549107477,-0.08043488819599151
1738773046643259600,3.205259765625,-0.043511809468269345,0.0015213917478453366,-0.04737374559342861
1738773046653250800,3.215250732421875,-0.0362549702078104,-0.00993335586017929,-0.06521861436367035
1738773046663242000,3.225241943359375,-0.047153380841016765,-0.012201483455253764,-0.07675298481285571
1738773046673233000,3.23523291015625,-0.040459143899381156,-0.005445341992238536,-0.05937573355436325
1738773046683223800,3.245223876953125,-0.04322714730799198,-0.014927300823107361,-0.0749760382682085
1738773046693215000,3.255215087890625,-0.0429606053262949,-0.014614691209979354,-0.0652338119328022
1738773046703206700,3.26520654296875,-0.05089958163201808,-0.016835682594543322,-0.06448094773888588
1738773046713197800,3.27519775390625,-0.03177344087958336,-0.006521337193297222,-0.06760989341437816
1738773046723189000,3.28518896484375,-0.03964110551476478,-0.004600844858959317,-0.07751695492267609
1738773046733180000,3.295179931640625,-0.02719020474255085,-0.007906763669708744,-0.06675941406488418
1738773046743170800,3.3051708984375,-0.028650340422987936,-0.007525335737224668,-0.06797638863921165
1738773046753162000,3.315161865234375,-0.03631225335299969,-0.017961042495816947,-0.06257423733472824
1738773046763153000,3.32515283203125,-0.029290391892194748,-0.0127738582494203,-0.057332245028018945
1738773046773143800,3.335143798828125,-0.0347974648758769,-0.0015417586824391036,-0.06213526139557361
1738773046783136000,3.345135986328125,-0.03628448856323957,-0.013867516971332951,-0.07044540910124779
1738773046793127000,3.355126953125,-0.03439677512049675,-0.005341735487291589,-0.06877075388729571
1738773046803117800,3.365117919921875,-0.049291854174435136,-0.005379601545957848,-0.05548632490038871
1738773046813108700,3.375108642578125,-0.039678514915704725,-0.010330511084757745,-0.06126607734560966
1738773046823100000,3.385099853515625,-0.031571780827641484,-0.005359691269090399,-0.07818857057392596
1738773046833090800,3.3950908203125,-0.03969780413806438,-0.011344492166582494,-0.059311436146497726
1738773046843081700,3.405081787109375,-0.03989624931961298,-0.008695484628295525,-0.07125789452791213
1738773046853074000,3.415073974609375,-0.04481792363077402,0.0009084566144272685,-0.064083472853899
1738773046863064800,3.42506494140625,-0.049909109289944166,-0.004059230529237538,-0.05644961697459221
1738773046873055700,3.4350556640625,-0.0345949280411005,-0.004661644268641248,-0.06365794091820716
1738773046883047000,3.445046875,-0.03067395520508289,-0.012571257482562213,-0.062326400053501124
1738773046893037800,3.455037841796875,-0.02411532734185457,-0.004839147126860916,-0.06530570812523365
1738773046903028700,3.46502880859375,-0.04681669623255729,-0.005656573590124026,-0.06532733543515205
1738773046913020000,3.47502001953125,-0.04282674981355667,-0.004232897462556139,-0.07861936320662498
1738773046923010800,3.4850107421875,-0.05160071563869714,-0.007385233146790415,-0.06742343093156815
1738773046933002800,3.495002685546875,-0.054872284655272954,-0.010453836070327087,-0.05905307747125625
1738773046942994000,3.504993896484375,-0.042458501023054124,-0.0115649482505396,-0.06413900243341922
1738773046952984800,3.51498486328125,-0.04295066845417023,-0.009379110377747565,-0.06950491338074206
1738773046962975700,3.524975830078125,-0.040761633977293966,-0.003290556844836101,-0.06857903070747852
1738773046972967000,3.534966796875,-0.04765782323181629,-0.01172264129659161,-0.06558043341338635
1738773046982957800,3.544957763671875,-0.0471779307603836,-0.02351296840137802,-0.06514730269312859
1738773046992948700,3.55494873046875,-0.03047258741408586,-0.008524027918372304,-0.061978609529137606
1738773047002939600,3.564939697265625,-0.044125265191495414,-0.00410079551548697,-0.06181202079057693
1738773047012931800,3.574931884765625,-0.034872868199646474,-0.016878818483371288,-0.06367080039978026
1738773047022922800,3.5849228515625,-0.029787527759373187,-0.012095575395366176,-0.07391922269165516
1738773047032913700,3.59491357421875,-0.03680822017639875,-0.016445322436932475,-0.055070729836821555
1738773047042904800,3.60490478515625,-0.02900572973191738,-0.0007657145423348992,-0.06615443390905856
1738773047052895700,3.614895751953125,-0.03734539579302072,-0.0012580829028505831,-0.05929039335846901
1738773047062886700,3.62488671875,-0.0389019775852561,-0.01628834177693352,-0.07340192081928253
1738773047072877800,3.6348779296875,-0.04449877467900514,-0.01112981736944057,-0.06978080771267414
1738773047082868700,3.64486865234375,-0.042323768727481365,-0.007672881848597899,-0.07288871060013771
1738773047092860700,3.654860595703125,-0.034417817908525467,-0.011900317684747279,-0.06120587159097194
1738773047102851800,3.664851806640625,-0.04973141463547945,-0.012020199471060186,-0.0730026923686266
1738773047112842800,3.6748427734375,-0.03427987074255943,-0.011457651951164006,-0.06928045697510242
1738773047122833700,3.684833740234375,-0.035948388476669785,-0.015327433456061407,-0.06971826387047768
1738773047132824800,3.694824951171875,-0.05060147546827793,-0.006983273882931098,-0.07241758595705032
1738773047142815700,3.704815673828125,-0.04773556464314461,-0.0013108908023219555,-0.06285188523232936
1738773047152806700,3.714806640625,-0.026952888855338097,-0.002254363931203261,-0.06344166781902313
1738773047162797600,3.724797607421875,-0.04400806855261326,-0.008231209851102903,-0.07107435465455055
1738773047172789800,3.734789794921875,-0.032874680119752885,-0.008355512084206566,-0.06347323200106621
1738773047182780700,3.74478076171875,-0.038268063595890994,-0.02802948684459552,-0.06047814183831215
1738773047192771600,3.754771484375,-0.04392652774900198,-0.012312186421267688,-0.06423311045765877
1738773047202762800,3.7647626953125,-0.04266659081578254,-0.004252332815388217,-0.06995090358257293
1738773047212753700,3.774753662109375,-0.04122983601093292,-0.015060160822002216,-0.0649064796745777
1738773047222744000,3.784744140625,-0.03694002986252308,-0.0006677066611126065,-0.06607961510717869
1738773047232735200,3.7947353515625,-0.048745033946633334,0.0016176460633985697,-0.0800040955632925
1738773047242727200,3.80472705078125,-0.042215339916944504,-0.007242061816435307,-0.07309446230530739
1738773047252718000,3.814718017578125,-0.04269640143215656,0.0014197397379670292,-0.05197860904037952
1738773047262709200,3.824709228515625,-0.03652355801612139,-0.010010978540498762,-0.06786006878316402
1738773047272700200,3.8347001953125,-0.05542553462386131,-0.004354350151447579,-0.05646423002183437
1738773047282691000,3.844691162109375,-0.04211830928325653,-0.017636477583413943,-0.07142272970080375
1738773047292682000,3.854681884765625,-0.028201719872653484,-0.0068497562969103455,-0.06663491090238094
1738773047302673200,3.864673095703125,-0.04122720566242933,-0.013739817204745486,-0.06483516800403595
1738773047312664000,3.8746640625,-0.042670974729955194,-0.009458614487899466,-0.0727928490102291
1738773047322656300,3.88465625,-0.0474351203918457,-0.011929616844467817,-0.06786825208961964
1738773047332647200,3.894647216796875,-0.0435574021756649,-0.004929254829417914,-0.06546703616678715
1738773047342638000,3.90463818359375,-0.04605272612273693,-0.0089707579057198,-0.061001873451471324
1738773047352629000,3.91462890625,-0.04542261152565479,-0.018916078198328613,-0.06954641443490982
1738773047362620200,3.9246201171875,-0.0401718513906002,0.001440024474170059,-0.06940379109382629
1738773047372611000,3.934611083984375,-0.03702040162235498,0.0009754574360325932,-0.06207564016282558
1738773047382602000,3.94460205078125,-0.03474398112297058,-0.006178725167550146,-0.07196750410199165
1738773047392593200,3.95459326171875,-0.04809329203963279,-0.0012290486046113074,-0.07329904496669769
1738773047402585000,3.964585205078125,-0.050042964802682395,-0.004043978161178529,-0.0704535924077034
1738773047412576000,3.974575927734375,-0.03688566932678222,-0.0065741816253867,-0.07493804434537887
1738773047422567200,3.984567138671875,-0.02926964136511087,-0.02363639385164715,-0.06475508850514888
1738773047432558000,3.99455810546875,-0.04918459440767765,-0.007658661527000368,-0.0714817664116621
1738773047442549000,4.004549072265625,-0.04608399804383516,-0.006498887899471446,-0.06816869634091853
1738773047452540200,4.0145400390625,-0.04271539839357137,-0.0029132479650434105,-0.06064999127388
1738773047462531000,4.024531005859375,-0.0464373415261507,-0.004170554549759254,-0.06380173330307007
1738773047472522000,4.03452197265625,-0.048830666403472424,-0.013148207987146452,-0.06514847173690795
1738773047482514200,4.04451416015625,-0.0541623828202486,-0.012686864952556788,-0.06502630666196346
1738773047492505000,4.054505126953125,-0.046881870423257345,-0.018806096751522273,-0.06709551415145397
1738773047502496000,4.06449609375,-0.04845861822068691,-0.014920450957212596,-0.07124561956822872
1738773047512487000,4.07448681640625,-0.03750029409378767,-0.01152916455110535,-0.07515314840078353
1738773047522478000,4.08447802734375,-0.037647593609988685,-0.0136173781351652,-0.06662497403025627
1738773047532469000,4.094468994140625,-0.051855274921655654,-0.014642538198130205,-0.06498246752023697
1738773047542460000,4.1044599609375,-0.038836218872666355,-0.012760752172674982,-0.06363689813017845
1738773047552451000,4.114451171875,-0.048992578966915605,-0.006645703358482569,-0.05885843168199062
1738773047562443000,4.124443115234375,-0.043398412221670145,-0.019543872974161058,-0.07145604744851589
1738773047572434000,4.134433837890625,-0.032419337567687036,-0.008436669295327737,-0.0695388156503439
1738773047582425000,4.144425048828125,-0.04030278429389,-0.015603373453766107,-0.053850832653045654
1738773047592416000,4.154416015625,-0.03414659975171089,-0.0071651149895507835,-0.07406243055462837
1738773047602407000,4.164406982421875,-0.02724164266884327,-0.005642371534835547,-0.07197919453978538
1738773047612398000,4.174398193359375,-0.040699382396042344,-0.012640048402454702,-0.05612228471636772
1738773047622389000,4.184388916015625,-0.034680852758884426,-0.005885167314764112,-0.06571604249179362
1738773047632380000,4.1943798828125,-0.048911038163304325,-0.009661242654221133,-0.058825113934278486
1738773047642372000,4.2043720703125,-0.043049452653527255,0.0070376618181355296,-0.06676759737133979
1738773047652363000,4.214363037109375,-0.03437339424490928,-0.0016050423101522028,-0.07933657156527042
1738773047662354000,4.22435400390625,-0.03582067044377327,-0.007269936204049736,-0.06275134746730328
1738773047672345000,4.234344970703125,-0.026724925318360328,-0.007687677558930591,-0.06123918933868408
1738773047682336000,4.2443359375,-0.04203647621870041,-0.005736954483110458,-0.0812672473669052
1738773047692327000,4.254326904296875,-0.04541618178486824,-0.008879919550800695,-0.07486381006538867
1738773047702318000,4.264318115234375,-0.04333236124813557,-0.020707710855454205,-0.06677753424346447
1738773047712310000,4.27431005859375,-0.03445288922190666,-0.003227410214440897,-0.06979483623802661
1738773047722301000,4.284301025390625,-0.04393938723057508,-0.0111278172085993,-0.07245733344554901
1738773047732291800,4.294291748046875,-0.046452246834337706,-0.01637453135619871,-0.0714250677883625
1738773047742283000,4.304282958984375,-0.04738222116082907,-0.008441500734072177,-0.07125906357169151
1738773047752274000,4.31427392578125,-0.05202186366021633,-0.01980256957612,-0.059736968082189555
1738773047762265000,4.32426513671875,-0.043189153385162354,-0.009943986852047964,-0.07664777087271213
1738773047772256300,4.33425634765625,-0.038842064091563225,-0.0012098324474878609,-0.07171440612375736
1738773047782247200,4.3442470703125,-0.045673371416330336,-0.006460674780933186,-0.07622983772158622
1738773047792238800,4.35423876953125,-0.03240150965005159,-0.007420359259098768,-0.07343699213266372
1738773047802230000,4.36422998046875,-0.04213613720089197,-0.004942388305626809,-0.06340835007131099
1738773047812221000,4.374220947265625,-0.037632103779911996,-0.007937715930398553,-0.06446341208219528
1738773047822212000,4.384212158203125,-0.033388767121732235,-0.0041116457030642775,-0.07092530157268047
1738773047832203300,4.394203369140625,-0.03878331964164972,-0.008271788456663489,-0.06620762540102004
1738773047842194200,4.404194091796875,-0.04946691848039627,-0.00507393313026987,-0.06602817718088627
1738773047852185000,4.41418505859375,-0.047538580766320226,0.0015417495492845773,-0.06467208639681339
1738773047862176000,4.424176025390625,-0.04252747460603714,-0.0003200896666850895,-0.07518412806093693
1738773047872168200,4.434168212890625,-0.049960254955291744,-0.0009194803319405763,-0.07221592590510845
1738773047882159000,4.4441591796875,-0.05173018723726272,-0.009672129374416544,-0.07178045709729194
1738773047892150000,4.45414990234375,-0.04320961165130138,-0.006541932456754148,-0.06444412285983563
1738773047902141200,4.46414111328125,-0.03798223239183426,-0.011449331647390499,-0.06279284852147102
1738773047912132000,4.474132080078125,-0.04334346716403961,-0.009751733949268235,-0.06175707573294639
1738773047922123000,4.484123046875,-0.03646539808809757,-0.005739676163159311,-0.06654314096570015
1738773047932114200,4.4941142578125,-0.028198505002260208,-0.015882446123473344,-0.07314531570971011
1738773047942105000,4.50410498046875,-0.03827975403368473,-0.016180744083458556,-0.05605974087417125
1738773047952097000,4.514096923828125,-0.04314239163398743,-0.003187553128087893,-0.07150923894047737
1738773047962088200,4.524088134765625,-0.027828794907033442,-0.0021359434496145695,-0.06450140600502491
1738773047972079000,4.5340791015625,-0.036251755337417126,-0.008811713152797893,-0.05542728818953037
1738773047982070000,4.544070068359375,-0.04220891017615795,-0.014335965600144118,-0.06292319690287113
1738773047992061200,4.554061279296875,-0.03834522048532962,-0.0022020218226127325,-0.058121934100985526
1738773048002052000,4.564052001953125,-0.022463760742545125,-0.001048751001106575,-0.07189911504089831
1738773048012043000,4.57404296875,-0.03977233067899942,-0.015388324197288602,-0.0672854837656021
1738773048022034000,4.584033935546875,-0.04448942232877016,-0.009238779458450154,-0.07562602660953999
1738773048032026000,4.594026123046875,-0.03861760768592357,-0.011464145624032243,-0.07130348723530769
1738773048042017000,4.60401708984375,-0.04571721055805683,-0.011908939382620155,-0.06648176616728306
1738773048052008200,4.61400830078125,-0.045782677009701726,-0.009343673738185315,-0.06315759018063545
1738773048061999000,4.6239990234375,-0.03408084103912115,-0.0096584935747087,-0.06855915696322917
1738773048071990000,4.633989990234375,-0.04541150560975075,-0.012918792278598993,-0.08159925580024718
1738773048081981000,4.64398095703125,-0.04956716398447752,-0.014546621809294447,-0.07263795070946216
1738773048091972000,4.65397216796875,-0.03566869475245476,-0.0017465057406108825,-0.06888707374334335
1738773048101963000,4.663962890625,-0.036254385685920716,-0.008011164759099482,-0.07951894239485263
1738773048111955000,4.673954833984375,-0.04447334797680378,-0.012476354873878881,-0.06844985136985779
1738773048121946000,4.683946044921875,-0.03185410490036011,-0.008079791282210499,-0.07446107448339462
1738773048131937000,4.69393701171875,-0.03548047870397567,-0.020548063314333558,-0.06351999375224113
1738773048141928000,4.703927978515625,-0.03801701144427061,-0.01959370346525684,-0.0636737230092287
1738773048151919000,4.713919189453125,-0.0329477453559637,-0.0027713461431674658,-0.07054711591005325
1738773048161910000,4.723909912109375,-0.05354571222662925,-0.009414802745636552,-0.08201952703893184
1738773048171901000,4.73390087890625,-0.04490764774084091,-0.011653256721654907,-0.06554010140299797
1738773048181892000,4.74389208984375,-0.04262772011011839,-0.0006394669473171234,-0.07662965069413184
1738773048191884000,4.753884033203125,-0.040245501148700714,-0.01309679746031761,-0.06899170316159725
1738773048201875000,4.763875,-0.04940379011631012,-0.00038891711919568475,-0.06778057380616664
1738773048211866000,4.7738662109375,-0.04879530282914638,0.0003522292374633252,-0.06269990954101086
1738773048221857300,4.783857177734375,-0.04101239386796951,0.004772986555472016,-0.07392448338866234
1738773048231848200,4.79384814453125,-0.03560848899781704,-0.0027199447494931518,-0.07123918982744216
1738773048241839400,4.80383935546875,-0.04053513174504041,-0.021276121860556302,-0.06915010859370231
1738773048251830300,4.813830322265625,-0.04690437451601028,-0.00573822399158962,-0.055415597751736635
1738773048261821200,4.8238212890625,-0.04830108957141638,0.011397647125925867,-0.06938041021823883
1738773048271813400,4.8338134765625,-0.04321808721870184,-0.015035894030425696,-0.0705757574826479
1738773048281804300,4.84380419921875,-0.04007452849596738,-0.020111991718318314,-0.06907996596693992
1738773048291795200,4.853795166015625,-0.03405366077125072,0.002747307680454105,-0.06236380945444107
1738773048301786000,4.8637861328125,-0.03788111010491848,0.0017645985197275876,-0.06321896497905254
1738773048311777300,4.87377734375,-0.05894727900922298,-0.0028163451955188065,-0.06727613141536712
1738773048321768200,4.883768310546875,-0.0561100097566843,0.0007129157760180533,-0.05545300715267658
1738773048331759000,4.893759033203125,-0.06405483128130436,-0.01277187635488808,-0.06711772598326206
1738773048341750300,4.903750244140625,-0.044615386795997615,-0.026676117740571496,-0.0681570059031248
1738773048351742200,4.9137421875,-0.04467851516008377,-0.005301577006839216,-0.06857435453236102
1738773048361733000,4.923733154296875,-0.04337883073836565,-0.015868919921619817,-0.06840192057490349
1738773048371724300,4.933724365234375,-0.03830956465005875,-0.0025806458766572176,-0.06240764859616756
1738773048381715200,4.943715087890625,-0.05432137277424335,-0.006125387545116245,-0.05342880784869194
1738773048391706000,4.9537060546875,-0.038055882149934765,-0.008042244883952662,-0.06268412744998932
1738773048401697300,4.963697265625,-0.02775748323649168,-0.0002856576741207391,-0.06775836197435856
1738773048411688400,4.9736884765625,-0.03688070089071989,-0.004867743033682927,-0.07045476145148277
1738773048421679400,4.983679443359375,-0.041406653882563114,-0.0059249148032628,-0.06879179667532444
1738773048431671300,4.99367138671875,-0.04713964457660913,-0.006319640608737245,-0.06375614059567451
1738773048441662200,5.003662109375,-0.05002776723355055,-0.005854580380255356,-0.0774988347440958
1738773048451653000,5.013653076171875,-0.04323240800499916,-0.0013532321067061274,-0.060246671169996255
1738773048461644300,5.023644287109375,-0.04370294812619686,-0.002830236723553389,-0.0680178896933794
1738773048471635500,5.033635498046875,-0.026709727749228477,-0.0022175299189984795,-0.0699304453164339
1738773048481626400,5.04362646484375,-0.04249707946777344,0.001068085889238864,-0.06226151812374591
1738773048491617300,5.0536171875,-0.033396658167243,-0.013034737675311043,-0.0632943683028221
1738773048501608400,5.0636083984375,-0.04817132571190595,-0.008304320753086358,-0.07895137163996696
1738773048511600000,5.07360009765625,-0.037033845625817775,-0.0063805861488915976,-0.07307283499538898
1738773048521591300,5.08359130859375,-0.03658113342225552,-0.007058540209382772,-0.0636480040460825
1738773048531582500,5.09358251953125,-0.05380348637998104,-0.012550561754405498,-0.06932780324816704
1738773048541573400,5.103573486328125,-0.046124622315168375,-0.008368216302152722,-0.06561024402976036
1738773048551564300,5.113564208984375,-0.04949848266243934,-0.012069692035438492,-0.06541910537183285
1738773048561555500,5.123555419921875,-0.062086161556839936,-0.011064761909749359,-0.0643622897952795
1738773048571546400,5.13354638671875,-0.0467032989859581,-0.006251014085626229,-0.06704115361571311
1738773048581537300,5.143537353515625,-0.037604631251096726,-0.011424343336606397,-0.06328443143069744
1738773048591529500,5.153529541015625,-0.03337619990110397,-0.0031904848706908523,-0.06734393595457076
1738773048601520400,5.163520263671875,-0.04009995519816875,-0.0056360057261306785,-0.06839782892167567
1738773048611511300,5.17351123046875,-0.041568274185061455,-0.008258444917900487,-0.06811199771761894
1738773048621502500,5.18350244140625,-0.050393677936494345,-0.012624147580424324,-0.0664665685981512
1738773048631493400,5.193493408203125,-0.043109658408164976,0.000053383288206532594,-0.06569441518187523
1738773048641484300,5.203484375,-0.03334814285039901,-0.0154759020160418,-0.06945289093255996
1738773048651475200,5.21347509765625,-0.03426934934854507,-0.014599831567564978,-0.05148468804359436
1738773048661466400,5.22346630859375,-0.029155951857566833,-0.009512564031686634,-0.06496434734165668
1738773048671458300,5.233458251953125,-0.0457750782251358,0.003507496664300561,-0.06750409495234488
1738773048681449200,5.24344921875,-0.05246259316504001,-0.00950065439818427,-0.0616916092813015
1738773048691440400,5.2534404296875,-0.04063566951006651,-0.008873078818060457,-0.06827858645617961
1738773048701431300,5.263431396484375,-0.03694412151575088,-0.006173117410670966,-0.06002396833002567
1738773048711422200,5.273422119140625,-0.03559036881923675,-0.00680692180218175,-0.06676116763055324
1738773048721413400,5.283413330078125,-0.0502495932906866,-0.020403996934834866,-0.05509177262485027
1738773048731404300,5.293404296875,-0.047101650653779505,-0.012927030383981764,-0.053747372278571126
1738773048741395200,5.303395263671875,-0.039033787271380425,-0.011283802354754879,-0.06676058310866355
1738773048751387400,5.313387451171875,-0.04195581219792366,-0.005635832196194678,-0.06746785459518433
1738773048761378300,5.32337841796875,-0.05584317551404237,-0.01605825934810564,-0.06419102488160133
1738773048771369200,5.333369140625,-0.03974368910640478,-0.0038015842400491236,-0.06565875934660434
1738773048781360400,5.3433603515625,-0.03987520653158426,-0.011308854597620665,-0.06738835961818694
1738773048791351300,5.353351318359375,-0.04854103580713272,-0.0040571573031600566,-0.06574819119572639
1738773048801342200,5.36334228515625,-0.039002223089337346,0.008369321413850411,-0.07844926733672618
1738773048811333000,5.3733330078125,-0.04403554108142853,-0.01183420277913101,-0.07488426833152771
1738773048821324300,5.38332421875,-0.03939326823353767,-0.015714989735232665,-0.06964870576560497
1738773048831316200,5.393316162109375,-0.04731120175123214,-0.0071870619598776095,-0.06247253052592277
1738773048841307400,5.403307373046875,-0.037111879298090934,-0.011326015794975683,-0.0775987879872322
1738773048851298300,5.41329833984375,-0.03920096053183079,-0.01008072844161652,-0.0768535225778818
1738773048861289200,5.423289306640625,-0.04973842889815568,-0.009808962295530363,-0.06993862862288952
1738773048871280000,5.433280029296875,-0.050721302455663676,-0.007511791269062086,-0.06967208664119243
1738773048881271300,5.443271240234375,-0.03994008846133947,-0.008717586862249299,-0.06279226399958134
1738773048891262200,5.45326220703125,-0.03935907370299101,-0.0004071468956302851,-0.059492637932300564
1738773048901253000,5.463253173828125,-0.03809153798520565,-0.014863058214168995,-0.07015197911262512
1738773048911245300,5.473245361328125,-0.04765285479575395,-0.01691998161082156,-0.06342647024989127
1738773048921236200,5.483236328125,-0.04336450995206833,-0.006770845841802656,-0.06833879221081733
1738773048931227100,5.49322705078125,-0.024641104781627652,-0.00982392240264453,-0.045154315978288645
1738773048941218300,5.50321826171875,-0.04714461301267147,-0.010445926758507267,-0.0704138449192047
1738773048951209200,5.513209228515625,-0.053663493387401104,-0.0032637327699922025,-0.06842647049427032
1738773048961200000,5.5232001953125,-0.04149725477546453,-0.015683909610379486,-0.07533259662091732
1738773048971191300,5.53319140625,-0.049312312440574164,-0.006420068775909021,-0.07785948475003242
1738773048981182500,5.543182373046875,-0.0325710209980607,-0.020447397685144097,-0.06288695654571055
1738773048991174100,5.553174072265625,-0.0371589333102107,-0.011992672143317758,-0.06695347533226013
1738773049001165300,5.563165283203125,-0.03145341514497995,-0.012796398874791339,-0.06546762068867683
1738773049011156200,5.57315625,-0.03216214793622493,-0.01326117597548291,-0.05867839893996715
1738773049021147100,5.583147216796875,-0.04441664935350418,-0.0074342142545152454,-0.07065700602531433
1738773049031138300,5.59313818359375,-0.03818856861889362,-0.01513350005284883,-0.06995499523580073
1738773049041129500,5.60312939453125,-0.04385024764239788,-0.014268380256649105,-0.055302785027027124
1738773049051120400,5.613120361328125,-0.04391863670349121,-0.013471950915642081,-0.06925766062140465
1738773049061111300,5.623111328125,-0.04998188226521015,-0.010765130509203299,-0.061063832771778105
1738773049071103200,5.633103271484375,-0.058061143824458115,0.0021385920644272118,-0.067947747066617
1738773049081094100,5.64309423828125,-0.03574994329512119,0.0027291966350283473,-0.06735621091425419
1738773049091085300,5.653085205078125,-0.05186813440322876,0.00020637275967746972,-0.06663023472726344
1738773049101076500,5.663076416015625,-0.03428133204728365,0.004551973349088803,-0.07175707622170448
1738773049111067400,5.6730673828125,-0.03218143715858459,-0.006747903357632458,-0.06128419752418995
1738773049121058300,5.683058349609375,-0.04399170193970203,-0.0037425749286543577,-0.05635200181901454
1738773049131049500,5.693049560546875,-0.03774696233123541,-0.0052417639778461304,-0.07054770043194293
1738773049141040400,5.703040283203125,-0.04912175830453634,-0.009821237255213782,-0.05722936917543411
1738773049151032300,5.7130322265625,-0.04495382497012615,-0.005309842511685565,-0.06350304261744022
1738773049161023500,5.7230234375,-0.03425473630130291,-0.00042130328514613206,-0.07326748078465462
1738773049171014400,5.733014404296875,-0.03285159150511026,-0.018098067213175816,-0.06671148326992989
1738773049181005300,5.74300537109375,-0.03317278628349304,-0.01044311374691315,-0.06610241146087646
1738773049190996500,5.75299658203125,-0.03299626067280769,0.0049503158837556835,-0.058933250483870506
1738773049200987400,5.7629873046875,-0.042030046477913856,-0.005090555471507832,-0.07252221537530422
1738773049210978300,5.772978271484375,-0.052147535866498944,-0.003945203094976022,-0.07090601235032082
1738773049220969200,5.78296923828125,-0.04222060061395168,-0.0038234033462125807,-0.06389817941486835
1738773049230961200,5.792961181640625,-0.04600128819644451,-0.018241987462202087,-0.06582242547571658
1738773049240952000,5.8029521484375,-0.03672434128522873,-0.007695568604441359,-0.06372866806685924
1738773049250943200,5.812943115234375,-0.04217676147222519,-0.0011792455129791051,-0.0744704268336296
1738773049260934100,5.82293408203125,-0.035489246532320974,-0.00817840195163153,-0.062028293889760965
1738773049270925000,5.832925048828125,-0.038162265133857724,-0.001559239540202543,-0.06967091759741306
1738773049280916000,5.842916015625,-0.05002630592882633,-0.0127585054166615,-0.07121990060508251
1738773049290907100,5.8529072265625,-0.03255845377743244,-0.0039398145338054745,-0.06947860989570617
1738773049300898000,5.86289794921875,-0.04006897553801536,-0.017224736711056902,-0.06707154875397682
1738773049310890200,5.87289013671875,-0.043515024338662625,-0.007459485693089664,-0.07410217804312706
1738773049320881200,5.882881103515625,-0.040377310834825035,-0.011624788678996264,-0.06916179903149604
1738773049330872000,5.8928720703125,-0.03436842580884695,-0.01236286629573442,-0.06378653573393821
1738773049340863000,5.902863037109375,-0.03155775230228901,0.0012782580411992966,-0.07185118424594401
1738773049350854100,5.912854248046875,-0.034661855797469616,-0.011851610571658238,-0.0643143590003252
1738773049360845000,5.922844970703125,-0.04300912064313888,-0.0075899528054986145,-0.0743570295870304
1738773049370836000,5.9328359375,-0.04299363081306219,-0.0075428531276062125,-0.07705752071738242
1738773049380827100,5.9428271484375,-0.04182897094786167,-0.008411598786152899,-0.07000818672776221
1738773049390818000,5.952818115234375,-0.036623218998312945,0.0014394673517439513,-0.07268588150441646
1738773049400810000,5.96281005859375,-0.043237668702006335,-0.003704252212261781,-0.0601011252194643
1738773049410801200,5.97280126953125,-0.03507014433741569,-0.009648611501511186,-0.04779810848534107
1738773049420792000,5.9827919921875,-0.04132043690383434,-0.010911717639351263,-0.07055939086973667
1738773049430783000,5.992782958984375,-0.03690905020236969,-0.006918072292767465,-0.07680500726103782
1738773049440774100,6.002774169921875,-0.04698036236166954,-0.0021373134227935225,-0.057929626399278636
1738773049450765000,6.01276513671875,-0.03722264619618654,-0.008921658066986127,-0.07246084057688712
1738773049460756000,6.022755859375,-0.047288989919424054,-0.006102618590882048,-0.07797755817174912
1738773049470747000,6.032746826171875,-0.03944938233494758,-0.0016072251340840012,-0.07119885781705379
1738773049480739000,6.042739013671875,-0.047746086037158963,-0.001992909116577357,-0.05926935057044029
1738773049490730000,6.05272998046875,-0.04970189628005028,-0.00609176840330474,-0.07273147421181202
1738773049500721000,6.062720947265625,-0.03188333099484444,-0.007162192380102351,-0.05822188734412193
1738773049510712000,6.072712158203125,-0.048802901613712306,-0.01141679935096763,-0.061658876055479046
1738773049520703000,6.082702880859375,-0.04358165983408689,-0.018399854038190097,-0.06973229239583015
1738773049530694000,6.09269384765625,-0.033086277043819425,-0.007086378064379096,-0.06300970614254474
1738773049540685000,6.10268505859375,-0.03623217385411262,-0.007170503550721332,-0.06704875240027904
1738773049550676200,6.11267626953125,-0.03982230730056763,-0.014251712249638513,-0.07064005489051342
1738773049560668000,6.12266796875,-0.04208849866688251,-0.014344587298016994,-0.07856091101765632
1738773049570659000,6.1326591796875,-0.05815642089247703,0.0005566566352266818,-0.06895721637010574
1738773049580650000,6.14264990234375,-0.05014467161148786,-0.006068332728790119,-0.06353519132137299
1738773049590641000,6.152640869140625,-0.03477729887068271,-0.004855623337626457,-0.058200260034203526
1738773049600632000,6.162632080078125,-0.04105827883630991,-0.006419977444363758,-0.0519184032857418
1738773049610623200,6.172623291015625,-0.03242430600374937,-0.005432016719784587,-0.06207213303148746
1738773049620614100,6.1826142578125,-0.03564209900647402,-0.012832785362424328,-0.07191139000058173
1738773049630605000,6.19260498046875,-0.05087123232036829,-0.007352107195323333,-0.07507248438000678
1738773049640597000,6.202596923828125,-0.039731998668611046,-0.0017395371437072752,-0.07263502810001372
1738773049650588200,6.212588134765625,-0.03578092295527458,0.0029090558471158144,-0.0762567257285118
1738773049660579000,6.2225791015625,-0.0445201097279787,-0.006374010277632624,-0.06590192045271397
1738773049670570200,6.2325703125,-0.03898819456398487,-0.0022176303836982697,-0.06679682346582412
1738773049680561200,6.24256103515625,-0.03872632875740528,-0.004645734313456341,-0.04859656538665295
1738773049690552000,6.252552001953125,-0.050287587213516234,-0.0155022420336958,-0.06638298196792602
1738773049700543200,6.262543212890625,-0.03139642426073551,-0.011605051932064816,-0.08241232574880122
1738773049710534100,6.2725341796875,-0.04017126686871052,-0.007414322243956849,-0.07076806518435477
1738773049720526000,6.282526123046875,-0.04369418029785156,-0.0066207607134711,-0.0694558135420084
1738773049730517200,6.292517333984375,-0.030127427238225934,-0.00644017998217605,-0.07421849789917469
1738773049740508200,6.302508056640625,-0.04176788841038942,-0.007809166780440136,-0.07648059761226177
1738773049750499000,6.3124990234375,-0.03570990354567766,-0.0071337608700618145,-0.05945698209702968
1738773049760490200,6.322490234375,-0.03594166647493839,-0.0034233985774219035,-0.06323123993873596
1738773049770481200,6.332481201171875,-0.04042348806411028,-0.00958589412937872,-0.055154316467046736
1738773049780472000,6.34247216796875,-0.040159576430916784,-0.011119414706435054,-0.07234510524272918
1738773049790463000,6.352462890625,-0.03731120126247406,-0.0210303669385612,-0.07189853051900863
1738773049800455200,6.362455078125,-0.04868570497483015,-0.011073091346677392,-0.06815525233745574
1738773049810446000,6.372446044921875,-0.03613163608908653,-0.0245347583303228,-0.0590203442454338
1738773049820437200,6.382437255859375,-0.028490181425213812,-0.01540373182897456,-0.05962357083559036
1738773049830428200,6.39242822265625,-0.03822919289022684,-0.0030414409219752993,-0.05662380449771881
1738773049840419000,6.402419189453125,-0.044000177507102486,-0.018433719775173812,-0.06413783338963985
1738773049850410000,6.412409912109375,-0.03680734339356422,-0.014987533977208659,-0.06010346330702304
1738773049860401200,6.422401123046875,-0.044589375571906564,-0.005805599272530526,-0.06414192504286766
1738773049870392000,6.43239208984375,-0.0364946241825819,-0.012278686010465025,-0.06953530851900577
1738773049880384000,6.442384033203125,-0.049559272938966746,-0.009037886591488496,-0.06517185261249542
1738773049890375200,6.452375244140625,-0.03498480414152145,0.003702681309683248,-0.07073825456798076
1738773049900366000,6.462365966796875,-0.030986089894175527,-0.0065712498827837406,-0.07041969013810158
1738773049910357000,6.47235693359375,-0.047156887972354886,-0.00496149486489594,-0.07729717469215393
1738773049920348200,6.48234814453125,-0.05618892021179199,-0.009767808301234616,-0.061109425479173654
1738773049930339000,6.492339111328125,-0.03938713075369596,-0.014356058540102093,-0.07609481316506862
1738773049940330000,6.502330078125,-0.030934067445993422,-0.012506841343687847,-0.07643149777352809
1738773049950321200,6.512321044921875,-0.04163754002898931,0.004461080195242538,-0.05581657976806163
1738773049960313000,6.52231298828125,-0.06040741468966007,-0.014579912157543003,-0.06379062738716602
1738773049970304000,6.532303955078125,-0.032467852884531016,-0.007735060364613309,-0.06915595381259917
1738773049980295200,6.542295166015625,-0.03816811035275459,-0.0019210677230730652,-0.05972235503494739
1738773049990286000,6.5522861328125,-0.029369302347302437,0.004123856730666012,-0.07631751600503921
1738773050000277000,6.562277099609375,-0.030801380977034568,-0.005506223600311205,-0.06602350100576877
1738773050010268000,6.572267822265625,-0.037544133235514164,-0.0063373954611364745,-0.06242869138419628
1738773050020259000,6.582259033203125,-0.04743044421672821,-0.0009366506624501199,-0.07648994996249675
1738773050030250000,6.59225,-0.04692833991348743,-0.0093319193683099,-0.07022972052395343
1738773050040242200,6.6022421875,-0.03137041303664446,0.002301417943323031,-0.07037643551826477
1738773050050233000,6.612233154296875,-0.04330781132876873,-0.009070345822675152,-0.05513035106956959
1738773050060224000,6.62222412109375,-0.03731412387192249,-0.011341898350697011,-0.068152914249897
1738773050070215000,6.63221484375,-0.037032384321093556,0.005061283711250871,-0.07712240264713764
1738773050080206000,6.6422060546875,-0.03839022867083549,0.0006858451060019433,-0.05915887593328952
1738773050090197000,6.652197021484375,-0.04853577511012554,-0.0036956487806979565,-0.05677987184226513
1738773050100188000,6.66218798828125,-0.03489069611728191,0.005355599615862593,-0.07310323013365268
1738773050110179000,6.672178955078125,-0.04237082273960113,-0.0029864136659540235,-0.06861527106463909
1738773050120171000,6.6821708984375,-0.030360066950321195,-0.0005691142580006272,-0.0906307035177946
1738773050130162000,6.692161865234375,-0.0442500606149435,-0.0068768087006174025,-0.06819792243540286
1738773050140153000,6.702153076171875,-0.037438042512536046,-0.011088425913127139,-0.0712292529553175
1738773050150144000,6.71214404296875,-0.03869914848953485,-0.01189986102702096,-0.06857903070747852
1738773050160135000,6.722135009765625,-0.03297229527533054,-0.02460941273542121,-0.06710252841413021
1738773050170126000,6.7321259765625,-0.03815992704629898,-0.011119734366843477,-0.05440905105769634
1738773050180117200,6.7421171875,-0.04831394905298948,0.0032387079265899952,-0.07342296360731125
1738773050190108200,6.752108154296875,-0.050826516395807264,-0.013982293324265628,-0.06580722790658473
1738773050200100000,6.76210009765625,-0.03229834153652191,-0.0023539427150040862,-0.059956748312711715
1738773050210091000,6.772091064453125,-0.024563071109354493,-0.004892904874403029,-0.057091422009468075
1738773050220082000,6.78208203125,-0.050046179673075675,-0.006125561075052246,-0.06634674161076545
1738773050230073000,6.792072998046875,-0.0336713834553957,-0.0012067363081034272,-0.05874678800106048
1738773050240064300,6.802064208984375,-0.04268821812570095,-0.008090321809379384,-0.06905249343812465
1738773050250055400,6.812055419921875,-0.04144786267578601,0.0011382924480829388,-0.05964578266739845
1738773050260046300,6.82204638671875,-0.03658990125060081,-0.009165549825457855,-0.0625239684522152
1738773050270037200,6.832037353515625,-0.02678454655110836,-0.011110245019290596,-0.08246493271887302
1738773050280029200,6.842029296875,-0.03711713999509811,-0.00610506627629511,-0.06256020880937575
1738773050290020400,6.852020263671875,-0.049532969453930854,-0.014665024024574085,-0.06854805104732513
1738773050300011500,6.862011474609375,-0.061651861792802805,-0.008991051775077358,-0.06286240662634372
1738773050310002400,6.87200244140625,-0.028139468291401862,0.0027858769920188933,-0.06615092677772044
1738773050319993300,6.881993408203125,-0.027898937533795833,-0.006937078387336805,-0.0599094020396471
1738773050329984300,6.891984375,-0.03496522265821695,-0.003169442082662135,-0.07006663891673087
1738773050339975400,6.901975341796875,-0.03635170858055353,-0.01337947772606276,-0.05852466968297958
1738773050349966300,6.91196630859375,-0.040347792479395864,-0.008929402982024475,-0.061089551734924315
1738773050359958500,6.92195849609375,-0.044997664111852645,-0.0062581470793113105,-0.06033551849722862
1738773050369949400,6.931949462890625,-0.0449035560876131,0.0013989983440376816,-0.0686889208227396
1738773050379940400,6.9419404296875,-0.0306605112016201,-0.009973002883978187,-0.0682534520149231
1738773050389931300,6.95193115234375,-0.04282265816032886,0.002096004164870828,-0.06838146230876445
1738773050399922400,6.96192236328125,-0.03604804945886135,-0.015236330239661037,-0.06675473788976669
1738773050409913300,6.971913330078125,-0.04052314904630184,-0.007481898454297333,-0.06316986514031887
1738773050419904300,6.981904296875,-0.035543314807116984,-0.005161465283250436,-0.0657347471922636
1738773050429895400,6.9918955078125,-0.04803805472105741,-0.0019040435230359433,-0.06846563346087932
1738773050439887400,7.001887451171875,-0.03359276526123285,-0.012408513802057132,-0.05937690259814262
1738773050449878300,7.011878173828125,-0.03966916256546974,-0.009314520708937197,-0.0718254652827978
1738773050459869400,7.021869384765625,-0.029503742381930348,-0.009202895294316112,-0.0658347004354
1738773050469860400,7.0318603515625,-0.04169043926000595,-0.006310160394338891,-0.07904314157664775
1738773050479851300,7.041851318359375,-0.03458265308141708,-0.02101242942307144,-0.06995265714824199
1738773050489842200,7.05184228515625,-0.030934067445993422,-0.008801328756101429,-0.07357143216729163
1738773050499833300,7.061833251953125,-0.039300913774967194,-0.0021118227885104715,-0.06804068604707718
1738773050509824300,7.07182421875,-0.024862054055929183,-0.006853555689193308,-0.0665799658447504
1738773050519816400,7.08181640625,-0.03739011171758175,-0.014983880715398117,-0.058070496174693106
1738773050529807400,7.091807373046875,-0.03501578380167484,-0.01303637250997126,-0.06449322269856929
1738773050539798300,7.10179833984375,-0.035605566388368606,-0.020398617506818845,-0.07437398072183132
1738773050549789200,7.1117890625,-0.049050154373049736,-0.01318151660170406,-0.06794950063228607
1738773050559780400,7.1217802734375,-0.04451514129191637,-0.007610995593527331,-0.06692541828155517
1738773050569771300,7.131771240234375,-0.04833119244873523,-0.012707706811185925,-0.05596446380615234
1738773050579762200,7.14176220703125,-0.038139468780159946,-0.011022091811802238,-0.05178279420733452
1738773050589753300,7.15175341796875,-0.033759061738848684,-0.007110115132993086,-0.07814005525708198
1738773050599745300,7.161745361328125,-0.04235971682369709,-0.016942385238874702,-0.06628361324667931
1738773050609736200,7.171736083984375,-0.040166590693593025,-0.019719704465102402,-0.06595920359790325
1738773050619727400,7.181727294921875,-0.033064065212011336,-0.012472546348441391,-0.06427402698993682
1738773050629718300,7.19171826171875,-0.03231821528077125,-0.0036364933388307688,-0.06561959637999534
1738773050639709200,7.201709228515625,-0.02676759541630745,-0.005635466870013624,-0.05859422778785228
1738773050649700400,7.211700439453125,-0.03648176470100879,0.0035516919990535825,-0.06757832923233509
1738773050659691300,7.221691162109375,-0.04711538691818714,-0.0009392353451810777,-0.06024082595109939
1738773050669682200,7.23168212890625,-0.024185177707672117,-0.007241522960318252,-0.0693862554371357
1738773050679674400,7.24167431640625,-0.02970364886820316,-0.016202645388012752,-0.062362640410661696
1738773050689665300,7.251665283203125,-0.04138941048681736,-0.0025339571907185016,-0.06609715076386928
1738773050699656200,7.26165625,-0.028721067571640013,-0.0032047234585974365,-0.05963876840472221
1738773050709647000,7.271647216796875,-0.035274726998805996,-0.0011897212412208319,-0.0711766459852457
1738773050719638300,7.28163818359375,-0.017694062122702598,-0.01693273149454035,-0.07069032377302646
1738773050729629200,7.291629150390625,-0.026105916637182234,-0.009843239024467767,-0.07292027478218079
1738773050739620000,7.3016201171875,-0.038812253475189205,-0.005291411805851385,-0.0669417848944664
1738773050749611300,7.311611328125,-0.04451514129191637,-0.01431249339301139,-0.0712725075751543
1738773050759603200,7.321603271484375,-0.034604280391335486,-0.00991434976560995,-0.06635200230777263
1738773050769594000,7.331593994140625,-0.042110125976800916,-0.009682038847077638,-0.07471943315863609
1738773050779585300,7.341585205078125,-0.04123188183754682,0.0014749861896969378,-0.07006956152617931
1738773050789576200,7.351576171875,-0.04047930990457534,0.0029883864273317156,-0.05510755471587181
1738773050799567000,7.361567138671875,-0.03614683365821838,-0.0013932627229951322,-0.0664753364264965
1738773050809558300,7.371558349609375,-0.03493628882467747,-0.014105481312517076,-0.07366495566964149
1738773050819549400,7.381549560546875,-0.037624504995346066,-0.008396784809511155,-0.05780687680244445
1738773050829540400,7.391540283203125,-0.02860971615165472,-0.013411206304887308,-0.05498012894392013
1738773050839532300,7.4015322265625,-0.0401259664222598,0.001941900448547676,-0.07114332823753357
1738773050849523200,7.411523193359375,-0.029386253482103344,-0.0065401788910850875,-0.0634954438328743
1738773050859514000,7.42151416015625,-0.03237608294785022,-0.011720330608496442,-0.05826046578884125
1738773050869505300,7.43150537109375,-0.035815117485821245,-0.00875229284944944,-0.06215221253037452
1738773050879496400,7.441496337890625,-0.029411095662415027,-0.0030529578298330307,-0.06632628334462642
1738773050889487400,7.4514873046875,-0.04452595494687557,-0.008875362106692045,-0.06976794823110104
1738773050899478300,7.461478271484375,-0.03814940565228462,-0.009451901619322597,-0.07355389651060104
1738773050909469400,7.471469482421875,-0.040086803455650806,-0.0037065902998205274,-0.06128887369930744
1738773050919461400,7.48146142578125,-0.04488368234336376,-0.0061934752121102065,-0.07071253560483455
1738773050929452300,7.491452392578125,-0.039485622692108154,-0.0018425682599190621,-0.06548048017024993
1738773050939443500,7.501443359375,-0.04306991091966629,-0.013951039669476448,-0.054261167019605636
1738773050949434400,7.511434326171875,-0.05037701906263828,-0.008276948688970878,-0.0686404055058956
1738773050959425300,7.52142529296875,-0.03406593573093414,-0.007105594221502542,-0.05936345859467983
1738773050969416400,7.53141650390625,-0.03957914619445801,-0.0005007343300618231,-0.06640811640918254
1738773050979407400,7.541407470703125,-0.04859714990854263,-0.00744201396848075,-0.07102817742526531
1738773050989398300,7.551398193359375,-0.03668868544995785,-0.01181820149240084,-0.06149579444825649
1738773050999390500,7.561390380859375,-0.04981996970176696,-0.016851848278054967,-0.06510638616085052
1738773051009381400,7.57138134765625,-0.04419628460109234,-0.0028757654988672584,-0.07427811913192271
1738773051019372300,7.581372314453125,-0.03971300170719623,-0.013964748534420505,-0.0693383246421814
1738773051029363500,7.591363525390625,-0.03593640577793121,-0.01010499523319304,-0.06546703616678715
1738773051039354400,7.601354248046875,-0.03685001349151134,-0.004753633401030674,-0.07009703405499458
1738773051049345300,7.61134521484375,-0.037168577921390535,-0.013416384803503751,-0.07697101147770881
1738773051059336200,7.621336181640625,-0.041759997364878655,0.00608325630328618,-0.07894026572406292
1738773051069327400,7.631327392578125,-0.050396600545942784,-0.014740226418944074,-0.07312544196546077
1738773051079319300,7.6413193359375,-0.0332920287489891,-0.003925466348044574,-0.07374678873419761
1738773051089310500,7.651310546875,-0.042245150533318516,-0.011746360098896548,-0.06657704323530196
1738773051099301400,7.66130126953125,-0.037672435790300364,0.0023218853426165875,-0.07155658521354198
1738773051109292300,7.671292236328125,-0.035605566388368606,-0.006160047866543754,-0.0663052405565977
1738773051119283200,7.681283203125,-0.03483049036264419,-0.015178919230308383,-0.061381812679767604
1738773051129274400,7.6912744140625,-0.045585693132877345,-0.023789273725263772,-0.06558277150094509
1738773051139265300,7.701265380859375,-0.038950785163044926,-0.003679355233022943,-0.07144201892316342
1738773051149256200,7.711256103515625,-0.033895839861035344,-0.007919203026173636,-0.06611410189867019
1738773051159248400,7.721248291015625,-0.038974750560522076,-0.004089863129518926,-0.06357610785365105
1738773051169239300,7.7312392578125,-0.037294250127673144,-0.0013681922138202936,-0.07047638876140118
1738773051179230200,7.741230224609375,-0.03755933080464601,-0.00809371020970866,-0.06735153473913669
1738773051189221400,7.751221435546875,-0.04571341116577387,-0.00676512848706916,-0.0693336484670639
1738773051199212300,7.76121240234375,-0.035274726998805996,-0.013117337924847379,-0.06557575723826885
1738773051209203200,7.771203125,-0.04623158982098102,-0.012308003436494618,-0.07064765367507934
1738773051219194000,7.781194091796875,-0.0497857751712203,-0.005180096918484196,-0.06782265938222408
1738773051229187000,7.79118701171875,-0.038164895482361315,-0.013397999763442203,-0.07034136420488357
1738773051239179000,7.801178955078125,-0.02467792966067791,0.0014801007562316954,-0.05778174236118793
1738773051249170000,7.811169921875,-0.0485679238140583,-0.014645826133759692,-0.06603869857490062
1738773051259161000,7.8211611328125,-0.046751814302802085,-0.008703549203742295,-0.07173486438989639
1738773051269152000,7.831152099609375,-0.039136663123965264,-0.016332856772094964,-0.06783551886379718
1738773051279143000,7.841142822265625,-0.03976502415537834,-0.0028073399051558225,-0.06198387022614479
1738773051289134000,7.851134033203125,-0.03811725694835186,-0.0197569951350335,-0.07215981180369853
1738773051299125000,7.861125,-0.038943186378479,-0.01403983219778165,-0.06433890891969203
1738773051309116000,7.871115966796875,-0.03675181381404399,0.0018348872769623993,-0.06296586700081824
1738773051319108000,7.881108154296875,-0.04325286627113819,-0.0012780023128725587,-0.06502806022763252
1738773051329099000,7.89109912109375,-0.04010346232950687,-0.012270530103472992,-0.063085693988204
1738773051339090000,7.90108984375,-0.03302431772351265,-0.008266883952682838,-0.05787058968842029
1738773051349080800,7.911080810546875,-0.03869301100969314,0.0060239638641010965,-0.056232759353518486
1738773051359072000,7.921072021484375,-0.04760404721796512,-0.00442749758604914,-0.07332534845173358
1738773051369063000,7.93106298828125,-0.037567806372046465,-0.015061247667390852,-0.07258183660805224
1738773051379053800,7.9410537109375,-0.03690788115859032,-0.015087532886117696,-0.06647708999216556
1738773051389045000,7.951044921875,-0.03044482262432575,-0.00998168851393275,-0.07741524811387061
1738773051399037000,7.961036865234375,-0.03824877437353134,-0.0048043680744245644,-0.06034428632557392
1738773051409027800,7.97102783203125,-0.030881752736866473,-0.005964525294443592,-0.07487666954696177
1738773051419019000,7.98101904296875,-0.03323766821324825,-0.0007087875901721417,-0.07384908006489277
1738773051429010000,7.991010009765625,-0.05013385795652866,-0.00917858283696696,-0.06218202314674854
1738773051439000800,8.001000732421875,-0.05218465300649404,-0.007554972823662683,-0.06160510004162788
1738773051448992000,8.010991943359375,-0.03838467571288347,-0.005814421899802982,-0.06790741505622863
1738773051458983000,8.02098291015625,-0.04743541265279055,-0.013355567127512766,-0.06884498816728592
1738773051468973800,8.030973876953125,-0.031243279525637626,0.000333898996328935,-0.0729021546036005
1738773051478966000,8.040966064453125,-0.026776070983707902,-0.005237635792000219,-0.062115972173213956
1738773051488957000,8.05095703125,-0.0390086528301239,-0.0031589937538839875,-0.06752163060903549
1738773051498947800,8.06094775390625,-0.04085135808736086,-0.0043422852543182665,-0.0741565385788679
1738773051508939000,8.07093896484375,-0.02484510292112827,-0.002205191027233377,-0.06083762280046939
1738773051518930000,8.080929931640625,-0.033221301600337025,-0.011812520670285447,-0.06398118152320384
1738773051528920800,8.0909208984375,-0.04689677573144436,-0.01969469788800925,-0.07382803727686404
1738773051538911700,8.100911865234375,-0.04109977989047765,0.0028126188684720545,-0.06056640464365482
1738773051548903000,8.11090283203125,-0.03539338494241238,-0.007406248535355552,-0.06237199276089668
1738773051558893800,8.120893798828124,-0.03910568346381187,-0.005773085242416709,-0.0652297202795744
1738773051568885800,8.1308857421875,-0.0244888368293643,-0.0107161950672511,-0.07425766086578368
1738773051578877000,8.140876953125,-0.04723170677423477,-0.00010135061577893793,-0.07186462824940681
1738773051588867800,8.150867919921875,-0.0382525737658143,-0.004403066397691145,-0.06498188299834728
1738773051598858800,8.160858642578125,-0.03300006006509065,-0.02066815516320057,-0.06484042870104313
1738773051608850000,8.170849853515625,-0.039494682781398296,-0.013036162447417154,-0.07730477347671985
1738773051618840800,8.1808408203125,-0.029747488009929657,-0.023919293313100932,-0.06699088473320007
1738773051628831700,8.190831787109374,-0.032467268362641334,-0.01272137001035735,-0.061739540076255796
1738773051638823000,8.200822998046876,-0.04023614879846572,-0.0016762626491487024,-0.06638473553359509
1738773051648814800,8.21081494140625,-0.03831482534706592,-0.010325405651377514,-0.07520166371762751
1738773051658805800,8.2208056640625,-0.03569295241087675,-0.011813105192175134,-0.06723521488308906
1738773051668797000,8.230796875,-0.04455284295380115,-0.015693855615658683,-0.07036240699291228
1738773051678787800,8.240787841796875,-0.03413198670446872,-0.006086507706297561,-0.0655477001875639
1738773051688778800,8.25077880859375,-0.026537586052715778,-0.007769492357177659,-0.07884791126549244
1738773051698770000,8.26077001953125,-0.03156272073835134,-0.008176100396690889,-0.06990121922194957
1738773051708761000,8.270760986328124,-0.03816021930724382,-0.002553063749987632,-0.08455985917150974
1738773051718752000,8.280751953125,-0.049883974848687646,-0.0020890173016581684,-0.07331131992638111
1738773051728744000,8.290743896484376,-0.04046528137922287,-0.021683780212840065,-0.05729600467085838
1738773051738734800,8.30073486328125,-0.03580371930897236,-0.005903022631863132,-0.06284487096965313
1738773051748726000,8.31072607421875,-0.03566811023056507,0.0033278109821490943,-0.07211480361819267
1738773051758717000,8.320717041015625,-0.04992109198868274,-0.014434585402719675,-0.07059972288012505
1738773051768708000,8.3307080078125,-0.02979658784866333,-0.012642660484649241,-0.06427811864316463
1738773051778699000,8.340698974609374,-0.035300445961952205,-0.00581204727962613,-0.07357084764540195
1738773051788690000,8.35068994140625,-0.04770984567999839,-0.009422785122692585,-0.07282733580172061
1738773051798681000,8.36068115234375,-0.0413093309879303,-0.015600651773717254,-0.058818684193491934
1738773051808673000,8.370673095703125,-0.03823474584817886,-0.008345858339872211,-0.07651742249131202
1738773051818664000,8.380663818359375,-0.040616088026762004,0.007261405837722122,-0.06470248153507709
1738773051828655000,8.390655029296875,-0.03553951541483402,-0.0014538429369684307,-0.07083411615788936
1738773051838646000,8.40064599609375,-0.040487200950086115,0.0004064527758862823,-0.0615519085496664
1738773051848637000,8.410636962890624,-0.03377659739553928,-0.0006420607632026076,-0.07171615968942642
1738773051858628000,8.420628173828124,-0.02674187645316124,-0.008532101626973598,-0.07396189278960227
1738773051868619000,8.430618896484376,-0.04002162926495075,-0.0032166604915633795,-0.057820320805907245
1738773051878610000,8.44060986328125,-0.04371639212965965,-0.012047717665648086,-0.07894318833351134
1738773051888602000,8.45060205078125,-0.039549627839028836,0.0014346267798449844,-0.07055179208517075
1738773051898593000,8.460593017578125,-0.036545185326039786,-0.0012901859410107135,-0.07624328172504902
1738773051908584000,8.470583984375,-0.04631400740742683,-0.004641889255400747,-0.07696984243392944
1738773051918574800,8.480574951171874,-0.035550621330738066,0.004186409706017002,-0.07472001768052577
1738773051928566000,8.49056591796875,-0.03594692717194557,-0.012106032857298851,-0.0690595077008009
1738773051938557000,8.500556884765626,-0.031997897285223,-0.0044007374432869254,-0.05143266559541225
1738773051948547800,8.5105478515625,-0.034227848294377326,-0.0013638722317293286,-0.07014321128427982
1738773051958539000,8.5205390625,-0.04677022674232721,-0.0006006053748074918,-0.07075579022467136
1738773051968531000,8.530531005859375,-0.030004385380446908,-0.004019300377648323,-0.068514733299613
1738773051978521900,8.54052197265625,-0.030011107382178305,-0.016702996125584468,-0.05549333916306495
1738773051988513000,8.550512939453125,-0.045313890454173084,-0.002921102477936074,-0.06609773528575896
1738773051998504000,8.56050390625,-0.0365033920109272,0.0029892814764752983,-0.06938041021823883
1738773052008494800,8.570494873046876,-0.047203065201640124,-0.01691062012743205,-0.06881868468225003
1738773052018486000,8.580486083984376,-0.03947451677620411,-0.028618173452746122,-0.06505144110321998
1738773052028477000,8.590476806640625,-0.02439560558795929,-0.007936455555073916,-0.05650514655411243
1738773052038467800,8.6004677734375,-0.04265723846554756,-0.0021868790524080394,-0.07505728681087494
1738773052048458800,8.610458740234375,-0.03686228845119476,-0.010675835657399147,-0.06935176864564419
1738773052058451000,8.620450927734375,-0.03250643132925033,-0.012412011800240725,-0.07489712781310082
1738773052068441900,8.63044189453125,-0.0627265052869916,-0.010617721395147963,-0.0624801293104887
1738773052078432800,8.640432861328126,-0.03353928150832653,0.0025848562608938664,-0.07280980014503002
1738773052088424000,8.650423828125,-0.028680151039361952,0.0020047548179980366,-0.08885784862637519
1738773052098414800,8.660414794921875,-0.0342094358548522,0.0016043116577900945,-0.07943477124273776
1738773052108405800,8.67040576171875,-0.03214665810614824,-0.004536611383175477,-0.07642623707652091
1738773052118397000,8.68039697265625,-0.04812018004655838,-0.008567099875118583,-0.0511561867415905
1738773052128387800,8.690387939453124,-0.0463502477645874,-0.004319059642357751,-0.06056932725310325
1738773052138379800,8.7003798828125,-0.04379442580193281,-0.01693079526578076,-0.06745850224494934
1738773052148371000,8.710370849609374,-0.033111996006965634,-0.009529460367560387,-0.06913432650268077
1738773052158361900,8.72036181640625,-0.042564007224142546,-0.005061621637968346,-0.06882219181358813
1738773052168352800,8.730352783203125,-0.026506606392562387,-0.001111486639548093,-0.0788712921410799
1738773052178344000,8.740343994140625,-0.0455246105954051,-0.008493651046417652,-0.07542202847003936
1738773052188334800,8.7503349609375,-0.03424509169012308,-0.01455079566091299,-0.062059273549914355
1738773052198325800,8.76032568359375,-0.03248918793350458,-0.011356666661566123,-0.07827566433548927
1738773052208317000,8.77031689453125,-0.03638882572054863,-0.0065441335469949985,-0.06166062962114811
1738773052218308900,8.780308837890624,-0.049230771636962885,-0.008032600272772833,-0.07888298257887363
1738773052228297700,8.790297607421875,-0.029029402868449686,-0.018712701113335787,-0.08112871567904949
1738773052238289000,8.800288818359375,-0.03642389703392982,0.005017590699996799,-0.07855272771120071
1738773052248279800,8.81027978515625,-0.03525777586400509,-0.0048040027482435105,-0.07404840202927589
1738773052258270700,8.820270751953124,-0.04264028733074665,-0.0056457873346284024,-0.07492284677624703
1738773052268262000,8.830261962890624,-0.04399871620237827,-0.011129360711714251,-0.06474222902357578
1738773052278252800,8.840252685546876,-0.04006897553801536,-0.0022240783907938747,-0.08151976082324981
1738773052288243700,8.85024365234375,-0.027830840733647343,-0.010044296288210897,-0.06549275512993336
1738773052298236000,8.86023583984375,-0.03598433657288551,-0.00894549560029991,-0.07293897948265075
1738773052308226800,8.870226806640625,-0.02437105566859245,0.008007904222933576,-0.06617664574086665
1738773052318217700,8.8802177734375,-0.032470775493979455,-0.009325489627523347,-0.051801498907804486
1738773052328208600,8.890208740234375,-0.04288549426347017,0.0007577047658152878,-0.05961363396346569
1738773052338199800,8.90019970703125,-0.03551993393152952,-0.009373429555632173,-0.08028057441711425
1738773052348190700,8.910190673828126,-0.022500001099705694,-0.014553161147935315,-0.058434653311967844
1738773052358181600,8.920181640625,-0.03095803284347057,-0.006194132799236103,-0.07897066086232661
1738773052368172800,8.9301728515625,-0.029096915146708487,0.000726186249544844,-0.0788537564843893
1738773052378163700,8.940163818359375,-0.03440671199262142,-0.012803851528884842,-0.05921615907847881
1738773052388155600,8.95015576171875,-0.03514437861740589,-0.009104823481012134,-0.06700374421477318
1738773052398146800,8.960146728515625,-0.04688216268420219,-0.019750455796392632,-0.07519991015195845
1738773052408137700,8.9701376953125,-0.04665712175667286,-0.007129450021125376,-0.0750152012348175
1738773052418128600,8.980128662109376,-0.04440671248137951,-0.007428286837227642,-0.06544131720364094
1738773052428119800,8.990119873046876,-0.02825491136461496,-0.010546720251860096,-0.06139642572700977
1738773052438110700,9.00011083984375,-0.038567046542465684,-0.002462654653331265,-0.07427168939113617
1738773052448101600,9.0101015625,-0.04829845922291279,0.00017439758568070827,-0.06589023001492023
1738773052458092800,9.0200927734375,-0.02829641241878271,-0.009401641869964077,-0.07215045945346354
1738773052468084700,9.030084716796875,-0.0282990427672863,-0.007473386354278772,-0.07424363234043121
1738773052478075600,9.04007568359375,-0.04683481641113758,-0.0018554916735738516,-0.061383566245436665
1738773052488066600,9.050066650390624,-0.04487900616824626,-0.006274605023767798,-0.07276245387196541
1738773052498057700,9.0600576171875,-0.03129793232232332,-0.005090327142644673,-0.05314356116652488
1738773052508049000,9.070048828125,-0.04797901801019907,-0.006248949992703274,-0.06433131013512611
1738773052518039800,9.080039794921875,-0.026923370499908922,0.00002222096496261656,-0.06924772374927997
1738773052528031000,9.090031005859375,-0.03228226718455553,-0.003286556523153558,-0.06836334213018418
1738773052538022000,9.10002197265625,-0.03626607612371444,-0.010920978658040984,-0.07617313909828663
1738773052548013600,9.110013671875,-0.032467560623586175,0.004743632596824318,-0.07799684739410877
1738773052558004700,9.120004638671874,-0.026725509840250013,-0.002105109919933602,-0.06852116304039954
1738773052567996000,9.129995849609376,-0.03651099079549312,-0.006404661144223064,-0.07320610598623752
1738773052577986800,9.13998681640625,-0.037628012126684186,-0.002638504410581663,-0.07623860554993152
1738773052587978000,9.14997802734375,-0.03663549395799637,-0.004298820571927354,-0.07202069559395313
1738773052597969000,9.159968994140625,-0.04668342524170875,0.006345807096455246,-0.0666238049864769
1738773052607959800,9.169959716796875,-0.027249241453409193,-0.0035167850824538616,-0.06362228508293628
1738773052617950700,9.17995068359375,-0.03774316293895244,-0.004361574476677925,-0.06510930877029895
1738773052627942000,9.18994189453125,-0.038057343454658984,-0.010017216485040262,-0.06854337487220764
1738773052637933800,9.199933837890624,-0.02844458871781826,0.004199296587053686,-0.06459668307304382
1738773052647925000,9.209925048828126,-0.04216916268765926,-0.009240377760492264,-0.06461772586107253
1738773052657916000,9.219916015625,-0.03451221819370985,-0.012683841878408566,-0.0712900432318449
1738773052667906800,9.22990673828125,-0.02397591887116432,-0.008406502485927194,-0.06862696150243282
1738773052677897700,9.239897705078125,-0.046266661134362216,-0.014196758058853447,-0.06847849294245242
1738773052687889000,9.249888916015625,-0.03820025905668735,0.0028402557940687984,-0.05814648402035236
1738773052697879800,9.2598798828125,-0.02232932070791721,-0.002907028286810964,-0.0599485650062561
1738773052707870700,9.26987060546875,-0.04122691340148449,-0.004301231724722311,-0.07264438045024871
1738773052717863000,9.27986279296875,-0.03750643157362938,-0.0023208076303824782,-0.06904431013166903
1738773052727853800,9.289853759765625,-0.04156973548978567,-0.012062239381344987,-0.05586567960679531
1738773052737844700,9.2998447265625,-0.04026683619767427,-0.009181779441051184,-0.06153086576163769
1738773052747836000,9.3098359375,-0.028376784178614615,0.008308786865649745,-0.07450900527834892
1738773052757826800,9.319826904296875,-0.028002397908270357,-0.008232936017308384,-0.06923486426770686
1738773052767817700,9.329817626953124,-0.04279840050190687,-0.017599552239663897,-0.06370645623505115
1738773052777809000,9.339808837890626,-0.04003448874652386,-0.010253810853045433,-0.08012742968201637
1738773052787799800,9.3497998046875,-0.04123100505471229,-0.010009069711202755,-0.0799777920782566
1738773052797791700,9.359791748046876,-0.04793430208563804,0.0017193985379766671,-0.06951718834042549
1738773052807783000,9.369782958984375,-0.05858516769856214,-0.01129086228320375,-0.07563888609111309
1738773052817773800,9.37977392578125,-0.046349663242697715,-0.001328526923712343,-0.0599094020396471
1738773052827764700,9.3897646484375,-0.029732290440797803,-0.009292884265864268,-0.07113572945296764
1738773052837755600,9.399755615234374,-0.046479134841263293,-0.012214050675882026,-0.06740121909976005
1738773052847746800,9.409746826171874,-0.037302141173183916,-0.0029281806726939976,-0.07101707150936126
1738773052857737700,9.41973779296875,-0.03963496803492307,-0.0067116538673173635,-0.0722445674777031
1738773052867728600,9.429728759765625,-0.03674889120459556,-0.01008596173916012,-0.06747837598919867
1738773052877719800,9.4397197265625,-0.0324751594081521,-0.01649781980914995,-0.07006371630728245
1738773052887711700,9.449711669921875,-0.04233019846826792,-0.010167931801034136,-0.07710778959989548
1738773052897702700,9.45970263671875,-0.04068915326297283,-0.00008663710383698344,-0.05929857666492462
1738773052907693800,9.46969384765625,-0.04731149401217699,-0.0036237434551119802,-0.06646306146681308
1738773052917684700,9.479684814453124,-0.040808980250358576,0.000015772957867011427,-0.07278232761621475
1738773052927675600,9.489675537109376,-0.04376140031516552,-0.0015298947147093713,-0.07549567822813988
1738773052937666800,9.499666748046875,-0.032924949002265926,0.00018613368924707174,-0.06445347521007061
1738773052947657700,9.50965771484375,-0.041562428966164584,-0.006167591852182522,-0.06896423063278198
1738773052957648600,9.519648681640625,-0.037734979632496835,0.003290529445372522,-0.06863397576510906
1738773052967640800,9.529640869140625,-0.033680443544685836,-0.007724374573817476,-0.06617196956574917
1738773052977631700,9.5396318359375,-0.04541413595825433,-0.012283663579681888,-0.060903089252114295
1738773052987622700,9.54962255859375,-0.028587212058901783,-0.0019671718871220947,-0.05539923113882542
1738773052997613800,9.55961376953125,-0.04177285684645176,-0.0009580131108872592,-0.0711029962271452
1738773053007604700,9.569604736328126,-0.04187953209131956,-0.004185057999147102,-0.06768120508491993
1738773053017595600,9.579595703125,-0.02798223190307617,-0.013515899655222891,-0.07111293309926986
1738773053027586800,9.5895869140625,-0.034094577303528786,-0.0074216470338869835,-0.06409048711657524
1738773053037578000,9.599577880859375,-0.04079612076878547,-0.007209246392222121,-0.07547989613711834
1738773053047569700,9.609569580078125,-0.03783434835374355,-0.014177414037566631,-0.0771112967312336
1738773053057560600,9.619560546875,-0.04349544285535812,-0.012365587975783273,-0.059766194176673886
1738773053067551700,9.6295517578125,-0.04346212510764599,-0.0017499763393308966,-0.057687634336948394
1738773053077542700,9.639542724609376,-0.02524550041556358,-0.002506329398276284,-0.06769172647893429
1738773053087533800,9.649533935546875,-0.026764088284969328,-0.01053040843787603,-0.07052373503446578
1738773053097525000,9.65952490234375,-0.039057168146967886,-0.012442982327239588,-0.060336103019118306
1738773053107516000,9.669515869140625,-0.03999006508290767,-0.004251045040600002,-0.06361234821081162
1738773053117506800,9.6795068359375,-0.028774843585491178,-0.009034014133969322,-0.0631599282681942
1738773053127497700,9.689497802734374,-0.031498131069540976,0.0013137677459977566,-0.060302200749516484
1738773053137490000,9.699489990234374,-0.040887890705466265,-0.0052524223691783846,-0.06525894637405871
1738773053147480800,9.709480712890626,-0.037545010018348694,-0.010617374335275962,-0.07022270626127719
1738773053157472000,9.719471923828126,-0.02643149532973766,0.006332326560374349,-0.07278758831322192
1738773053167463000,9.729462890625,-0.04058277027904987,-0.011941891804151237,-0.06264321091771126
1738773053177453800,9.739453857421875,-0.054822892555594444,-0.017785019208630546,-0.06771861448585986
1738773053187444700,9.74944482421875,-0.039599604460597036,-0.009466240671928972,-0.06919628582298755
1738773053197436000,9.759435791015624,-0.026865795093774795,-0.006120811834698542,-0.06494038194417953
1738773053207426800,9.7694267578125,-0.033406010517477984,0.0009669453360140323,-0.07034954751133918
1738773053217419000,9.7794189453125,-0.03006839052736759,-0.00025160927404649553,-0.0706716190725565
1738773053227410000,9.789409912109376,-0.039974282991886136,-0.009391750663612038,-0.07095569671094418
1738773053237401000,9.799401123046875,-0.04459872792214155,-0.0026574648393783715,-0.06392974359691142
1738773053247392000,9.80939208984375,-0.03743307407647371,-0.01401629605856724,-0.06332300987541675
1738773053257383000,9.8193828125,-0.04626081591546535,-0.006061966920085251,-0.06796060654819011
1738773053267373800,9.829373779296875,-0.03893821794241666,-0.007715305351372808,-0.058978843191266055
1738773053277365000,9.839364990234374,-0.04485445624887943,-0.003966291548777371,-0.06155775376856327
1738773053287356000,9.84935595703125,-0.03758183489739895,-0.00462510251738131,-0.061900868117809295
1738773053297348000,9.85934814453125,-0.03992635219693184,-0.0076562412410508835,-0.06716273416876793
1738773053307339000,9.869339111328125,-0.04198211568295956,0.0050711566512938585,-0.07436521289348602
1738773053317330000,9.879329833984375,-0.04659983861148357,-0.006522652367549017,-0.064797758603096
1738773053327320800,9.88932080078125,-0.037737902241945266,-0.0016163765549194067,-0.07469020706415176
1738773053337312000,9.89931201171875,-0.03786971192806959,-0.007091410432523116,-0.0684141955345869
1738773053347303000,9.909302978515624,-0.043725744479894635,-0.0016532197002787142,-0.06286883636713028
1738773053357293800,9.9192939453125,-0.023777765950560567,0.004757651989022269,-0.06004793372750282
1738773053367285000,9.929284912109376,-0.04500584741830826,0.0032348446022253483,-0.06454699871242046
1738773053377276000,9.93927587890625,-0.04499298793673515,0.005960177912889048,-0.06814531546533108
1738773053387267800,9.949267822265625,-0.05364537320882082,-0.007591112716123461,-0.06860650323629379
1738773053397259000,9.959259033203125,-0.04372369865328073,-0.00818048431086354,-0.06952712521255015
1738773053407250000,9.96925,-0.03472206155210733,0.009267667626217007,-0.07215864275991916
1738773053417240800,9.97924072265625,-0.03829612064659595,-0.003286620455235243,-0.06124386551380157
1738773053427232000,9.98923193359375,-0.04624854095578193,-0.0011177611167076974,-0.0805354259610176
1738773053437223000,9.999222900390626,-0.051399347847700116,-0.002171800214285031,-0.05903086563944816
1738773053447213800,10.0092138671875,-0.03772387371659278,-0.013365339602855965,-0.06639233431816101
1738773053457204700,10.019204833984375,-0.05648322698324918,-0.004042142397118732,-0.07160100887715816
1738773053467197000,10.029197021484375,-0.04438859230279922,0.005594787799753248,-0.06724982793033123
1738773053477187800,10.039187744140625,-0.033112872789800164,-0.013576945660077035,-0.054182256564497946
1738773053487178800,10.0491787109375,-0.04634235671907663,-0.010969366110721603,-0.06627192280888557
1738773053497170000,10.059169921875,-0.0290004690349102,-0.0011009743786882609,-0.08092822467088699
1738773053507160800,10.069160888671876,-0.03420329837501049,-0.011991402634838595,-0.06837561708986759
1738773053517151700,10.07915185546875,-0.03580079669952392,-0.009188400978082791,-0.06301321327388286
1738773053527143000,10.089142822265625,-0.04209025223255157,-0.0077903616152703754,-0.06375964772701263
1738773053537133800,10.0991337890625,-0.029835166293382644,-0.000294507700856775,-0.07347790866494178
1738773053547124700,10.109124755859375,-0.04388064278066158,-0.011753237364254892,-0.06660568480789661
1738773053557117000,10.119116943359375,-0.03175444391816854,-0.010854215298453346,-0.06571078179478645
1738773053567107800,10.12910791015625,-0.038675767613947386,-0.004866665321448817,-0.07945873664021491
1738773053577098800,10.1390986328125,-0.04940817403048277,-0.0018483678130432962,-0.0722965899258852
1738773053587090000,10.14908984375,-0.029787235498428342,-0.004995415400806814,-0.07036123794913292
1738773053597080800,10.159080810546875,-0.03371580711901188,-0.006406579106673598,-0.06615151129961014
1738773053607072000,10.169072021484375,-0.03535042258352041,-0.008289479376981034,-0.06241700094640255
1738773053617063000,10.17906298828125,-0.032327275370061394,0.0003745506671257317,-0.07440262229442596
1738773053627054000,10.18905419921875,-0.04091828584372997,0.0033408439936581996,-0.06846154180765152
1738773053637045800,10.199045654296874,-0.028937925192713737,-0.01054938713298179,-0.05918810202777385
1738773053647037000,10.209036865234374,-0.050663434788584705,-0.010789141572453082,-0.07383972771465779
1738773053657027800,10.21902783203125,-0.0463590155929327,-0.014354624634841455,-0.07786240735948086
1738773053667019000,10.22901904296875,-0.04892477442771196,0.0015570201836526392,-0.07351064189076423
1738773053677010000,10.239010009765625,-0.03929126916378736,-0.010261144776130094,-0.07159341009259224
1738773053687001000,10.2490009765625,-0.036732524591684336,-0.005007726893108338,-0.0726490566253662
1738773053696992000,10.258991943359375,-0.03324468247592449,-0.016353315038233996,-0.06100070440769195
1738773053706983000,10.26898291015625,-0.0356102425634861,-0.006623500659829005,-0.08765197996795177
1738773053716974800,10.278974853515624,-0.048320671054720876,0.000001388239488005638,-0.053988195297121996
1738773053726966000,10.288966064453126,-0.03757394385188818,-0.014786485846620052,-0.06287818871736527
1738773053736957000,10.29895703125,-0.03844137433618307,-0.0026780053039081393,-0.07007716031074523
1738773053746948000,10.308947998046875,-0.04285626816898584,-0.010264414445450528,-0.06876783127784729
1738773053756939000,10.31893896484375,-0.03529401622116565,-0.002578453919570893,-0.06671323683559895
1738773053766930000,10.328929931640625,-0.04523059608489275,-0.0070980685021728275,-0.0563584315598011
1738773053776921000,10.338921142578124,-0.03420388289690018,0.0022277773183770476,-0.07885434100627899
1738773053786912000,10.348912109375,-0.03103402068912983,-0.0072718359001912175,-0.06629881081581115
1738773053796903000,10.35890283203125,-0.023725158980488777,-0.005695133768534287,-0.06494155098795891
1738773053806895000,10.36889501953125,-0.03274462399929762,-0.004138223182735964,-0.07479600552618502
1738773053816886000,10.378885986328125,-0.052962651641666886,-0.009391056543868034,-0.060272390133142464
1738773053826877000,10.388876953125,-0.04643909509181976,0.002750796545483172,-0.07505728681087494
1738773053836867800,10.398867919921875,-0.0490121604502201,-0.00829542506057769,-0.06396949108541011
1738773053846859000,10.40885888671875,-0.04342266988009214,-0.003497486726939678,-0.06504325779676437
1738773053856850000,10.418849853515624,-0.023902269113063812,-0.005402726693218574,-0.06492810698449611
1738773053866840800,10.4288408203125,-0.028182430650293827,-0.0071384735777974126,-0.07887421475052833
1738773053876832000,10.43883203125,-0.04134527908414602,-0.006397217623284086,-0.06630757864415646
1738773053886824000,10.448823974609375,-0.0381242712110281,-0.0023548560304567216,-0.06432604943811893
1738773053896814800,10.45881494140625,-0.03494447213113308,-0.0028667602085042745,-0.05805939025878906
1738773053906806000,10.468805908203125,-0.0433089803725481,-0.0020316428249236196,-0.07168342646360397
1738773053916797000,10.478796875,-0.052985740256309505,-0.006834924053959548,-0.07425181564688682
1738773053926787800,10.488787841796874,-0.039329555347561836,-0.007545337345637381,-0.06888473565578461
1738773053936779000,10.498779052734376,-0.03286415872573852,-0.005177229107962921,-0.06620704087913036
1738773053946770000,10.50877001953125,-0.03335311128646135,0.004528135815775021,-0.07696049008369445
1738773053956760800,10.5187607421875,-0.036658290311694146,-0.001608339378936216,-0.07755261075794696
1738773053966753000,10.5287529296875,-0.04474164352416992,-0.0023192367278039453,-0.06528115820586682
1738773053976744000,10.538743896484375,-0.02224924120903015,0.0006970058208331466,-0.0660527271002531
1738773053986734800,10.54873486328125,-0.027924948757886883,0.0024084859138354658,-0.06680500677227974
1738773053996726000,10.55872607421875,-0.03733165952861309,-0.013375824464252218,-0.07489712781310082
1738773054006717000,10.568717041015624,-0.0407557887583971,0.0034578488362953064,-0.06562836420834064
1738773054016707800,10.578707763671876,-0.02563946816921234,-0.00510012701745145,-0.06981997067928314
1738773054026698800,10.58869873046875,-0.03222995247542858,-0.01381606077873148,-0.07580196769833564
1738773054036690000,10.59868994140625,-0.03736789988577366,-0.006007104060845449,-0.07068915472924708
1738773054046680800,10.608680908203125,-0.03211012548804283,-0.009960883187921717,-0.062169748187065124
1738773054056672800,10.6186728515625,-0.030847558206319806,-0.012540058626700192,-0.0721527975410223
1738773054066664000,10.628663818359374,-0.032387481124699115,0.008966465323092416,-0.07018529686033725
1738773054076654800,10.63865478515625,-0.03690115915685892,0.004343910955823958,-0.055209261524677276
1738773054086645800,10.648645751953126,-0.04529986192882061,-0.009744107765238732,-0.06582417904138564
1738773054096637000,10.658636962890625,-0.04763151974678039,-0.005003799636662006,-0.0677256287485361
1738773054106627800,10.6686279296875,-0.046077276042103765,-0.00812391355172731,-0.07224339843392372
1738773054116618800,10.67861865234375,-0.01892448070049286,-0.013124607915850356,-0.06749006642699241
1738773054126610000,10.68860986328125,-0.03850187235176563,-0.007018463927321136,-0.06361176368892192
1738773054136601900,10.698601806640625,-0.031903789260983466,-0.012010043403226882,-0.07035247012078762
1738773054146592800,10.7085927734375,-0.03880640825629234,0.004868966876389458,-0.06450666670203209
1738773054156584000,10.718583984375,-0.04030979855656624,-0.01064452720368281,-0.06450374409258365
1738773054166574800,10.728574951171876,-0.03053717708289623,-0.0031132001170888542,-0.0685667557477951
1738773054176565800,10.738565673828125,-0.02847673742175102,0.005279748767521232,-0.06907353622615336
1738773054186557000,10.748556884765625,-0.03947013286203146,0.0038667584307491777,-0.07360124278366566
1738773054196548000,10.758548095703125,-0.03216273245811462,-0.002722849092632532,-0.05129296486377716
1738773054206539000,10.7685390625,-0.033173370805382726,-0.006194333728635684,-0.07405600081384181
1738773054216530700,10.77853076171875,-0.0431760016426444,-0.012500238072965294,-0.06568740091919899
1738773054226522000,10.788522216796874,-0.034275779089331625,-0.0038983134796377267,-0.05928980883657932
1738773054236513000,10.798512939453126,-0.042635903416574,0.007583048140676692,-0.062440966343879696
1738773054246504200,10.808504150390625,-0.04935001410245895,-0.014139237451646476,-0.06289923150539398
1738773054256495400,10.818495361328125,-0.03228723562061787,-0.009438083156524226,-0.07173018821477889
1738773054266486300,10.828486328125,-0.040299569423496724,-0.007334425408160313,-0.07011866136491299
1738773054276477200,10.838477294921875,-0.03159603848606348,-0.009322557884920387,-0.05726151787936687
1738773054286468400,10.84846826171875,-0.04773498012125492,-0.014291761132236569,-0.06729775872528553
1738773054296459300,10.858459228515626,-0.04098199872970581,0.0003043806408997625,-0.06775602388679981
1738773054306451200,10.868451171875,-0.028937632931768893,-0.004624463196564466,-0.06046002165973186
1738773054316442400,10.8784423828125,-0.02981704611480236,-0.019216887775808572,-0.0684013360530138
1738773054326433300,10.888433349609375,-0.03144260149002075,-0.00824877290725708,-0.059283963617682456
1738773054336424200,10.898424072265625,-0.02748246568739414,-0.006854532936727628,-0.06231120248436928
1738773054346415400,10.908415283203125,-0.05009644855558872,-0.0008394921645987778,-0.06664192516505718
1738773054356406300,10.91840625,-0.02517331196218729,-0.003686844419734552,-0.06922726548314094
1738773054366397200,10.928397216796874,-0.0425204603433609,-0.012754267632961272,-0.0605541296839714
1738773054376388400,10.938388427734376,-0.04715981058180332,-0.008982402677740902,-0.06609130554497242
1738773054386380300,10.94838037109375,-0.03865793969631195,0.004512490722071379,-0.06413257269263267
1738773054396371200,10.95837109375,-0.028295827896893024,-0.00022505919383838772,-0.06429916143119335
1738773054406362400,10.9683623046875,-0.02832505399137735,-0.005400589535059407,-0.07311375152766704
1738773054416353300,10.978353271484375,-0.03866729204654693,-0.004029063719836995,-0.07654723310768603
1738773054426344200,10.98834423828125,-0.03235153302848339,-0.01465952586554922,-0.07521627676486968
1738773054436335400,10.99833544921875,-0.03294628405123949,0.0018148582690861075,-0.08135317208468913
1738773054446326300,11.008326171875,-0.04732230766713619,-0.007713935378193855,-0.05680792889297008
1738773054456317200,11.018317138671875,-0.023538111975789068,0.0008170428707730025,-0.07610767264664173
1738773054466308000,11.02830810546875,-0.03644493982195854,-0.014822963665798305,-0.06665946082174777
1738773054476300300,11.03830029296875,-0.028999884513020515,-0.00797320736888796,-0.06305062267482281
1738773054486291200,11.048291259765625,-0.03212970697134733,-0.0041327250237111,-0.06380582495629787
1738773054496282000,11.0582822265625,-0.026619711378216743,-0.00633267362024635,-0.05646072289049625
1738773054506273300,11.068273193359374,-0.026676994523406026,-0.003849268439831212,-0.07992635415196418
1738773054516264200,11.07826416015625,-0.030462942802906033,-0.004251793959271163,-0.0700263069063425
1738773054526255000,11.088255126953126,-0.03258241917490959,-0.014839001485146582,-0.07270633977055549
1738773054536246300,11.098246337890625,-0.034947687001526354,-0.004397549972357228,-0.07227204000651836
1738773054546237200,11.1082373046875,-0.04258417322933673,-0.00992063337592408,-0.06987550025880336
1738773054556229000,11.11822900390625,-0.03953296896517276,0.002028884612256661,-0.0638438188791275
1738773054566220300,11.12822021484375,-0.03404255485534668,-0.008710782662127166,-0.07212590953409671
1738773054576211200,11.138211181640624,-0.03135200059711933,-0.005602222187537699,-0.06987959191203116
1738773054586202000,11.1482021484375,-0.025322072783112524,0.0030151191706303507,-0.06645896981358528
1738773054596193300,11.158193359375,-0.03856090906262397,0.0014233290676958859,-0.061709729459881776
1738773054606184200,11.16818408203125,-0.034710663375258445,-0.015000621787644922,-0.06692717184722423
1738773054616175000,11.178175048828125,-0.0365925315991044,-0.006439248400414362,-0.06568740091919899
1738773054626166000,11.188166015625,-0.04428250157982111,-0.002080030277604237,-0.05667874955534934
1738773054636158200,11.198158203125,-0.04155161531120539,-0.008450350760808214,-0.06986439434289932
1738773054646149000,11.208149169921874,-0.038814591562747955,-0.01085773156294599,-0.06330138256549835
1738773054656140300,11.218140380859374,-0.039464579904079436,-0.0010065010282676666,-0.08459902213811873
1738773054666131200,11.228131103515626,-0.041994682903587814,-0.015721501674409954,-0.07532733592391014
1738773054676122000,11.2381220703125,-0.0345274157628417,-0.012629326079040765,-0.06215162800848484
1738773054686113000,11.248113037109375,-0.03896159881800413,-0.008386619608523323,-0.07549743179380894
1738773054696104200,11.258104248046875,-0.033656478147208686,-0.00021855638781562446,-0.0728366881519556
1738773054706095000,11.26809521484375,-0.04128068941533565,0.0002383205342106521,-0.06520926201343535
1738773054716086300,11.278086181640624,-0.036161446705460544,0.008305270601157098,-0.06238192963302135
1738773054726078200,11.288078125,-0.040591830368340014,0.0019440102072432637,-0.06630056438148021
1738773054736069000,11.298069091796876,-0.03479834165871143,-0.005212181690335273,-0.05999532675743103
1738773054746060000,11.30806005859375,-0.035603812822699546,-0.009062792703881859,-0.07148878067433834
1738773054756051200,11.31805126953125,-0.043942017579078674,-0.0016500870282761752,-0.06313070217370986
1738773054766042000,11.3280419921875,-0.03493453525900841,-0.0059976969116833055,-0.06553951688110828
1738773054776033300,11.338033203125,-0.052691725745797155,0.00191229076157324,-0.06900573168694972
1738773054786024200,11.348024169921874,-0.03850888661444187,-0.007195610592514276,-0.06794014828205108
1738773054796015400,11.358015380859374,-0.04315525111556053,-0.007066321657039225,-0.06105389589965343
1738773054806007000,11.368007080078126,-0.041028468219935894,-0.0011172861926723272,-0.05807751043736934
1738773054815998200,11.377998291015626,-0.031225451608002185,0.0022598620902281254,-0.07360416539311408
1738773054825989000,11.387989013671875,-0.03975070336908102,0.011015908666187896,-0.0664227294564247
1738773054835980300,11.397980224609375,-0.02825461910367012,-0.005937664686981588,-0.07104922021329403
1738773054845971200,11.40797119140625,-0.02295037521570921,-0.010744535245746374,-0.06853752965331077
1738773054855962400,11.41796240234375,-0.03993278193771839,-0.0023651764950715004,-0.06887421426177025
1738773054865953300,11.427953369140624,-0.02335515662431717,0.004784603928029537,-0.07439443898797035
1738773054875944200,11.437944091796876,-0.029636428850889206,-0.006493782466091215,-0.08277706740796566
1738773054885935400,11.447935302734376,-0.03485504028201103,0.00925233305976726,-0.06812251911163329
1738773054895927300,11.45792724609375,-0.0319762699753046,-0.0006427000840194523,-0.07427578104436397
1738773054905918200,11.467918212890625,-0.033434359829127784,-0.014296409907890483,-0.07384323484599589
1738773054915909400,11.477909423828125,-0.0329173502177,-0.00609807941308245,-0.06968669968843459
1738773054925900300,11.487900390625,-0.03464548918455839,-0.00533229180551134,-0.0697211864799261
1738773054935891200,11.49789111328125,-0.04587181659787893,-0.007614785852655768,-0.05774784009158611
1738773054945882400,11.50788232421875,-0.04838321489691734,0.0007025679119396954,-0.06225216577351093
1738773054955873300,11.517873291015626,-0.03699614396393299,-0.004596935868822038,-0.079167644739151
1738773054965864200,11.5278642578125,-0.0321855288118124,0.00795217371401377,-0.07184592354893685
1738773054975856400,11.5378564453125,-0.03671381989121437,0.0020432601974811402,-0.07175240004658699
1738773054985847300,11.547847412109375,-0.03564122222363949,-0.005483682974940165,-0.07041969013810158
1738773054995838200,11.557838134765625,-0.050799043866991994,-0.009733878632169216,-0.07817804917991161
1738773055005829000,11.5678291015625,-0.0326776962429285,-0.014158051749970764,-0.0671118807643652
1738773055015820300,11.5778203125,-0.03316314167231321,-0.004436082751303911,-0.06799100168645382
1738773055025811200,11.587811279296876,-0.04813625439852476,-0.004263667060155421,-0.06768763482570647
1738773055035802000,11.597802001953125,-0.03449643610268831,0.004708853544387966,-0.0617132365912199
1738773055045793300,11.607793212890625,-0.03837415431886911,-0.0017928017009049653,-0.07728256164491176
1738773055055784200,11.6177841796875,-0.03775251528918743,-0.007314807392237707,-0.07205752047300339
1738773055065776000,11.627776123046875,-0.04349894998669624,-0.003994540395727381,-0.06641571519374848
1738773055075767300,11.637767333984375,-0.04357756818085909,-0.0038961854546330867,-0.06525368567705155
1738773055085758200,11.64775830078125,-0.008986147271096706,-0.016796519627934322,-0.07514321152865887
1738773055095749000,11.6577490234375,-0.043344928468763824,-0.007923468209337443,-0.07262859835922718
1738773055105740300,11.667740234375,-0.03629296413064003,-0.009500763996038586,-0.06680325320661068
1738773055115731200,11.677731201171875,-0.03390869934260845,-0.005891560522932559,-0.06305705241560935
1738773055125722000,11.68772216796875,-0.03418400915265083,-0.0046333680222276595,-0.07234568976461887
1738773055135713000,11.697713134765625,-0.03170008338242769,-0.008586325165396556,-0.06430909830331802
1738773055145705200,11.707705322265625,-0.030846389162540434,0.005633612839644774,-0.06929974619746208
1738773055155696000,11.717696044921874,-0.03774783911406994,0.003947258054744452,-0.06824351514279842
1738773055165687300,11.727687255859376,-0.038947862553596495,-0.00005295402994379401,-0.07362871531248093
1738773055175678200,11.73767822265625,-0.03184650611579418,-0.004053631905512884,-0.061542556199431414
1738773055185669000,11.747669189453125,-0.03480038748532534,-0.011492284873127936,-0.07323416303694248
1738773055195660000,11.757659912109375,-0.04047930990457534,-0.017023460251605137,-0.05932137301862239
1738773055205651200,11.767651123046875,-0.03644961599707603,-0.00023937998013570904,-0.065599722635746
1738773055215642000,11.77764208984375,-0.029704233390092847,0.006785751149989664,-0.08969722205996512
1738773055225634000,11.787634033203124,-0.04509235665798187,-0.006742469130689278,-0.0717518155246973
1738773055235625000,11.797625,-0.03207973034977913,-0.020117946535069493,-0.06995324167013169
1738773055245615900,11.807615966796876,-0.039570378366112706,-0.001789066240703687,-0.0620183570176363
1738773055255607000,11.81760693359375,-0.03639817807078361,0.005002310932474211,-0.07490297303199768
1738773055265598000,11.827597900390625,-0.03175356713533401,0.001725736947217956,-0.06996843923926353
1738773055275588900,11.8375888671875,-0.040381694748997686,-0.01455548096918501,-0.0662532181084156
1738773055285580000,11.847580078125,-0.030785014364123342,-0.0062024805024731905,-0.0671598115593195
