time,seconds_elapsed,z,y,x
1738773043464827600,0.02682763671875,0.0008362325606867671,0.0036402747500687838,0.00026551715563982725
1738773043474819800,0.03681982421875,0.0020841897930949926,0.0028788771014660597,-0.0004673847579397261
1738773043484810800,0.046810791015625,0.0002921487612184137,0.0032349417451769114,-0.00020346550445538014
1738773043494801700,0.0568017578125,0.0006199838826432824,0.0031241541728377342,0.0004820321628358215
1738773043504792800,0.066792724609375,0.0025872609112411737,0.0026053704787045717,-0.0009499495499767363
1738773043514783700,0.07678369140625,0.0020240023732185364,0.0025092302821576595,0.0010287790792062879
1738773043524775000,0.08677490234375,0.0005544701125472784,0.003233876544982195,-0.00017683389887679368
1738773043534765800,0.096765869140625,0.0028879318851977587,0.002888730727136135,-0.0006578007596544921
1738773043544757800,0.1067578125,0.0018495653057470918,0.004619785584509373,0.00001997370782191865
1738773043554748700,0.116748779296875,0.0025425199419260025,0.0033848776947706938,0.0012008192716166377
1738773043564739800,0.12673974609375,0.0005350290448404849,0.003352387109771371,-0.0001496696495451033
1738773043574730800,0.136730712890625,0.0000327568814100232,0.00560994865372777,0.0014865765115246177
1738773043584722000,0.146721923828125,-0.0004593952908180654,0.0036719664931297302,0.0017869811272248626
1738773043594712800,0.156712890625,0.0009566074586473405,0.0040855552069842815,0.00015819176041986793
1738773043604704000,0.1667041015625,0.0016700683627277613,0.004920190200209618,0.00017070861940737814
1738773043614695700,0.17669580078125,0.0018426411552354693,0.0022128205746412277,-0.0017302557826042175
1738773043624686600,0.1866865234375,0.0001704423048067838,0.004278634674847126,0.0011675298446789384
1738773043634677800,0.196677734375,0.00008016114588826895,0.0036751623265445232,0.0003483414766378701
1738773043644669000,0.2066689453125,0.0025425199419260025,0.004037352278828621,0.0010772485984489322
1738773043654659800,0.216659912109375,0.001767273643054068,0.0049620019271969795,-0.0008370315190404654
1738773043664651000,0.226651123046875,0.0019401127938181162,0.004253600724041462,-0.00045327001134864986
1738773043674642000,0.236641845703125,0.002237055217847228,0.0018575548892840743,-0.0001483380765421316
1738773043684633900,0.2466337890625,0.0015278555219992995,0.004069310147315264,-0.0004647216119337827
1738773043694625000,0.256625,0.0010452907299622893,0.004582501482218504,0.0012665993999689817
1738773043704616000,0.266615966796875,0.0014397049089893699,0.003980626817792654,0.00010519486386328936
1738773043714606800,0.27660693359375,-0.0005659217131324112,0.005008607171475887,-0.00013182646944187582
1738773043724598000,0.286597900390625,0.0018247979460284114,0.004307929426431656,0.0005483448621816933
1738773043734589000,0.2965888671875,0.0021960425656288862,0.004085821565240622,-0.0002492718631401658
1738773043744579800,0.306579833984375,0.0008868326549418271,0.004804608877748251,0.00039547940832562745
1738773043754572000,0.316572021484375,0.0014689996605738997,0.003373692510649562,-0.0007978830835781991
1738773043764563000,0.32656298828125,0.0018548916559666395,0.0033369408920407295,0.0005163869354873896
1738773043774553900,0.336553955078125,-0.0004673847579397261,0.0036666402593255043,0.0011643340112641454
1738773043784545000,0.346544921875,0.0011885687708854675,0.0014389059506356716,0.0003787015157286078
1738773043794536000,0.356535888671875,0.0029704899061471224,0.0012721919920295477,-0.0002972087822854519
1738773043804526800,0.36652685546875,0.0023667511995881796,0.002950782421976328,0.000041278995922766626
1738773043814517800,0.376517822265625,0.0010716560063883662,0.004223773255944252,-0.0008862999966368079
1738773043824509000,0.386509033203125,0.001797101111151278,0.004816859494894743,-0.00033449303009547293
1738773043834500900,0.3965009765625,0.0024288028944283724,0.0035396073944866657,-0.0017944378778338432
1738773043844491800,0.40649169921875,0.003424558788537979,0.005022189114242792,-0.0015475628897547722
1738773043854483000,0.41648291015625,0.004379035905003548,0.003983023576438427,-0.0003081277245655656
1738773043864473900,0.426473876953125,0.003373426152393222,0.0035715652629733086,-0.0022088258992880583
1738773043874464800,0.43646484375,0.003290601773187518,0.0019449065439403057,-0.002523078816011548
1738773043884456000,0.4464560546875,0.0021462414879351854,0.004988100845366716,-0.0013944311067461967
1738773043894447900,0.45644775390625,0.0016104135429486632,0.004415520932525396,0.00016165387933142483
1738773043904438800,0.466438720703125,0.003049053018912673,0.0032205607276409864,-0.000025832661776803434
1738773043914430000,0.476429931640625,0.0008972189389169216,0.0036975329276174307,0.0007819040911272168
1738773043924420900,0.4864208984375,0.0024770060554146767,0.004293282050639391,-0.0005510080372914672
1738773043934411800,0.496411865234375,0.0010974886827170849,0.003954261541366577,-0.0005627259379252791
1738773043944403000,0.50640283203125,0.001540638622827828,0.004540689755231142,0.0001917476038215682
1738773043954393900,0.516393798828125,0.0032258869614452124,0.005100752227008343,0.00006844323797849938
1738773043964385800,0.5263857421875,0.0005613943794742227,0.00373108871281147,0.00034727618913166225
1738773043974377000,0.536376953125,0.0011981561547145247,0.004830175079405308,0.00024580975878052413
1738773043984367900,0.546367919921875,0.0024833977222442627,0.004221642855554819,-0.000570981705095619
1738773043994358800,0.55635888671875,0.0023164174053817987,0.0028565065003931522,0.00045380264054983854
1738773044004350000,0.566349853515625,0.00021411814668681473,0.004352670628577471,0.0004215783847030252
1738773044014340900,0.5763408203125,0.00180881901178509,0.0025917883031070232,0.0005400890368036926
1738773044024331800,0.586331787109375,0.0027534421533346176,0.003980094101279974,-0.000624777574557811
1738773044034322700,0.59632275390625,0.0008064051507972181,0.0041334922425448895,0.0010370349045842886
1738773044044315000,0.60631494140625,0.0010538127971813083,0.004299407359212637,0.0004346278728917241
1738773044054305800,0.616305908203125,0.000036485307646216825,0.004710066597908735,-0.0007925567333586514
1738773044064296700,0.626296630859375,0.003689010627567768,0.004677309654653072,0.001702026231214404
1738773044074287900,0.636287841796875,0.001172323478385806,0.004270112607628107,-0.000818123109638691
1738773044084278800,0.64627880859375,0.0016255935188382864,0.00392816262319684,-0.0004290352517273277
1738773044094269700,0.656269775390625,0.0023257385473698378,0.0034706315491348505,0.0008396946941502392
1738773044104260900,0.6662607421875,0.0022690133191645145,0.004953479394316673,0.0016133430181071162
1738773044114252800,0.676252685546875,-0.00017204020696226507,0.005632852204144001,0.00009667274571256712
1738773044124243700,0.68624365234375,0.0016311861108988523,0.004246676806360483,-0.00027750138542614877
1738773044134235000,0.69623486328125,0.0009097357979044318,0.0031153657473623753,-0.0000673779723001644
1738773044144225800,0.706225830078125,0.00045566685730591416,0.004418983124196529,-0.000004793690095539205
1738773044154216700,0.716216796875,0.0010045443195849657,0.004343349486589432,-0.0016889767721295357
1738773044164207900,0.726207763671875,0.002121207769960165,0.004354801028966904,-0.0002162486780434847
1738773044174198800,0.73619873046875,0.002037850907072425,0.0023694143164902925,0.0008215851848945022
1738773044184190700,0.746190673828125,0.0022362563759088516,0.0025840650778263807,-0.0005611280212178826
1738773044194182000,0.756181884765625,0.0017598168924450874,0.007179882377386093,0.0008527441532351077
1738773044204172800,0.7661728515625,0.00112438655924052,0.004236290231347084,-0.0005747101386077702
1738773044214164500,0.77616455078125,0.000749679864384234,0.0036828855518251657,0.0014141384745016694
1738773044224155600,0.78615576171875,0.0018490327056497335,0.00435986090451479,0.0018421085551381111
1738773044234146600,0.796146484375,0.002162486780434847,0.003043726785108447,-0.0008247809601016343
1738773044244138500,0.806138427734375,0.0008583368035033345,0.0035776905715465546,0.00023196132679004222
1738773044254129700,0.816129638671875,0.00098217383492738,0.003564108395949006,0.000898550555575639
1738773044264120600,0.82612060546875,0.0023299995809793472,0.0018495653057470918,-0.0003203782835043967
1738773044274111500,0.836111572265625,0.0004439489566721022,0.003314570290967822,-0.00026764770154841244
1738773044284102700,0.8461025390625,0.0019718045368790627,0.003959854133427143,0.0007744472241029143
1738773044294093600,0.856093505859375,0.0017635452095419168,0.002734533743932843,0.0012293151812627912
1738773044304084500,0.86608447265625,0.0009914948605000973,0.004057059530168772,-0.00019441076437942684
1738773044314076700,0.87607666015625,0.0015483618481084704,0.005216599907726049,-0.0006125270738266408
1738773044324067600,0.886067626953125,0.0022631543688476086,0.0038538603112101555,-0.0006530070677399635
1738773044334058500,0.89605859375,0.0019004317000508308,0.005312207154929638,0.0005523395957425237
1738773044344049700,0.906049560546875,0.002338788006454706,0.004859736189246178,0.0013843111228197813
1738773044354040600,0.91604052734375,0.001398159540258348,0.0020937772933393717,-0.0009494169498793781
1738773044364031500,0.926031494140625,0.0012809804175049067,0.0046818372793495655,0.00010146643762709573
1738773044374022400,0.9360224609375,0.0028309402987360954,0.0038485340774059296,-0.000496945867780596
1738773044384014600,0.9460146484375,0.002110288944095373,0.005328719038516283,0.000651675509288907
1738773044394005500,0.956005615234375,0.0011848403373733163,0.0021726067643612623,-0.00005352953667170368
1738773044403996400,0.965996337890625,0.0010306433541700244,0.004884770140051842,0.00005219795639277436
1738773044413987600,0.975987548828125,0.0007771103992126882,0.00583631731569767,-0.0005635248962789774
1738773044423978500,0.985978515625,0.0017353157745674253,0.0021912488155066967,0.0005725796218030155
1738773044433969400,0.995969482421875,0.0020069582387804985,0.0033097765408456326,0.0007297061383724213
1738773044443960600,1.005960693359375,0.0008255799184553325,0.004033623728901148,0.00012863067968282849
1738773044453952500,1.015952392578125,0.0025720810517668724,0.001841575838625431,0.0009020126308314502
1738773044463943400,1.025943359375,0.0009867012267932296,0.00509862182661891,-0.00009667274571256712
1738773044473934600,1.0359345703125,0.002019474981352687,0.004357197787612677,0.0003057308786083013
1738773044483925500,1.045925537109375,0.0012737899087369442,0.002296443795785308,-0.000794420950114727
1738773044493916400,1.05591650390625,0.0002788329729810357,0.0046781087294220924,0.000002663161012605997
1738773044503907600,1.065907470703125,0.0009270463488064706,0.0046181874349713326,0.0010961571242660284
1738773044513898500,1.0758984375,0.00016218650853261352,0.0016194682102650404,-0.0008098672842606902
1738773044523889700,1.0858896484375,0.0003755057114176452,0.003213636577129364,0.001362473238259554
1738773044533881600,1.095881591796875,0.0013246563030406833,0.0023004384711384773,-0.0013763216556981206
1738773044543872500,1.10587255859375,0.0007121292874217033,0.003540938952937722,0.0009504822082817554
1738773044553863400,1.115863525390625,0.0019142802339047194,0.003549461020156741,0.00008948221511673182
1738773044563854600,1.1258544921875,0.0008354336023330688,0.003597131697461009,0.00008868326403899118
1738773044573845500,1.135845458984375,0.00048389637959189713,0.0035867453552782536,-0.0006857639527879655
1738773044583836700,1.145836669921875,0.0013291836949065328,0.003366768127307296,0.0011467571603134274
1738773044593827600,1.15582763671875,0.0009353021741844714,0.0031230889726430178,0.00009161273919744417
1738773044603819500,1.165819580078125,0.000025566347176209092,0.0036557212006300688,0.00018455706594977528
1738773044613810400,1.175810546875,0.0021313277538865805,0.003579288488253951,0.0005792375304736197
1738773044623801300,1.18580126953125,0.0027244137600064278,0.0046299053356051445,-0.0012503541074693203
1738773044633792500,1.19579248046875,0.0012996225850656629,0.003751595038920641,-0.0005840312223881483
1738773044643783700,1.20578369140625,0.002490588231012225,0.004520716145634651,0.001514539704658091
1738773044653774600,1.215774658203125,0.0013651363551616669,0.005429652985185385,0.0012538161827251315
1738773044663765800,1.225765869140625,0.001895105466246605,0.0031502533238381147,-0.00002663161103555467
1738773044673757400,1.23575732421875,-0.0000828243064461276,0.0036943370942026377,0.00023382554354611784
1738773044683748600,1.24574853515625,0.0009270463488064706,0.004010454285889864,0.001169394003227353
1738773044693739800,1.25573974609375,-0.00007297061529243365,0.003349723992869258,0.00008122641156660393
1738773044703730700,1.265730712890625,0.0010804444318637252,0.004395014606416225,-0.00007163903501350433
1738773044713721600,1.2757216796875,0.0003933488915208727,0.005390504375100136,0.0005944175645709038
1738773044723712800,1.285712646484375,0.001961151836439967,0.0019017633749172091,0.001091896090656519
1738773044733703700,1.29570361328125,0.0012905678013339639,0.0033657029271125793,0.0005909554311074317
1738773044743695600,1.305695556640625,0.0016900419723242521,0.004318315535783768,0.0011257182341068983
1738773044753686800,1.315686767578125,0.001627457677386701,0.0020626182667911053,0.000472977408207953
1738773044763677700,1.325677734375,0.0014804512029513717,0.005297826137393713,0.0010961571242660284
1738773044773668600,1.335668701171875,0.0003115898580290377,0.004006459377706051,-0.00006205165118444711
1738773044783659800,1.34565966796875,0.00012223910016473383,0.004131628200411797,0.0005217132274992764
1738773044793650700,1.355650634765625,0.0004700479330495,0.0032565132714807987,0.0006617955514229834
1738773044803641600,1.3656416015625,0.0005510080372914672,0.0031755531672388315,-0.0007004113867878914
1738773044813632500,1.375632568359375,0.0017025588313117623,0.003567836945876479,-0.0010527475969865918
1738773044823624700,1.385624755859375,0.0006572681595571339,0.003910319413989782,-0.0008005462004803121
1738773044833615600,1.39561572265625,0.0033390712924301624,0.004141215234994888,0.0007456850726157427
1738773044843606500,1.4056064453125,0.001156877144239843,0.00358781055547297,-0.0010836402652785182
1738773044853597700,1.41559765625,0.00033209618413820863,0.0038863508962094784,-0.001270327833481133
1738773044863588600,1.425588623046875,0.002013349672779441,0.0034376082476228476,0.00036485306918621063
1738773044873579500,1.43557958984375,0.0007888282998465002,0.0033838124945759773,0.000045273736759554595
1738773044883570700,1.44557080078125,0.0008034756756387651,0.00250550196506083,0.0006447513005696237
1738773044893562600,1.455562744140625,0.0028815402183681726,0.004736431874334812,-0.00025300029665231705
1738773044903553500,1.465553466796875,0.0036962011363357306,0.003165433183312416,0.00030120351584628224
1738773044913544700,1.475544677734375,0.0016695356462150812,0.004449076950550079,0.00040480049210600555
1738773044923535600,1.48553564453125,0.0020327907986938953,0.0036426717415452003,0.0010106696281582117
1738773044933526500,1.495526611328125,0.0012993563432246447,0.004150004126131535,-0.00020959076937288046
1738773044943517700,1.505517578125,0.0015989618841558695,0.003942809998989105,0.00006657902849838138
1738773044953508600,1.515508544921875,0.0007534082396887243,0.0049532135017216206,-0.00006471481174230576
1738773044963500500,1.52550048828125,0.0004902879591099918,0.002341983839869499,0.000003994741746282671
1738773044973491700,1.53549169921875,0.0008490157779306173,0.004735632799565792,0.0014452975010499358
1738773044983482600,1.545482666015625,0.001344363670796156,0.0034498588647693396,0.0007832356495782733
1738773044993473500,1.5554736328125,0.001945705502294004,0.0033182986080646515,0.00018642126815393567
1738773045003464700,1.565464599609375,0.00031798143754713237,0.0028993834275752306,-0.0020061591640114784
1738773045013455600,1.57545556640625,0.0007821703911758959,0.004323375876992941,0.0004652542411349714
1738773045023446500,1.585446533203125,0.0005957491230219603,0.0026615632232278585,-0.0007904262165538967
1738773045033437400,1.5954375,0.0021995047573000193,0.003069559345021844,-0.00017363809456583112
1738773045043429600,1.6054296875,0.001757952617481351,0.003120425855740905,0.00042823629337362945
1738773045053420500,1.615420654296875,0.0004588626616168767,0.0035691685043275356,0.0015536881983280182
1738773045063411500,1.625411376953125,0.0005336974863894284,0.003652791725471616,0.0010546117555350065
1738773045073402600,1.635402587890625,0.0009547432418912649,0.0038397456519305706,-0.00018322547839488834
1738773045083393500,1.6453935546875,0.0022679478861391544,0.0033372072502970695,-0.0004814995336346328
1738773045093384400,1.655384521484375,0.0012295814231038094,0.0039036613889038563,0.00019361180602572858
1738773045103375600,1.665375732421875,0.0012157330056652427,0.003457582090049982,-0.0002593918761704117
1738773045113367600,1.675367431640625,0.0009805759182199836,0.0032562471460551023,0.00009427589975530282
1738773045123358500,1.6853583984375,0.00014753911818843335,0.0036993969697505236,0.0010194580536335707
1738773045133349600,1.695349609375,0.002388855442404747,0.0020298613235354424,0.000773381965700537
1738773045143340500,1.705340576171875,0.001181378262117505,0.005453887395560741,0.00041864890954457223
1738773045153331500,1.71533154296875,0.00041039311327040195,0.0027361316606402397,-0.0009984191274270415
1738773045163322600,1.725322509765625,-0.001181111903861165,0.0017188041238114238,0.0006524744676426053
1738773045173313500,1.7353134765625,0.000577107013668865,0.0034788872580975294,0.0003890878288075328
1738773045183305500,1.745305419921875,0.002040780382230878,0.001820536912418902,-0.000017843178284238093
1738773045193296600,1.755296630859375,0.0021968416403979063,0.003751328680664301,0.0002162486780434847
1738773045203287600,1.76528759765625,0.0013070794520899653,0.0037590519059449434,-0.001017327536828816
1738773045213278500,1.775278564453125,0.0016639430541545153,0.004177700728178024,-0.00018349179299548268
1738773045223269400,1.785269287109375,0.0001478054327890277,0.002251702593639493,0.0004106594424229115
1738773045233260500,1.795260498046875,0.001201884588226676,0.005754025653004646,-0.0006186523241922259
1738773045243251500,1.80525146484375,0.0034402713645249605,0.005051217507570982,-0.0009592706337571144
1738773045253242400,1.815242431640625,0.001133707701228559,0.005534847732633352,0.000811997801065445
1738773045263234600,1.825234619140625,0.0012029499048367143,0.004293814767152071,0.0013337110867723823
1738773045273225500,1.8352255859375,0.0014703312190249562,0.0036671727430075407,-0.00015686018741689622
1738773045283216400,1.84521630859375,0.0006261091912165284,0.004492220003157854,0.00026072346372529864
1738773045293207600,1.85520751953125,0.002017610939219594,0.0036160401068627834,-0.00028389296494424343
1738773045303198500,1.865198486328125,0.0024027039762586355,0.0023971113841980696,0.0009116000146605074
1738773045313189600,1.875189697265625,0.0007155913626775146,0.0030711572617292404,-0.00006151902198325843
1738773045323180500,1.8851806640625,0.001520132296718657,0.0032927324064075947,-0.0014207963831722736
1738773045333172500,1.89517236328125,0.00002157160452043172,0.004898352082818747,0.0012591425329446793
1738773045343163400,1.905163330078125,0.0032027175184339285,0.0037414750549942255,-0.00009693906031316146
1738773045353154600,1.915154541015625,0.0017667410429567099,0.003915912006050348,0.00043516053119674325
1738773045363145500,1.9251455078125,0.002049036091193557,0.004857073072344065,-0.0016354472609236836
1738773045373136600,1.93513671875,0.0013451626291498542,0.0030780816450715065,-0.00046578687033616006
1738773045383127600,1.94512744140625,0.001350755337625742,0.004473578184843063,-0.0021550299134105444
1738773045393118700,1.95511865234375,0.0013946974650025368,0.003334810258820653,0.0010567422723397613
1738773045403110400,1.9651103515625,0.0018895127577707171,0.004141215234994888,0.00038269624928943813
1738773045413101300,1.975101318359375,0.0014524880098178983,0.003881557146087289,0.0007731156656518579
1738773045423092500,1.985092529296875,0.00013528858835343271,0.004181162919849157,0.0023076289799064398
1738773045433083600,1.995083740234375,0.0011952266795560718,0.005327120888978243,0.0009890979854390025
1738773045443074600,2.005074462890625,0.0021662150975316763,0.004495149478316307,0.0017097494564950466
1738773045453065700,2.015065673828125,0.0006945523782633245,0.004885302856564522,0.00129695946816355
1738773045463056600,2.025056640625,0.001487641828134656,0.0041252365335822105,0.0005020058597438037
1738773045473047600,2.035047607421875,0.002540122950449586,0.0027244137600064278,0.00039494677912443876
1738773045483039700,2.045039794921875,0.0010258496040478349,0.004571582190692425,0.0008503473363816738
1738773045493030700,2.05503076171875,0.0011981561547145247,0.0036511938087642193,0.00004660531703848392
1738773045503021600,2.065021484375,0.0026117621455341578,0.0038394792936742306,-0.00024767397553659976
1738773045513012700,2.0750126953125,0.0014929680619388819,0.005080512259155512,-0.0007408913807012141
1738773045523003600,2.085003662109375,0.0012636699248105288,0.0060270000249147415,0.00017337177996523678
1738773045532994600,2.09499462890625,0.0028154938481748104,0.0035577169619500637,0.0008117315010167658
1738773045542985500,2.1049853515625,0.0003028014034498483,0.003213103860616684,0.001770203118212521
1738773045552976600,2.1149765625,0.00296250032261014,0.004381699021905661,0.00015206649550236762
1738773045562968600,2.124968505859375,0.0020580908749252558,0.004335626028478146,0.001995772821828723
1738773045572959500,2.13495947265625,-0.0002713761059567332,0.003213636577129364,0.0009824400767683983
1738773045582950700,2.14495068359375,0.0013273194199427962,0.003958788700401783,0.00008735168376006186
1738773045592941600,2.154941650390625,0.0016170714516192675,0.003870105603709817,0.0009949569357559085
1738773045602932500,2.164932373046875,-0.0006580671179108322,0.004000600427389145,0.0021872541401535273
1738773045612923600,2.174923583984375,0.0006969492533244193,0.003230680711567402,0.0012431635987013578
1738773045622914600,2.18491455078125,0.001907089608721435,0.0038490667939186096,0.0023643544409424067
1738773045632906500,2.194906494140625,0.0021465078461915255,0.003430950455367565,-0.00001704423084447626
1738773045642897700,2.204897705078125,0.0025859293527901173,0.0038780951872467995,0.0006732470938004553
1738773045652888600,2.214888671875,0.0033041839487850666,0.0034914042335003614,0.0020538298413157463
1738773045662879500,2.22487939453125,0.0008679241873323917,0.004593420308083296,0.0008950884221121669
1738773045672870700,2.23487060546875,0.0011475561186671257,0.0037982002831995487,0.0004948153509758413
1738773045682861600,2.244861572265625,0.00017470336752012372,0.00509888818487525,0.000075101139373146
1738773045692852500,2.2548525390625,0.003760383464396,0.003943875432014465,0.002153964713215828
1738773045702843400,2.264843505859375,0.0016391756944358349,0.0036301547661423683,0.0008149272762238979
1738773045712835600,2.274835693359375,0.0005454153870232403,0.0033625070936977863,0.00021172130072955042
1738773045722826500,2.284826416015625,-0.0002537992550060153,0.0019044264918193221,0.0005123922019265592
1738773045732817700,2.294817626953125,0.00030306773260235786,0.0038400120101869106,0.0012341088149696589
1738773045742808600,2.30480859375,0.0022333269007503986,0.003261040663346648,0.0016189356101676822
1738773045752799500,2.314799560546875,0.0015225291717797518,0.004129763692617416,-0.0008910936885513365
1738773045762790400,2.324790283203125,0.0018413095967844129,0.005852030124515295,0.0004825647920370102
1738773045772781600,2.334781494140625,0.0017595505341887474,0.003314836649224162,0.000035420041967881843
1738773045782773500,2.3447734375,0.00202320353128016,0.0029148298781365156,-0.0008077367674559355
1738773045792764400,2.354764404296875,0.0018213358707726002,0.0034732946660369635,-0.0005547364708036184
1738773045802755600,2.364755615234375,0.002680471632629633,0.0026027073618024588,0.0004266384057700634
1738773045812746500,2.37474658203125,0.0008484831196255982,0.005257079843431711,-0.00022423815971706063
1738773045822737400,2.3847373046875,0.001555818715132773,0.0036903421860188246,0.00030173614504747093
1738773045832728600,2.394728515625,0.0015329155139625072,0.002635730430483818,-0.0012175972806289792
1738773045842719500,2.404719482421875,0.00233825552277267,0.002730805426836014,0.00040266994619742036
1738773045852710400,2.41471044921875,0.0007243797881528735,0.004476241301745176,0.00003355582884978503
1738773045862702600,2.42470263671875,0.0009398295660503209,0.004021106753498316,0.0008703210623934865
1738773045872693500,2.434693603515625,0.0016788567882031202,0.0029435919132083654,-0.0007866977830417454
1738773045882684400,2.444684326171875,0.0006340986583381891,0.0034935346338897943,0.00023036343918647617
1738773045892675600,2.454675537109375,0.0013278521364554763,0.004034156445413828,0.0006072007236070931
1738773045902666500,2.46466650390625,-0.0003070624661631882,0.004126301966607571,0.001317998394370079
1738773045912657400,2.474657470703125,0.001035436987876892,0.0043952809646725655,0.0006213154993019998
1738773045922648300,2.4846484375,0.0027150926180183887,0.0036706349346786737,0.000990429543890059
1738773045932640500,2.494640625,-0.00046312372433021665,0.003313771216198802,0.0003480751474853605
1738773045942631400,2.50463134765625,0.0009824400767683983,0.004385161213576794,0.0002769687562249601
1738773045952622600,2.51462255859375,0.0012447615154087543,0.003893807763233781,-0.00001304948909819359
1738773045962613500,2.524613525390625,0.002269545802846551,0.003632818115875125,0.001282312092371285
1738773045972604400,2.5346044921875,0.000007456851108145202,0.002651443239301443,0.0001853560097515583
1738773045982595300,2.54459521484375,0.0002764361270237714,0.004540423396974802,0.0009635316673666239
1738773045992586500,2.55458642578125,0.00045859633246436715,0.002014681464061141,0.0007592672482132912
1738773046002577700,2.56457763671875,0.0019379822770133615,0.004465588368475437,-0.00021198761533014476
1738773046012569300,2.5745693359375,0.0009832390351220965,0.004644020460546017,-0.0003382214636076242
1738773046022560500,2.584560546875,0.0013046825770288706,0.0026160231791436672,0.000526506919413805
1738773046032551400,2.594551513671875,0.001320927869528532,0.003707120195031166,-0.000972852751147002
1738773046042542300,2.604542236328125,0.0009747169679030776,0.0027087011840194464,-0.00022157499915920198
1738773046052533500,2.614533447265625,0.002043177140876651,0.0044104610569775105,0.00048176583368331194
1738773046062524700,2.624524658203125,0.0015430354978889227,0.004387824330478907,-0.0016937704058364034
1738773046072515600,2.634515625,0.0003296993381809443,0.004772384651005268,-0.000015180017726379447
1738773046082507500,2.644507568359375,0.00004900216299574822,0.004252269398421049,0.0007843009079806507
1738773046092498400,2.65449853515625,0.0012996225850656629,0.004364122170954943,-0.0001395496365148574
1738773046102489300,2.6644892578125,0.0011030812747776508,0.0037878139410167933,0.000013848437447450124
1738773046112480800,2.674480712890625,0.0028868666850030422,0.003867176128551364,0.00006151902198325843
1738773046122471700,2.6844716796875,0.0003225088003091514,0.003622964257374406,-0.0004087952256668359
1738773046132462600,2.694462646484375,0.001458080718293786,0.003775297198444605,0.0007483482477255166
1738773046142453500,2.70445361328125,0.0016298545524477959,0.00547386147081852,0.00006471481174230576
1738773046152444700,2.714444580078125,0.0006697850185446441,0.0029609024059027433,0.00022690132027491927
1738773046162436600,2.7244365234375,-0.00005512743518920615,0.005593703594058752,-0.00043569316039793193
1738773046172427800,2.734427734375,0.0011598066193982959,0.00407383730635047,0.002183259464800358
1738773046182418700,2.744418701171875,-0.0003323625132907182,0.004538292996585369,0.0019273296929895878
1738773046192409600,2.75440966796875,0.0008317052270285785,0.0024253407027572393,-0.000910268456209451
1738773046202400500,2.764400390625,0.001064998097717762,0.003768639173358679,0.0008146609761752188
1738773046212391700,2.7743916015625,0.0021949773654341698,0.004593686666339636,0.0009139968897216022
1738773046222382800,2.7843828125,-0.0004700479330495,0.004627508576959372,0.0016799219883978367
1738773046232373800,2.794373779296875,0.0009241168736480176,0.003954527899622917,-0.0005145227187313139
1738773046242366000,2.804365966796875,0.002487126039341092,0.003820304526016116,0.0006703176186420023
1738773046252356900,2.81435693359375,0.0018101505702361465,0.004187820944935083,0.0005083974683657289
1738773046262347800,2.82434765625,0.0024293356109410524,0.004734567832201719,0.0007283745799213648
1738773046272339000,2.8343388671875,0.0012767193838953972,0.004737763665616512,-0.0008362325606867671
1738773046282329900,2.844329833984375,0.0031345405150204897,0.0041095237247645855,0.0014114753575995564
1738773046292320800,2.85432080078125,0.0015164038632065058,0.0031353395897895098,-0.00028868665685877204
1738773046302312000,2.86431201171875,0.0018245317041873932,0.004619785584509373,0.0005387574783526361
1738773046312303900,2.874303955078125,0.0005259743193164468,0.0029973878990858793,-0.001612277701497078
1738773046322294800,2.884294677734375,-0.00010173275222769007,0.0038421424105763435,0.0002234392159152776
1738773046332286000,2.894285888671875,0.0007747135823592544,0.003867975203320384,0.0016165387351065874
1738773046342276900,2.90427685546875,0.003114566905423999,0.0038924762047827244,0.00048123320448212326
1738773046352267800,2.914267822265625,0.0011491540353745222,0.004474110435694456,-0.00016405072528868914
1738773046362259000,2.924259033203125,-0.0006024070316925645,0.0041071269661188126,0.000984570593573153
1738773046372249900,2.934249755859375,0.0018809906905516982,0.004145476501435041,0.0005816344055347145
1738773046382240800,2.94424072265625,-0.00007696535612922162,0.003638144349679351,0.001627191435545683
1738773046392233000,2.95423291015625,0.00044554684427566826,0.0036400086246430874,-0.0007976167253218591
1738773046402223900,2.964223876953125,0.00031798143754713237,0.004819788970053196,-0.0009265137487091124
1738773046412214800,2.97421484375,0.0006641923682764173,0.004040015395730734,-0.0012708604335784912
1738773046422205700,2.984205810546875,0.0007241134881041944,0.00430260319262743,0.0015696671325713396
1738773046432196900,2.99419677734375,0.0004926847759634256,0.004076766781508923,0.0009443568997085094
1738773046442187800,3.004187744140625,0.0016993631143122911,0.00361817074008286,0.00040559942135587335
1738773046452178700,3.0141787109375,0.001838912721723318,0.003091397462412715,0.0009438242996111512
1738773046462169900,3.024169921875,0.0004295678809285164,0.002966228872537613,0.0009030779474414885
1738773046472161800,3.034161865234375,0.0021702100057154894,0.0033124396577477455,0.000577107013668865
1738773046482152700,3.044152587890625,-0.00047058056225068867,0.0041159153915941715,0.0009653958841226995
1738773046492143900,3.054143798828125,0.0007310376968234777,0.0030248183757066727,0.0013768542557954788
1738773046502134800,3.064134765625,0.002442118711769581,0.004283694550395012,0.0004876247840002179
1738773046512125700,3.074125732421875,0.0017068199813365936,0.004463457968086004,0.000496945867780596
1738773046522116900,3.084116943359375,0.001672198879532516,0.0046690539456903934,0.00043223105603829026
1738773046532107800,3.094107666015625,0.0012684636749327183,0.003478354774415493,0.0005328985280357301
1738773046542099700,3.104099609375,0.001918807509355247,0.0035081820096820593,-0.00031638352083973587
1738773046552091000,3.1140908203125,0.0016492956783622503,0.003629089565947652,0.001591505017131567
1738773046562081800,3.124081787109375,0.0013435647124424577,0.004939364735037088,0.001558748190291226
1738773046572072700,3.13407275390625,0.0018879148410633206,0.004761732183396816,0.0005430185701698065
1738773046582063600,3.144063720703125,0.0015278555219992995,0.0035356127191334963,0.0012085424968972802
1738773046592054800,3.1540546875,0.0012711267918348312,0.00478436890989542,-0.0005147890187799931
1738773046602045700,3.164045654296875,0.002267149044200778,0.005205947440117598,0.0005424859118647873
1738773046612036600,3.17403662109375,0.0007936219917610288,0.0025012409314513206,-0.00031798143754713237
1738773046622028800,3.18402880859375,0.00024234765442088246,0.005018194206058979,0.0013273194199427962
1738773046632019700,3.194019775390625,0.0001984054979402572,0.003281546989455819,-0.0019004317000508308
1738773046642010600,3.2040107421875,0.00020666129421442747,0.0031342741567641497,0.0000697748182574287
1738773046652001800,3.214001708984375,0.0005187837523408234,0.00407463638111949,0.000010386328540334944
1738773046661992700,3.22399267578125,0.00267780851572752,0.004019775427877903,0.000060453756304923445
1738773046671983600,3.233983642578125,-0.00011238539445912465,0.004007258452475071,0.00007163903501350433
1738773046681974800,3.243974853515625,0.0003603257064241916,0.003948668949306011,-0.00008122641156660393
1738773046691965700,3.253965576171875,0.0025249430909752846,0.005133775528520346,-0.000023968450477696024
1738773046701957600,3.26395751953125,0.00040559942135587335,0.003697799053043127,0.0003081277245655656
1738773046711948800,3.27394873046875,0.0018988338997587562,0.003151318524032831,0.00020932445477228612
1738773046721939700,3.283939697265625,0.0010641991393640637,0.0036661075428128242,-0.0005755090969614685
1738773046731930600,3.2939306640625,0.00045619948650710285,0.004336425103247166,0.0008820389630272985
1738773046741921800,3.303921875,0.0006740460521541536,0.00455746753141284,0.0012929646763950586
1738773046751913000,3.313912841796875,0.0016389093361794949,0.003925765864551067,0.0008143946761265397
1738773046761903900,3.32390380859375,0.001743571599945426,0.00418382603675127,0.00035206988104619086
1738773046771894800,3.333894775390625,0.002058623591437936,0.0038453382439911366,-0.00039308256236836314
1738773046781886700,3.34388671875,0.0025832662358880043,0.0030597057193517685,0.0011611381778493524
1738773046791877600,3.353877685546875,0.0003424825263209641,0.004818989895284176,-0.0006474144756793976
1738773046801868800,3.363868896484375,0.0018975022248923779,0.0038599856197834015,-0.0005739112384617329
1738773046811860000,3.37385986328125,0.0017177389236167073,0.0036368127912282944,0.00021518341964110732
1738773046821851000,3.383850830078125,-0.0002937466779258102,0.004896488040685654,-0.0015640745405107737
1738773046831841800,3.393841796875,0.0010162622202187777,0.0025747441686689854,-0.00042051312630064785
1738773046841833000,3.4038330078125,0.0022272015921771526,0.003403786104172468,0.0017664746847003698
1738773046851824600,3.41382470703125,0.001591505017131567,0.004248540848493576,0.00004740426811622456
1738773046861815800,3.42381591796875,0.0008673915872350335,0.003634948516264558,0.0006878945278003812
1738773046871807000,3.433806884765625,0.0019654128700494766,0.005106078926473856,0.0004878911131527275
1738773046881798000,3.4437978515625,0.002043709857389331,0.002257561543956399,0.00033635724685154855
1738773046891788800,3.453788818359375,0.0010375675046816468,0.003841343568637967,0.000050333743274677545
1738773046901780000,3.463780029296875,0.003078614128753543,0.004086886998265982,0.0012101404136046767
1738773046911771000,3.47377099609375,0.0006671218434348702,0.0031124362722039223,-0.001618403010070324
1738773046921761800,3.48376171875,0.0011416971683502197,0.0035451999865472317,-0.00008229167724493891
1738773046931754000,3.49375390625,0.0020359866321086884,0.0033630398102104664,0.0005869606975466013
1738773046941745000,3.503744873046875,0.0012490225490182638,0.003287938656285405,0.001119060325436294
1738773046951735800,3.51373583984375,0.0008346347021870315,0.0029465213883668184,0.0008612662786617875
1738773046961727000,3.52372705078125,0.0018301242962479591,0.0026431872975081205,-0.0005757753970101476
1738773046971718000,3.5337177734375,-0.0001257012045243755,0.004231763072311878,-0.00024527712957933545
1738773046981708800,3.543708740234375,0.0011089402250945568,0.003314037574455142,-0.00008495483780279756
1738773046991699700,3.55369970703125,0.001785383210517466,0.0015675366157665849,0.00044128578156232834
1738773047001691000,3.56369091796875,0.0004444815858732909,0.003969441633671522,-0.00017789915727917105
1738773047011682800,3.573682861328125,0.0017132115317508578,0.007215834688395262,-0.0007661914569325745
1738773047021673700,3.583673828125,0.0007989483419805765,0.00318913534283638,-0.0005286374944262207
1738773047031665000,3.593664794921875,0.0012839100090786815,0.0043862261809408665,0.00016884441720321774
1738773047041655800,3.60365576171875,0.0019201391842216253,0.00370179396122694,0.001058872789144516
1738773047051646700,3.613646728515625,0.001424791174940765,0.004846686962991953,0.00044314999831840396
1738773047061638000,3.623637939453125,0.0008167914929799736,0.003528155852109194,0.0010548781137913465
1738773047071628800,3.63362890625,0.00012090751260984689,0.0026437200140208006,-0.00011957593233091757
1738773047081619700,3.64361962890625,0.00009507485083304346,0.003912982530891895,0.0003091930120717734
1738773047091612000,3.65361181640625,0.0004649879119824618,0.003921238239854574,-0.0010285128373652697
1738773047101602800,3.663602783203125,0.001416002749465406,0.0027438548859208822,0.0006024070316925645
1738773047111593700,3.67359375,0.00005273058923194185,0.004430967383086681,0.00018748654110822827
1738773047121585000,3.6835849609375,0.0012367720482870936,0.0017238641157746315,0.00008868326403899118
1738773047131575800,3.693575927734375,0.0012689962750300765,0.004280232358723879,0.0011371697764843702
1738773047141566700,3.703566650390625,0.00199337606318295,0.0038101845420897007,-0.0013134710025042295
1738773047151557600,3.7135576171875,0.001773132593370974,0.0036887445021420717,-0.0010468886466696858
1738773047161548800,3.723548828125,0.001017593895085156,0.00407490273937583,0.00018029600323643535
1738773047171540700,3.733540771484375,0.0009179916232824326,0.0036304211243987083,-0.0006900250446051359
1738773047181532000,3.743531982421875,0.0008303736103698611,0.0028722193092107773,0.0003962783666793257
1738773047191522800,3.753522705078125,0.00035260253935121,0.0041057956404984,-0.0005038700764998794
1738773047201513700,3.763513671875,0.002192846732214093,0.0041433461010456085,0.00032730249222368
1738773047211504600,3.773504638671875,-0.000031425301131093875,0.003567570587620139,0.0001233043585671112
1738773047221495000,3.7834951171875,0.004181695636361837,0.0039015309885144234,0.0008372978190891445
1738773047231486200,3.793486328125,0.0008210525847971439,0.0037952708080410957,-0.0011443602852523327
1738773047241478000,3.803477783203125,0.002377403900027275,0.0038578552193939686,0.00023941817926242948
1738773047251469000,3.813468994140625,0.001672198879532516,0.004102599807083607,0.000675111310556531
1738773047261460000,3.8234599609375,0.0014397049089893699,0.004094077739864588,0.00005858954318682663
1738773047271451000,3.833450927734375,0.0018466358305886388,0.0018905780743807554,0.00037683729897253215
1738773047281442000,3.843442138671875,0.001657018787227571,0.004795820452272892,0.0006836334359832108
1738773047291433200,3.85343310546875,0.0013411679537966847,0.004372377879917622,0.0013171994360163808
1738773047301424000,3.863424072265625,0.0024594292044639587,0.0030216225422918797,0.0005739112384617329
1738773047311415000,3.8734150390625,-0.0010058758780360222,0.00430127140134573,-0.00010998855577781796
1738773047321407000,3.883406982421875,0.0011081412667408586,0.005560946650803089,0.0011153318919241428
1738773047331398000,3.89339794921875,0.00039547940832562745,0.002368615474551916,-0.00020053602929692715
1738773047341389000,3.90338916015625,0.0008852347382344306,0.0049337721429765224,0.0006372944335453212
1738773047351380200,3.913380126953125,0.003543602069839835,0.0035694348625838757,-0.001198688754811883
1738773047361371100,3.92337109375,0.001496430253610015,0.00350445369258523,-0.0006420881254598498
1738773047371362000,3.933362060546875,0.0026194851379841566,0.003306048223748803,0.0015574166318401694
1738773047381353200,3.943353271484375,-0.00009614011651137844,0.004682635888457298,0.0010061422362923622
1738773047391344000,3.95334423828125,0.0017249294323846698,0.003492469433695078,0.0004993426846340299
1738773047401336000,3.963336181640625,0.00020266656065359712,0.004077033139765263,0.0003097256412729621
1738773047411327200,3.9733271484375,0.0010295780375599861,0.003192863892763853,-0.0015867113834246993
1738773047421318100,3.983318115234375,0.00029294771957211196,0.0038429414853453636,0.0008998821140266955
1738773047431309000,3.99330908203125,0.0018607506062835455,0.002764361212030053,-0.00012729909212794155
1738773047441300200,4.00330029296875,0.000723048229701817,0.0034205641131848097,-0.0001704423048067838
1738773047451291100,4.013291015625,0.0016381103778257966,0.004210990387946367,-0.0001507349224993959
1738773047461282000,4.023281982421875,0.0026261431630700827,0.00415453128516674,0.0008799084462225437
1738773047471273000,4.03327294921875,0.001630387152545154,0.004131894558668137,0.00019121496006846428
1738773047481265200,4.04326513671875,0.0014178669080138206,0.003846403444185853,0.000922252656891942
1738773047491256000,4.053256103515625,-0.0007070692372508347,0.00293293921276927,-0.0007462177309207618
1738773047501247000,4.0632470703125,0.0022887205705046654,0.0034961977507919073,0.0007299724384211004
1738773047511238100,4.073238037109375,0.0025925873778760433,0.00490154791623354,0.00037470675306394696
1738773047521229000,4.08322900390625,-0.0002378202771069482,0.003861317178234458,-0.00038056570338085294
1738773047531220000,4.093219970703125,0.00040719733806326985,0.003314303932711482,0.0005052016349509358
1738773047541211100,4.103211181640625,0.0008026767172850668,0.004320712294429541,0.0010468886466696858
1738773047551202000,4.1132021484375,0.002397910226136446,0.003652791725471616,0.0002596582053229213
1738773047561194000,4.123194091796875,0.0021936458069831133,0.004193946253508329,0.00019041601626668125
1738773047571185200,4.13318505859375,0.0026322684716433287,0.004358529578894377,0.0002948119363281876
1738773047581176000,4.143176025390625,0.003072755178436637,0.004562261048704386,0.001272990950383246
1738773047591167000,4.1531669921875,0.0011640676530078053,0.004444549325853586,0.0021723404061049223
1738773047601158100,4.163158203125,0.0007419566973112524,0.004097007215023041,-0.00048389637959189713
1738773047611149000,4.173149169921875,0.002730805426836014,0.004018976353108883,0.0000953411654336378
1738773047621140000,4.183139892578125,0.0014146711910143495,0.0022069616243243217,0.00010599380766507238
1738773047631131000,4.193130859375,0.0023007048293948174,0.004718588665127754,0.00039175100391730666
1738773047641123000,4.203123046875,0.002159823663532734,0.0026703516487032175,0.00016644757124595344
1738773047651114000,4.213114013671875,0.00199390877969563,0.004101800732314587,-0.0007009439868852496
1738773047661105200,4.223105224609375,0.0028218855150043964,0.0029622339643538,0.0017177389236167073
1738773047671096000,4.233095947265625,0.0005336974863894284,0.0034759577829390764,0.0004346278728917241
1738773047681087000,4.2430869140625,0.0027710190042853355,0.005019259639084339,-0.0004886900424025953
1738773047691078000,4.253077880859375,0.001984853995963931,0.004014449194073677,0.0008727178792469203
1738773047701069000,4.263069091796875,0.0011179950088262558,0.0038892803713679314,0.0001555285998620093
1738773047711061000,4.27306103515625,0.002555303042754531,0.0035864789970219135,0.0014676681021228433
1738773047721052000,4.283052001953125,0.002683667466044426,0.003073554253205657,-0.00007430219557136297
1738773047731043000,4.29304296875,0.0016951019642874599,0.0041433461010456085,0.0007550061563961208
1738773047741034000,4.303033935546875,0.0015305186389014125,0.004063717555254698,0.0007033408619463444
1738773047751025000,4.31302490234375,0.0006727144937030971,0.003820570884272456,-0.0009629990672692657
1738773047761016000,4.32301611328125,0.0010125337867066264,0.0027712853625416756,0.0014474280178546906
1738773047771007000,4.333007080078125,0.001222657272592187,0.0035446672700345516,-0.000006924218723725062
1738773047780998000,4.342997802734375,0.001406947965733707,0.004474909510463476,-0.00020160128769930452
1738773047790990000,4.352989990234375,0.0031403994653373957,0.0032583775464445353,0.0013488910626620054
1738773047800981000,4.36298095703125,0.0017180051654577255,0.0034200313966721296,0.0023606258910149336
1738773047810972000,4.372971923828125,0.002626675646752119,0.003945473115891218,0.0007368966471403837
1738773047820963000,4.382963134765625,-7.989483492565341e-7,0.004415520932525396,0.001711081014946103
1738773047830954000,4.3929541015625,0.0019110844004899263,0.004069576505571604,-0.00011851066665258259
1738773047840945000,4.40294482421875,0.0009653958841226995,0.0037169738207012415,-0.00014567491598427296
1738773047850935800,4.412935791015625,0.0004290352517273277,0.004591555800288916,0.0012740562669932842
1738773047860927200,4.42292724609375,0.0014831144362688065,0.0054541537538170815,-0.00070493872044608
1738773047870919000,4.4329189453125,0.00043595946044661105,0.004437359049916267,0.00021491710504051298
1738773047880910000,4.44291015625,0.00061279337387532,0.005638711154460907,0.00005273058923194185
1738773047890901000,4.45290087890625,0.0009558085002936423,0.0051505533047020435,0.0021766014397144318
1738773047900892000,4.462891845703125,0.0020367854740470648,0.004286890383809805,0.0002402171230642125
1738773047910883000,4.472883056640625,0.00018136126163881272,0.0032977922819554806,0.00042583944741636515
1738773047920874200,4.482874267578125,0.002624012529850006,0.003996073268353939,0.0011443602852523327
1738773047930865200,4.492865234375,-0.00003408846168895252,0.004877046681940556,0.0009155947482213378
1738773047940856000,4.50285595703125,0.0015283881220966578,0.003129746997728944,-0.00012436961696948856
1738773047950848000,4.512847900390625,0.0003174488083459437,0.004452272783964872,-0.0001930791768245399
1738773047960839000,4.5228388671875,0.0009246495319530368,0.004798749927431345,0.0003336940717417747
1738773047970830000,4.532830078125,0.0002796319022309035,0.004708202555775642,0.0011856392957270145
1738773047980821200,4.5428212890625,0.0012913667596876621,0.002469282830134034,0.0005166532355360687
1738773047990812200,4.552812255859375,0.001243696198798716,0.004034689161926508,-0.00020905814017169178
1738773048000803000,4.562802978515625,0.0011086739832535386,0.0036788906436413527,0.00155262288171798
1738773048010794000,4.5727939453125,0.0014170679496601224,0.002971288748085499,0.0005643238546326756
1738773048020785200,4.58278515625,-0.00017496968212071806,0.0035958001390099525,-0.00015286543930415064
1738773048030777000,4.592777099609375,0.002156627830117941,0.003294330323114991,-0.0012578109744936228
1738773048040768300,4.602768310546875,0.0013611416798084974,0.002895655110478401,-0.0004135889175813645
1738773048050759200,4.61275927734375,0.002061286708340049,0.003534547286108136,0.00046924897469580173
1738773048060750000,4.62275,0.0008386294357478619,0.0029561088886111975,-0.00023755396250635386
1738773048070741000,4.632740966796875,0.0009329052991233766,0.004294081125408411,0.0009339706157334149
1738773048080732200,4.642732177734375,0.0016085492679849267,0.0037971350830048323,0.00010759170982055366
1738773048090723000,4.65272314453125,0.002326803747564554,0.004769721534103155,-0.0004830974212381989
1738773048100714000,4.6627138671875,-0.0007669904152862728,0.002644785214215517,0.000055393749789800495
1738773048110706200,4.6727060546875,0.0009558085002936423,0.004686897154897451,-0.00026764770154841244
1738773048120697000,4.682697021484375,0.0007297061383724213,0.003925499506294727,0.00016937704640440643
1738773048130688000,4.69268798828125,0.0016474314033985138,0.002906307578086853,0.000818123109638691
1738773048140679200,4.70267919921875,0.003952929750084877,0.004009122494608164,0.0009028115891851485
1738773048150670000,4.712670166015625,0.002686330582946539,0.0038714371621608734,-0.00010572749306447804
1738773048160661000,4.722660888671875,0.00162426196038723,0.002496713539585471,0.0012639362830668688
1738773048170652200,4.732652099609375,0.0019600866362452507,0.0035177695099264383,-0.0006609965930692852
1738773048180643000,4.74264306640625,0.0021134845446795225,0.002430400811135769,-0.000728907180018723
1738773048190635000,4.752635009765625,0.002365419641137123,0.002639725338667631,0.000023968450477696024
1738773048200626200,4.762626220703125,0.0008958873804658651,0.0051742554642260075,0.000035420041967881843
1738773048210617000,4.7726171875,0.000291616132017225,0.003965446725487709,-0.0002814961189869791
1738773048220608300,4.782608154296875,0.0020578245166689157,0.003509779926389456,0.00008628641808172688
1738773048230599400,4.792599365234375,0.0015065502375364304,0.004195011220872402,0.00012090751260984689
1738773048240590300,4.80259033203125,0.0016029566759243608,0.0038155107758939266,0.0006671218434348702
1738773048250581200,4.812581298828125,0.0024836640805006027,0.003707120195031166,0.0001073253879440017
1738773048260572200,4.822572265625,0.0003656520275399089,0.004367051646113396,0.0018040252616629004
1738773048270564400,4.832564453125,0.001347559504210949,0.004509530495852232,0.00022077605535741895
1738773048280555300,4.84255517578125,0.001454884884878993,0.00433163158595562,0.0007829693495295942
1738773048290546200,4.852546142578125,-0.00021678130724467337,0.004010454285889864,-0.000060453756304923445
1738773048300537300,4.862537353515625,0.001243696198798716,0.0031582426745444536,0.0004884237423539162
1738773048310528300,4.8725283203125,0.0017355820164084435,0.004328968469053507,0.0010064085945487022
1738773048320519200,4.882519287109375,-0.0006141249323263764,0.003311640815809369,0.001284708851017058
1738773048330510300,4.89251025390625,0.0018229337874799967,0.004332962911576033,-0.0007566040731035173
1738773048340501200,4.902501220703125,0.0005078648100607097,0.002526274649426341,0.0002490055630914867
1738773048350493200,4.9124931640625,0.00007084008393576369,0.004235225263983011,-0.0010418286547064781
1738773048360484400,4.922484375,0.00021944446780253202,0.0023782027419656515,-0.0008040083339437842
1738773048370475300,4.932475341796875,0.0012665993999689817,0.005281314719468355,0.0013651363551616669
1738773048380466200,4.942466064453125,0.0020367854740470648,0.005747634451836348,0.0007464840309694409
1738773048390457300,4.952457275390625,0.0008953547803685069,0.0037358824629336596,-0.0004261057765688747
1738773048400448300,4.9624482421875,0.001353152096271515,0.004486893769353628,0.001600293442606926
1738773048410439200,4.972439208984375,-0.000006391586794052273,0.0039020637050271034,-0.0002468750171829015
1738773048420430000,4.98243017578125,0.0016189356101676822,0.00350365461781621,0.000963797967415303
1738773048430422300,4.99242236328125,0.0010905644157901406,0.0049707903526723385,-0.0009289105655625463
1738773048440413200,5.0024130859375,0.00256435782648623,0.003486876841634512,-0.0002609897928778082
1738773048450404400,5.012404296875,0.000014381069377122913,0.004854409955441952,-0.000045806369598722085
1738773048460395300,5.022395263671875,0.001770203118212521,0.002947586588561535,0.0014136058744043112
1738773048470386200,5.03238623046875,-0.0001680454588495195,0.0037406759802252054,0.00019281286222394556
1738773048480377000,5.042377197265625,0.002412557601928711,0.003599794814363122,0.0006165218073874712
1738773048490368300,5.0523681640625,0.0015986956423148513,0.0031398669816553593,0.00014434332842938602
1738773048500359400,5.062359375,0.0019688750617206097,0.0028064390644431114,0.00019228023302275687
1738773048510351000,5.07235107421875,0.001425057533197105,0.0032732912804931402,-0.00043116576853208244
1738773048520342300,5.08234228515625,-0.0003294330381322652,0.003210440743714571,0.0006908240029588342
1738773048530333200,5.092333251953125,0.0010522148804739118,0.004324174486100674,-0.000031691615731688216
1738773048540324000,5.102323974609375,0.001234641415067017,0.00379021093249321,-0.00020959076937288046
1738773048550315300,5.112315185546875,0.0018373148050159216,0.0026314693968743086,0.00003861583536490798
1738773048560306400,5.122306396484375,0.001359543763101101,0.0046450854279100895,0.0008282430935651064
1738773048570297300,5.13229736328125,0.0029526466969400644,0.0035270904190838337,0.0004340952436905354
1738773048580288500,5.14228857421875,0.001249821507371962,0.0030120352748781443,0.00014940333494450897
1738773048590280200,5.1522802734375,0.00022849922243040055,0.003867708845064044,-0.00023435817274730653
1738773048600271000,5.16227099609375,0.0018985675415024161,0.0038277613930404186,-0.0009720537927933037
1738773048610262300,5.17226220703125,0.001966478070244193,0.0016519587952643633,-0.0007507451227866113
1738773048620253400,5.18225341796875,0.0024884575977921486,0.005251220893114805,0.0009435579413548112
1738773048630244400,5.192244384765625,0.0009624664089642465,0.0029031119775027037,-0.00009693906031316146
1738773048640235300,5.2022353515625,0.0028445222415030003,0.0041252365335822105,0.0010042780777439475
1738773048650226400,5.212226318359375,0.0009054747642949224,0.004977980628609657,-0.0011970909545198083
1738773048660217300,5.22221728515625,0.0017803232185542583,0.0029670277144759893,-0.0008881642133928835
1738773048670209300,5.232209228515625,0.0007443535141646862,0.004022438544780016,0.0015654060989618301
1738773048680200400,5.242200439453125,0.002008556155487895,0.004826713353395462,0.0011036139912903309
1738773048690191400,5.25219140625,0.001181644620373845,0.0038432078436017036,0.0011179950088262558
1738773048700182300,5.262182373046875,0.0015483618481084704,0.0032530513126403093,0.0007470166892744601
1738773048710173400,5.27217333984375,0.0007094661123119295,0.004526575095951557,0.00017789915727917105
1738773048720164400,5.282164306640625,0.001300155185163021,0.0031878037843853235,0.00009028115891851485
1738773048730155300,5.2921552734375,0.0005917543894611299,0.0038842204958200455,0.0008604673203080893
1738773048740146400,5.302146484375,0.0014857775531709194,0.0025744778104126453,0.00040266994619742036
1738773048750138400,5.312138427734375,0.0007579356315545738,0.0035459990613162518,0.00015632755821570754
1738773048760129300,5.32212939453125,-0.0001430117554264143,0.0038932752795517445,-0.000014647385796706658
1738773048770120400,5.332120361328125,0.0009749832679517567,0.0025419872254133224,-0.0007123955874703825
1738773048780111400,5.342111328125,0.0029585056472569704,0.003314836649224162,-0.0005731122801080346
1738773048790102300,5.352102294921875,0.001187237212434411,0.004102333448827267,0.00007456851017195731
1738773048800093200,5.36209326171875,0.003251453395932913,0.004061853047460318,0.0008839031797833741
1738773048810084400,5.37208447265625,0.0020807278342545033,0.003320961957797408,0.0002359560749027878
1738773048820075300,5.3820751953125,0.001915878034196794,0.005566539242863655,0.001047421246767044
1738773048830067500,5.3920673828125,0.00025992453447543085,0.0024551681708544493,0.001190433045849204
1738773048840058400,5.402058349609375,0.0009518137667328119,0.004217914305627346,0.000743820914067328
1738773048850049300,5.41204931640625,0.0004703142330981791,0.0038488004356622696,-0.000969656917732209
1738773048860040200,5.422040283203125,0.00350418733432889,0.004324973560869694,0.001281779375858605
1738773048870031400,5.43203125,0.00119575927965343,0.004461327567696571,-0.00010945591930067167
1738773048880022300,5.442022216796875,0.0012514194240793586,0.0037883466575294733,0.0006623281515203416
1738773048890013200,5.45201318359375,0.0013454289874061942,0.004719920456409454,-0.00040959418402053416
1738773048900004400,5.46200439453125,0.000248472933890298,0.004471447318792343,-0.0005387574783526361
1738773048909996300,5.471996337890625,0.0009600695921108127,0.004750812891870737,0.0004394215648062527
1738773048919987200,5.4819873046875,0.0023390543647110462,0.004455202259123325,-0.0005227785441093147
1738773048929978400,5.491978271484375,0.000957939017098397,0.002898584585636854,-0.00021944446780253202
1738773048939969300,5.50196923828125,0.0014711301773786545,0.003835750976577401,0.0014442323008552194
1738773048949960200,5.511960205078125,-0.00006897587445564568,0.0033483924344182014,0.00034461304312571883
1738773048959951400,5.521951416015625,0.0010303769959136844,0.00526613462716341,0.00041012681322172284
1738773048969942300,5.5319423828125,0.002168079372495413,0.003157177474349737,0.0005350290448404849
1738773048979933200,5.54193310546875,0.0016815199051052332,0.002906573936343193,0.001365402713418007
1738773048989925400,5.55192529296875,0.0011832424206659198,0.004576908424496651,0.0000697748182574287
1738773048999916300,5.561916259765625,0.0012532835826277733,0.0031185615807771683,-0.00010892329009948298
1738773049009907200,5.5719072265625,0.002171008847653866,0.0021667478140443563,0.000916393706575036
1738773049019898000,5.581898193359375,0.0025385250337421894,0.0034296188969165087,0.001437041675671935
1738773049029889300,5.59188916015625,0.0023105584550648928,0.003823766717687249,0.0004868258547503501
1738773049039880200,5.601880126953125,0.0017065536230802536,0.003959587775170803,0.0004878911131527275
1738773049049871000,5.61187109375,0.002796851797029376,0.0057497648522257805,0.00031372037483379245
1738773049059862300,5.6218623046875,0.0013970943400636315,0.003952397499233484,0.0019371833186596632
1738773049069854200,5.631854248046875,0.001133707701228559,0.004848551005125046,0.0012279836228117347
1738773049079845000,5.64184521484375,0.002416019793599844,0.003763312939554453,-0.0008676578872837126
1738773049089836300,5.651836181640625,0.0001675128296483308,0.004010187927633524,-0.00011717908637365326
1738773049099827200,5.6618271484375,0.0009603358921594918,0.004089283756911755,-0.00020985709852539003
1738773049109818000,5.671818115234375,0.002686330582946539,0.004059456288814545,-0.0010245180455967784
1738773049119809300,5.681809326171875,0.0007086671539582312,0.004160656593739986,0.00041492050513625145
1738773049129800200,5.69180029296875,0.001178182428702712,0.004052798729389906,0.00039281626231968403
1738773049139791400,5.701791259765625,0.001648230361752212,0.0029467877466231585,0.0010101370280608535
1738773049149783300,5.711783203125,0.001885784324258566,0.003585413796827197,0.001630387152545154
1738773049159774200,5.721774169921875,0.0017148094484582543,0.005058408249169588,0.0014365090755745769
1738773049169765000,5.73176513671875,0.0010455570882186294,0.003236273303627968,-0.0006716492353007197
1738773049179756300,5.74175634765625,0.0017694041598588228,0.003337739733979106,0.00012117382721044123
1738773049189747500,5.75174755859375,0.001740375766530633,0.004060521721839905,0.001068193931132555
1738773049199738400,5.76173828125,0.0020783308427780867,0.0037894118577241898,0.0017092167399823666
1738773049209729300,5.771729248046875,0.0015403723809868097,0.004497013986110687,0.00159443449229002
1738773049219720200,5.78172021484375,0.0014136058744043112,0.004018177278339863,-0.0003510046226438135
1738773049229712100,5.791712158203125,0.0012503541074693203,0.0036764938849955797,-0.0005970807396806777
1738773049239703300,5.801703369140625,0.0026085663121193647,0.00390312890522182,0.0005126585019752383
1738773049249694200,5.811694091796875,0.000070307454734575,0.0028549085836857557,0.00042104575550183654
1738773049259685000,5.82168505859375,0.0006173207075335085,0.003373958868905902,-0.0001603222917765379
1738773049269676000,5.831676025390625,0.0014298511669039726,0.00512738386169076,0.0002287655370309949
1738773049279667200,5.841667236328125,0.0024567660875618458,0.004226170480251312,0.0007848335662856698
1738773049289658000,5.851658203125,0.0005744438385590911,0.004589159041643143,0.00020266656065359712
1738773049299649000,5.86164892578125,0.001255680457688868,0.002139583695679903,-0.0006615291931666434
1738773049309641200,5.87164111328125,0.0016056197928264737,0.005505819339305162,-0.00035127095179632306
1738773049319632100,5.881632080078125,0.0020010992884635925,0.003040797309949994,0.0014700648607686162
1738773049329623000,5.891623046875,0.0021784657146781683,0.0035782232880592346,0.00009747169679030776
1738773049339614200,5.9016142578125,-0.00007643271965207532,0.003882622579112649,-0.00039547940832562745
1738773049349605000,5.911605224609375,0.0009925601771101356,0.0028367992490530014,0.0012229235144332051
1738773049359596000,5.921595947265625,0.0006503439508378506,0.004523645620793104,0.000045273736759554595
1738773049369587200,5.931587158203125,0.0010309095960110426,0.004850149154663086,-0.00028389296494424343
1738773049379578000,5.941578125,0.0014303837670013309,0.003099120454862714,0.000651675509288907
1738773049389569000,5.951569091796875,0.002748914761468768,0.004956675227731466,-0.0003784351865760982
1738773049399561200,5.961561279296875,0.0014791196445003152,0.002712429501116276,-0.000811997801065445
1738773049409552100,5.97155224609375,0.0005552690709009767,0.003212571144104004,0.0001395496365148574
1738773049419543000,5.98154296875,0.0010953581659123302,0.0038722362369298935,-0.0009411611245013773
1738773049429534200,5.9915341796875,0.0015094797126948833,0.0031931300181895494,-0.0007398261222988367
1738773049439525000,6.001525146484375,0.00021225394448265433,0.0037207023706287146,0.0004319647268857807
1738773049449516000,6.01151611328125,0.001612277701497078,0.0029917950741946697,0.0012801815755665302
1738773049459507000,6.0215068359375,0.0017984326696023345,0.0020849888678640127,0.0009749832679517567
1738773049469498000,6.031498046875,0.0015102786710485816,0.003774498123675585,-0.0007800398743711412
1738773049479490000,6.041489990234375,0.0022072279825806618,0.003070092061534524,0.00033209618413820863
1738773049489481000,6.05148095703125,0.0013174657942727208,0.003055444685742259,0.000922519015148282
1738773049499472100,6.06147216796875,0.0012889700010418892,0.0051923650316894054,0.00023222764139063656
1738773049509463000,6.071463134765625,0.00033342777169309556,0.003959587775170803,0.000919323181733489
1738773049519454000,6.081453857421875,0.0016386429779231548,0.0044112601317465305,0.00017070861940737814
1738773049529445000,6.091445068359375,-0.00022556974727194756,0.003900465788319707,-0.0008048072922974825
1738773049539436000,6.10143603515625,0.0014034858904778957,0.004569984506815672,0.0004516721237450838
1738773049549427000,6.111427001953125,-0.0006327670416794717,0.0028096348978579044,0.000029294771593413316
1738773049559419100,6.121419189453125,0.0005858954391442239,0.0032684975303709507,0.0006093312404118478
1738773049569410000,6.13141015625,-0.00002210423735959921,0.003677559085190296,-0.00046365635353140533
1738773049579401000,6.14140087890625,0.0012578109744936228,0.0026554379146546125,0.00024980452144518495
1738773049589392100,6.15139208984375,0.00045327001134864986,0.004001932218670845,-0.0004996090428903699
1738773049599383000,6.161383056640625,0.0013520868960767984,0.003306314582005143,0.0004058657505083829
1738773049609374000,6.1713740234375,-0.0013755226973444223,0.002519882982596755,-0.0008732505375519395
1738773049619364900,6.18136474609375,0.0008929579053074121,0.004829110112041235,-0.0006500775925815105
1738773049629356000,6.19135595703125,0.0015459649730473757,0.0035449336282908916,0.0016916398890316486
1738773049639348000,6.201347900390625,0.001549693406559527,0.0027382622938603163,-0.002603506203740835
1738773049649339100,6.211339111328125,0.00009507485083304346,0.004277302883565426,0.0002825613773893565
1738773049659330000,6.221330078125,0.001680720946751535,0.004061587154865265,0.001475391210988164
1738773049669321000,6.231321044921875,0.0009030779474414885,0.0034615767654031515,-0.0004034689045511186
1738773049679312000,6.241311767578125,0.0015624766238033772,0.0043859598226845264,0.0006593986763618886
1738773049689303000,6.251302978515625,0.0004266384057700634,0.004083957523107529,0.0002495381922926754
1738773049699294200,6.261294189453125,0.0021845910232514143,0.004157727118581533,0.00029401297797448933
1738773049709285000,6.27128515625,0.0014751249691471457,0.0033545177429914474,0.0009555422002449632
1738773049719277000,6.281277099609375,-0.0002700445184018463,0.0046730488538742065,0.0007310376968234777
1738773049729268000,6.29126806640625,-0.0006095975404605269,0.0033475933596491814,0.0015725966077297926
1738773049739259000,6.3012587890625,0.0021723404061049223,0.004601409658789635,-0.0004492752777878195
1738773049749250000,6.31125,0.00019441076437942684,0.003203782718628645,0.000434361572843045
1738773049759241200,6.3212412109375,0.0014442323008552194,0.0046243127435445786,0.0010492854053154588
1738773049769232100,6.331232177734375,0.0008226504432968795,0.003055444685742259,0.0007302387384697795
1738773049779223000,6.34122314453125,0.0024684839881956577,0.003687146585434675,0.000055660068028373644
1738773049789214200,6.351214111328125,0.0006322344415821135,0.003619768423959613,-0.0007597998483106494
1738773049799206100,6.3612060546875,0.0014684670604765415,0.0043896883726119995,0.0013219931861385703
1738773049809197300,6.371197265625,0.0011369034182280302,0.0037646444980055094,0.0001579254458192736
1738773049819188200,6.381188232421875,0.0008186557097360492,0.005316734779626131,0.0012679309584200382
1738773049829179100,6.39117919921875,0.002445314545184374,0.0021204089280217886,0.001996838254854083
1738773049839170000,6.401170166015625,0.001811482128687203,0.00515880947932601,-0.0002181128947995603
1738773049849161200,6.4111611328125,0.0017451694002375007,0.0036522590089589357,0.0007001450285315514
1738773049859152100,6.421152099609375,0.00152306177187711,0.004321777727454901,0.00005352953667170368
1738773049869143000,6.43114306640625,0.0013233247445896268,0.0033308155834674835,0.0013198626693338156
1738773049879135200,6.44113525390625,0.0013201289111748338,0.002627208363264799,0.0007997472421266139
1738773049889126100,6.451126220703125,0.0011952266795560718,0.00424241553992033,0.0011518171522766352
1738773049899117000,6.461116943359375,0.0019209380261600018,0.004003796260803938,0.0008138620178215206
1738773049909108200,6.471108154296875,0.0010807107901200652,0.0025750105269253254,0.002172074280679226
1738773049919099100,6.48109912109375,0.0013598100049421191,0.002623746171593666,0.001377919572405517
1738773049929090000,6.491090087890625,-0.00005273058923194185,0.004003263544291258,-0.001151018193922937
1738773049939081200,6.501081298828125,0.0015307849971577525,0.0034961977507919073,-0.0009837717516347766
1738773049949072100,6.511072021484375,0.0011608719360083342,0.0031121699139475822,0.0005432848702184856
1738773049959064000,6.52106396484375,0.0014394385507330298,0.003941211849451065,-0.00012969593808520585
1738773049969055200,6.53105517578125,0.0034498588647693396,0.003465571440756321,0.0003206445835530758
1738773049979046100,6.541046142578125,0.0019033611752092838,0.0035412053111940622,0.00017363809456583112
1738773049989037000,6.551037109375,0.00044368262751959264,0.0035063179675489664,0.001100950757972896
1738773049999028000,6.561028076171875,0.0016972325975075364,0.003656253917142749,0.0002937466779258102
1738773050009019100,6.57101904296875,-0.00047058056225068867,0.0023249397054314613,0.0010373012628406286
1738773050019010000,6.581010009765625,0.001329982653260231,0.00373028963804245,-0.001219727797433734
1738773050029001000,6.5910009765625,0.0015704660909250379,0.004004328977316618,0.0014652712270617485
1738773050038993200,6.6009931640625,0.001461010193452239,0.005120726302266121,-0.000570981705095619
1738773050048984000,6.610984130859375,0.000059921123465755954,0.003945739474147558,0.0007898935582488775
1738773050058975000,6.62097509765625,0.0024828650057315826,0.004742823541164398,0.0008072041091509163
1738773050068966100,6.630966064453125,0.001731587341055274,0.00410473020747304,-0.0008679241873323917
1738773050078957000,6.64095703125,0.0015941682504490018,0.0041457428596913815,-0.0007909588166512549
1738773050088948000,6.650947998046875,0.0010106696281582117,0.0037476003635674715,-0.0008708536624908447
1738773050098939100,6.660939208984375,0.0006713828770443797,0.004896221682429314,-0.00031132352887652814
1738773050108930000,6.670929931640625,0.002154231071472168,0.004670385736972094,0.0004295678809285164
1738773050118922000,6.680921875,0.0017259946325793862,0.003019758267328143,0.0008543420699425042
1738773050128913200,6.6909130859375,0.0011680624447762966,0.004229366313666105,0.000035686356568476185
1738773050138904000,6.700904052734375,0.00001917476038215682,0.004052798729389906,0.0017587515758350492
1738773050148895000,6.71089501953125,-0.00019334549142513424,0.004467452876269817,-0.0002956108655780554
1738773050158886100,6.72088623046875,0.0005382248782552779,0.0035183019936084747,-0.0002580603177193552
1738773050168877000,6.730876953125,0.0019283948931843042,0.004478638060390949,0.000672448193654418
1738773050178868000,6.740867919921875,0.0011291803093627095,0.003644003299996257,-0.0013707289472222328
1738773050188859000,6.75085888671875,0.0017118799732998013,0.002656236756592989,0.0003051982494071126
1738773050198851000,6.76085107421875,0.0004828310920856893,0.002782204421237111,0.001365668955259025
1738773050208842000,6.770842041015625,0.0013941648649051785,0.0046786414459347725,-0.00011158645065734163
1738773050218833000,6.7808330078125,0.0014751249691471457,0.0035180358681827784,0.0022509037517011166
1738773050228824300,6.79082421875,0.0016756609547883272,0.004050135146826506,0.0003398193512111902
1738773050238815200,6.800815185546875,0.0015656723408028483,0.004578240215778351,0.00008202536264434457
1738773050248806100,6.81080615234375,0.004231496714055538,0.004274639766663313,0.0009584716754034162
1738773050258797300,6.82079736328125,0.0003888215287588537,0.0032831449061632156,0.001002413802780211
1738773050268788200,6.830788330078125,0.0016652746126055717,0.003287672298029065,0.0010756507981568575
1738773050278780200,6.8407802734375,0.0016450346447527409,0.004888498689979315,0.002873817225918174
1738773050288771300,6.850771240234375,0.0013065468519926071,0.004523645620793104,-0.00014620754518546164
1738773050298762200,6.86076220703125,0.0014801849611103535,0.003043460426852107,0.0002133192028850317
1738773050308753200,6.870753173828125,0.001568069215863943,0.0038013961166143417,0.00023089606838766485
1738773050318744000,6.880744140625,0.0025041704066097736,0.0054480284452438354,0.0006759102689102292
1738773050328735200,6.8907353515625,0.0018487664638087153,0.003357979701831937,0.0005488775204867125
1738773050338726400,6.900726318359375,0.001910019083879888,0.004316717851907015,-0.0003001382574439049
1738773050348717300,6.91071728515625,0.0008809737046249211,0.004282096866518259,-0.00034887410583905876
1738773050358709200,6.920709228515625,0.0016144082183018327,0.002171275205910206,0.0005049353349022567
1738773050368700200,6.9307001953125,0.0010804444318637252,0.002883404493331909,0.0002687129599507898
1738773050378691000,6.940691162109375,-0.000050333743274677545,0.002314553363248706,-0.00015686018741689622
1738773050388682200,6.95068212890625,0.0011504855938255787,0.003562244353815913,-0.00035712990211322904
1738773050398673400,6.96067333984375,0.002031192881986499,0.004308994393795729,-0.0003028014034498483
1738773050408664300,6.970664306640625,0.0004868258547503501,0.0038120488170534372,-0.000472977408207953
1738773050418655500,6.980655517578125,0.00162399560213089,0.004372644238173962,0.00041012681322172284
1738773050428646400,6.990646484375,0.00221974472515285,0.004024835303425789,0.0008223841432482004
1738773050438638300,7.000638427734375,0.0017888452857732773,0.003576625371351838,0.00041039311327040195
1738773050448629500,7.01062939453125,0.0008434231276623905,0.003340402850881219,0.00038056570338085294
1738773050458620400,7.020620361328125,0.0027153589762747288,0.0031073763966560364,0.0013459615875035524
1738773050468611300,7.030611328125,0.002543851500377059,0.002752110594883561,-0.000520647969096899
1738773050478602500,7.0406025390625,0.0029198897536844015,0.0059748017229139805,0.0009203884401358664
1738773050488593400,7.050593505859375,0.0009629990672692657,0.005246161017566919,-0.000022636868379777297
1738773050498584300,7.060584228515625,0.0003779025573749095,0.003995540551841259,-0.0009571401169523597
1738773050508575200,7.0705751953125,0.002083124592900276,0.004613393917679787,0.000060453756304923445
1738773050518567400,7.0805673828125,0.0011725898366421461,0.004253867082297802,-0.0008040083339437842
1738773050528558300,7.090558349609375,0.002883670851588249,0.0030328077264130116,-0.0006346312584355474
1738773050538549200,7.10054931640625,0.0029470541048794985,0.005101284943521023,0.00026604978484101593
1738773050548540400,7.11054052734375,0.0017422399250790477,0.004117513541132212,-0.0001877528557088226
1738773050558531300,7.12053125,0.000570981705095619,0.0034437335561960936,0.0009598032338544726
1738773050568522200,7.130522216796875,0.0017473000334575772,0.0034527883399277925,0.000005858954409632133
1738773050578513400,7.140513427734375,0.00010892329009948298,0.004444282967597246,0.0009448895580135286
1738773050588504300,7.15050439453125,0.0024074974935501814,0.004337756894528866,0.0011108045000582933
1738773050598496300,7.160496337890625,0.0002822950773406774,0.00324799120426178,0.0015986956423148513
1738773050608487400,7.1704873046875,-0.0004370247188489884,0.0029830066487193108,0.0010151970200240612
1738773050618478300,7.180478271484375,-0.0005914880894124508,0.00367116741836071,0.00014194648247212172
1738773050628469200,7.19046923828125,0.0023992417845875025,0.0035475967451930046,0.0012665993999689817
1738773050638460400,7.20046044921875,-0.0006487460341304541,0.002406432293355465,-0.0004114583716727793
1738773050648451300,7.210451416015625,0.0010367685463279486,0.003960919566452503,-0.0014586133183911443
1738773050658442200,7.220442138671875,0.0011824434623122215,0.00392842898145318,0.0009012137306854129
1738773050668433200,7.23043310546875,0.0016596820205450058,0.003525758860632777,-0.0005779059720225632
1738773050678425300,7.24042529296875,0.000597879639826715,0.0037705034483224154,0.001190433045849204
1738773050688416300,7.250416259765625,0.00014753911818843335,0.0026615632232278585,-0.0005334311863407493
1738773050698407200,7.2604072265625,0.0016192019684240222,0.003579821204766631,0.0016157397767528892
1738773050708398300,7.2703984375,0.0008309062686748803,0.004727110732346773,-0.0006996124284341931
1738773050718389200,7.28038916015625,-0.0007214503129944205,0.002111886627972126,0.0006348976166918874
1738773050728380200,7.290380126953125,0.0019355855183675885,0.0037553233560174704,0.0006016080733388662
1738773050738371300,7.300371337890625,0.0012341088149696589,0.003850131994113326,0.0002258360618725419
1738773050748362200,7.3103623046875,0.0019257317762821913,0.0024618261959403753,0.0011728560784831643
1738773050758354200,7.320354248046875,0.0012982910266146064,0.005086637567728758,-0.0007443535141646862
1738773050768345300,7.330345458984375,0.0007472829893231392,0.0026370619889348745,-0.0008535431115888059
1738773050778336300,7.340336181640625,0.0016993631143122911,0.004643221385776997,0.0007595335482619703
1738773050788327200,7.3503271484375,0.003320429241284728,0.004674380179494619,0.0009353021741844714
1738773050798318300,7.360318359375,-0.0001448759576305747,0.0032650355715304613,-0.0005091963685117662
1738773050808309200,7.370309326171875,0.0013456953456625342,0.004433896858245134,-0.00018029600323643535
1738773050818300200,7.380300048828125,0.0017768610268831253,0.004427238833159208,-0.0009542105835862458
1738773050828291000,7.390291015625,0.0025931198615580797,0.0032107068691402674,0.00012144014181103557
1738773050838283300,7.400283203125,0.0012002866715192795,0.0032141690608114004,0.00013448962999973446
1738773050848274200,7.410274169921875,0.001469532260671258,0.0044054011814296246,-0.0004519384237937629
1738773050858265300,7.420265380859375,0.0009888317435979843,0.002889796160161495,-0.0009896307019516826
1738773050868256300,7.43025634765625,-0.0000476705827168189,0.002531867241486907,0.0002724413643591106
1738773050878247200,7.4402470703125,0.0012932310346513987,0.004778776317834854,0.0005691175465472043
1738773050888238000,7.450238037109375,0.0021973741240799427,0.004157727118581533,0.0012748552253469825
1738773050898229200,7.460229248046875,0.00148151651956141,0.0034194989129900932,-0.000437291048001498
1738773050908220400,7.470220458984375,-0.00010998855577781796,0.004322044085711241,0.0004468784318305552
1738773050918212000,7.480212158203125,0.00003968110104324296,0.00267754215747118,0.000013848437447450124
1738773050928203300,7.490203369140625,0.001990712946280837,0.004547880031168461,0.0012447615154087543
1738773050938194200,7.500194091796875,0.001734516816213727,0.004839762579649687,0.0010287790792062879
1738773050948185000,7.51018505859375,-0.00030360036180354655,0.004984105937182903,0.0008309062686748803
1738773050958176300,7.52017626953125,0.0016261261189356446,0.0033483924344182014,0.0002085255109705031
1738773050968167400,7.53016748046875,0.0006245112745091319,0.003233610186725855,-0.00027377295191399753
1738773050978158300,7.540158447265625,0.0005909554311074317,0.004595817066729069,0.001228516222909093
1738773050988149500,7.5501494140625,0.0010498181218281388,0.0034463966730982065,0.00014913702034391463
1738773050998141200,7.56014111328125,0.0010817759903147817,0.004066380672156811,-0.0004207794554531574
1738773051008132000,7.570132080078125,0.0010780475568026304,0.003424825146794319,0.0007241134881041944
1738773051018123300,7.580123291015625,0.000049801110435510054,0.003993143793195486,0.0014514228096231818
1738773051028114400,7.590114501953125,0.0002545981842558831,0.004018709994852543,-0.0001382180635118857
1738773051038105300,7.600105224609375,0.00412390474230051,0.005388640332967043,-0.00022157499915920198
1738773051048096300,7.61009619140625,0.0007360977469943464,0.003096990054473281,0.0008045409340411425
1738773051058087400,7.62008740234375,0.0004215783847030252,0.002573146251961589,0.000176301269675605
1738773051068078300,7.630078369140625,0.002058357233181596,0.004824582487344742,-0.0005842975224368274
1738773051078070500,7.640070556640625,0.002469282830134034,0.004405933897942305,-0.0010077401529997587
1738773051088061400,7.6500615234375,0.0006056028068996966,0.0046488139778375626,-0.0003616572648752481
1738773051098052400,7.66005224609375,0.00130920996889472,0.006189452484250069,0.0005017395596951246
1738773051108043300,7.670043212890625,0.0014514228096231818,0.0034471957478672266,0.001219727797433734
1738773051118034400,7.680034423828125,-0.0007214503129944205,0.00398568669334054,0.0011339739430695772
1738773051128025300,7.690025390625,0.001204547705128789,0.004565456882119179,-0.0009515474666841328
1738773051138016300,7.700016357421875,0.0023755396250635386,0.003852528752759099,0.00008388957212446257
1738773051148007400,7.71000732421875,0.0005904228310100734,0.004044010303914547,0.0015038870042189956
1738773051157999400,7.719999267578125,0.0005427522119134665,0.0036882117856293917,0.0004695153038483113
1738773051167990300,7.729990234375,0.0016977651976048946,0.004223507363349199,-0.00130894361063838
1738773051177981400,7.7399814453125,0.0006828344776295125,0.004503937903791666,-0.00013262542779557407
1738773051187972400,7.749972412109375,0.0006231797160580754,0.004494084510952234,-0.00017070861940737814
1738773051197963300,7.75996337890625,0.001353152096271515,0.0032730249222368,-0.001169127761386335
1738773051207954400,7.769954345703125,0.0017089504981413484,0.002892725635319948,0.0006452839006669819
1738773051217945300,7.7799453125,0.0010455570882186294,0.004457865376025438,-0.0005656554130837321
1738773051227938000,7.78993798828125,0.0010756507981568575,0.0029294772539287806,0.0008016114588826895
1738773051237929700,7.7999296875,0.00166607357095927,0.0028514466248452663,0.00028069718973711133
1738773051247921000,7.8099208984375,0.0019451729021966457,0.004299407359212637,-0.0000798948312876746
1738773051257911800,7.819911865234375,0.00023675501870457083,0.0029787456151098013,-0.00013688647595699877
1738773051267903000,7.829903076171875,0.003224555402994156,0.0036184368655085564,0.000675111310556531
1738773051277894100,7.83989404296875,0.002157160546630621,0.003573163179680705,-0.0008777778712101281
1738773051287885000,7.849885009765625,0.002083390951156616,0.0034344124142080545,0.001356614287942648
1738773051297876000,7.8598759765625,0.002116147894412279,0.003061569994315505,0.0014809839194640517
1738773051307867000,7.869866943359375,0.0013680658303201199,0.0026471822056919336,-0.000056459015468135476
1738773051317858800,7.87985888671875,0.0014149374328553677,0.003369963960722089,-0.0005845638806931674
1738773051327850000,7.88985009765625,0.00373135507106781,0.003918308764696121,0.00032091091270558536
1738773051337841200,7.899841064453125,0.0008617989369668067,0.004211256746202707,-0.000365918327588588
1738773051347832000,7.90983203125,0.0014149374328553677,0.0035414716694504023,0.0012034825049340725
1738773051357823000,7.919822998046875,0.002853044541552663,0.00330205331556499,0.0016636766958981752
1738773051367814000,7.92981396484375,0.0013976269401609898,0.004418450407683849,0.00022423815971706063
1738773051377805000,7.93980517578125,0.0014743260107934475,0.003469299990683794,0.0003046656202059239
1738773051387796000,7.9497958984375,0.0014674017438665032,0.003897269954904914,0.0012658004416152835
1738773051397788000,7.959787841796875,0.0001994707708945498,0.0039007319137454033,0.00002103897168126423
1738773051407779000,7.969779052734375,0.0004889564006589353,0.0032956618815660477,0.0009893643436953425
1738773051417770000,7.97977001953125,0.00180908537004143,0.004303135443478823,0.0004924184759147465
1738773051427761000,7.989760986328125,0.0030951257795095444,0.00270683690905571,0.00010066748654935509
1738773051437752000,7.999751953125,0.0006612628931179643,0.00561128044500947,0.00036218989407643676
1738773051447743000,8.009742919921875,0.00108257494866848,0.003584881080314517,0.00138058268930763
1738773051457734000,8.01973388671875,0.0004647216119337827,0.005370264407247305,0.0019065570086240768
1738773051467724800,8.029724853515624,0.001116130850277841,0.003799531841650605,0.0015773903578519821
1738773051477717000,8.039717041015624,0.002409361768513918,0.0035055188927799463,-0.0005725796218030155
1738773051487708000,8.0497080078125,0.001505751279182732,0.004878112114965916,0.0008591357618570328
1738773051497699000,8.059698974609375,0.0003382214636076242,0.0036815537605434656,0.0009683253592811525
1738773051507690000,8.06968994140625,-0.00016325176693499088,0.0032711606472730637,-0.00018668759730644524
1738773051517681000,8.079680908203125,0.0014335796004161239,0.0028370653744786978,-0.0010061422362923622
1738773051527671800,8.089671875,0.002972087822854519,0.004421646241098642,0.00006151902198325843
1738773051537663000,8.0996630859375,0.0007238471880555153,0.00415346585214138,-0.00020186760229989886
1738773051547654000,8.10965380859375,0.0004623247659765184,0.004720985423773527,0.00019574233738239855
1738773051557644800,8.119644775390626,0.0018333201296627522,0.004246144089847803,0.0007744472241029143
1738773051567637000,8.129636962890626,0.0017861821688711643,0.00446878420189023,0.0006045375484973192
1738773051577628000,8.1396279296875,0.000028495824153651483,0.003695402294397354,-0.0001901497016660869
1738773051587618800,8.149618896484375,-0.00022743394947610795,0.003288205014541745,-0.0004644552827812731
1738773051597610000,8.15960986328125,-0.0005616606795229018,0.004612861201167107,0.000046339002437889576
1738773051607601000,8.169600830078124,0.0005012069013901055,0.003153715282678604,0.0006362291751429439
1738773051617591800,8.179591796875,0.0014530207263305783,0.00364746549166739,0.0002671150432433933
1738773051627583000,8.1895830078125,0.001999767730012536,0.003944940399378538,-0.000604004948399961
1738773051637574000,8.199573974609375,0.001734516816213727,0.003591006388887763,-0.0005219795857556164
1738773051647565800,8.20956591796875,0.002204564632847905,0.004294613376259804,0.0006490123341791332
1738773051657557000,8.219556884765625,0.002049568807706237,0.0038930089212954044,0.0004854942671954632
1738773051667548000,8.2295478515625,0.0022248048335313797,0.00487198680639267,0.0012865731259807944
1738773051677538800,8.239538818359375,0.0019212043844163418,0.003120425855740905,0.0005864280392415822
1738773051687529700,8.24952978515625,0.0017899106023833156,0.0037816886324435472,0.0006673881434835494
1738773051697521000,8.25952099609375,0.0010133327450603247,0.0057412427850067616,0.00015925703337416053
1738773051707511800,8.26951171875,0.00026045716367661953,0.002412557601928711,0.0009960222523659468
1738773051717502700,8.279502685546875,-0.0007342335302382708,0.0028455876745283604,-0.0009584716754034162
1738773051727495000,8.289494873046875,0.0013132047606632113,0.004520982038229704,-0.0004106594424229115
1738773051737485800,8.29948583984375,0.0010716560063883662,0.0041151163168251514,0.0006687197601422668
1738773051747476700,8.309476806640625,0.0018375811632722616,0.003335342975333333,-0.0000958738019107841
1738773051757468000,8.319468017578124,-0.0005392901366576552,0.002779008587822318,0.000297475082334131
1738773051767458800,8.329458740234376,0.0022514364682137966,0.003367833560332656,0.0010823087068274617
1738773051777449700,8.33944970703125,0.0019355855183675885,0.004211256746202707,0.001076982356607914
1738773051787441000,8.34944091796875,0.0013659353135153651,0.0038330876268446445,-0.00035952674807049334
1738773051797432000,8.35943212890625,0.0018013621447607875,0.0051534827798604965,0.0007784419576637447
1738773051807423700,8.369423828125,0.0001960086519829929,0.004518851637840271,0.0005803027888759971
1738773051817415000,8.379414794921875,0.00010199906682828441,0.0036940707359462976,0.0009970874525606632
1738773051827405800,8.38940576171875,0.00018216021999251097,0.0049734534695744514,0.00098217383492738
1738773051837396700,8.399396728515624,0.0005723133217543364,0.003909520339220762,-0.00027563716867007315
1738773051847388000,8.409387939453126,0.0017070862231776118,0.004631503485143185,-0.000568052229937166
1738773051857379000,8.419379150390625,0.0002926813904196024,0.003698331769555807,-0.0012692625168710947
1738773051867370000,8.429369873046875,-0.0005147890187799931,0.004540956113487482,-0.001103880233131349
1738773051877361000,8.43936083984375,0.0013403689954429865,0.004453071393072605,0.0005840312223881483
1738773051887352800,8.449352783203125,0.0021917815320193768,0.0035486621782183647,0.00007882956560933962
1738773051897344000,8.459343994140625,0.001290834159590304,0.004254399798810482,0.0001424791116733104
1738773051907335000,8.4693349609375,0.002547047333791852,0.0035920715890824795,0.0008777778712101281
1738773051917326000,8.479326171875,0.0005627259379252791,0.004069576505571604,0.0008024104172363877
1738773051927317000,8.48931689453125,0.0007403587806038558,0.00421391986310482,-0.000215716048842296
1738773051937308000,8.499307861328125,0.0010010822443291545,0.003573429537937045,-0.0006314354832284153
1738773051947299000,8.509299072265625,0.0006929545197635889,0.0035840822383761406,-0.0003051982494071126
1738773051957290000,8.5192900390625,0.00023675501870457083,0.003808053908869624,0.000901480030734092
1738773051967282000,8.529281982421875,0.0013869742397218943,0.003270095447078347,0.00004314320904086344
1738773051977273000,8.539273193359374,0.0019510318525135517,0.004265851341187954,-0.0001901497016660869
1738773051987264000,8.549263916015626,0.0012974920682609081,0.001942776027135551,0.0010080065112560987
1738773051997255000,8.5592548828125,0.000993891735561192,0.004252269398421049,-0.0006524744676426053
1738773052007246000,8.56924609375,0.00336197461001575,0.004232561681419611,0.0013648699969053268
1738773052017237000,8.579237060546875,0.0031164311803877354,0.0028967203106731176,0.0001699096756055951
1738773052027228000,8.589227783203125,0.0010634001810103655,0.0036312201991677284,0.0015725966077297926
1738773052037218800,8.59921875,0.0012982910266146064,0.004862665664404631,0.0015017564874142408
1738773052047210000,8.6092099609375,0.001487109111621976,0.005131378769874573,0.0014743260107934475
1738773052057202000,8.619201904296874,0.0016450346447527409,0.004524976946413517,0.00033582461765035987
1738773052067193000,8.629193115234376,0.0012751214671880007,0.004655738361179829,-0.0011137339752167463
1738773052077184000,8.63918408203125,-0.0010069411946460605,0.00469435378909111,0.00017789915727917105
1738773052087175000,8.6491748046875,0.0003070624661631882,0.004018976353108883,0.00010359696898376569
1738773052097165800,8.659165771484375,0.0008942894637584686,0.0030573089607059956,0.0004881574132014066
1738773052107157000,8.669156982421875,0.00036245622322894633,0.0031220237724483013,0.0005850964807905257
1738773052117148000,8.67914794921875,0.0018168084789067507,0.005044293589890003,0.000544350128620863
1738773052127138800,8.689138916015626,0.0014439659425988793,0.0036549223586916924,-0.0012602078495547175
1738773052137131000,8.699131103515626,0.0016671388875693083,0.004221642855554819,0.0004913532175123692
1738773052147122000,8.709121826171875,0.0023254721891134977,0.004119910299777985,0.0013379721203818917
1738773052157112800,8.71911279296875,0.0012934972764924169,0.003890611929818988,-0.0006530070677399635
1738773052167104000,8.72910400390625,0.0004828310920856893,0.004465854726731777,0.00031904669594950974
1738773052177095000,8.739094970703125,0.0028493159916251898,0.003724963404238224,-0.0011773834703490138
1738773052187085800,8.7490859375,0.0006303702248260379,0.0034091125708073378,0.0012189288390800357
1738773052197077000,8.759076904296874,0.0010793792316690087,0.004747084807604551,-0.0011297129094600677
1738773052207068000,8.76906787109375,0.001669003046117723,0.0026317357551306486,0.00046685212873853743
1738773052217059800,8.779059814453126,0.0020096213556826115,0.004433364141732454,0.0005909554311074317
1738773052227049000,8.789049072265625,0.003201119601726532,0.0033388049341738224,-0.0010229201288893819
1738773052237039900,8.799039794921875,0.001862614881247282,0.0026647590566426516,-0.00012889699428342283
1738773052247030800,8.80903076171875,0.001680454588495195,0.004508199170231819,0.0013137373607605696
1738773052257022000,8.81902197265625,0.0033688987605273724,0.003624029690399766,0.00046685212873853743
1738773052267012900,8.829012939453126,0.0011707255616784096,0.004897020757198334,0.00018961707246489823
1738773052277003800,8.839003662109375,0.001814677962101996,0.004202468320727348,0.0008183894096873701
1738773052286994700,8.84899462890625,0.0009752495680004358,0.003245328087359667,0.00046152580762282014
1738773052296987000,8.85898681640625,0.00065460498444736,0.004111654590815306,0.0002495381922926754
1738773052306977800,8.868977783203125,0.000901480030734092,0.003594202222302556,-0.000523843802511692
1738773052316968700,8.87896875,0.0008692557457834482,0.0032373385038226843,-0.0003587277897167951
1738773052326959900,8.8889599609375,0.0007608651067130268,0.0044408212415874004,0.0013856426812708378
1738773052336950800,8.89895068359375,0.00044075315236113966,0.003151052165776491,-0.0007832356495782733
1738773052346941700,8.908941650390625,0.0009773800848051906,0.002861832967028022,-0.00020506340661086142
1738773052356932900,8.918932861328125,0.0014066817238926888,0.005702893249690533,0.0005331648280844092
1738773052366923800,8.928923828125,0.0015486282063648105,0.0036884781438857317,-0.0004522047529462725
1738773052376914700,8.938914794921875,0.0004652542411349714,0.0037830201908946037,0.00047058056225068867
1738773052386907000,8.948906982421875,0.0008492820779792964,0.003605387406423688,0.00009241169027518481
1738773052396897800,8.958897705078124,0.0010468886466696858,0.0023422501981258392,-0.0010064085945487022
1738773052406888700,8.968888671875,0.0007470166892744601,0.00407596817240119,0.0021025657188147306
1738773052416879900,8.9788798828125,0.0018485001055523753,0.004326038993895054,0.00046578687033616006
1738773052426870800,8.988870849609375,0.0031529164407402277,0.004445082042366266,0.000021305288100847974
1738773052436861700,8.99886181640625,-0.001026115962304175,0.004441886208951473,0.00003435477628954686
1738773052446852600,9.0088525390625,0.0016205335268750787,0.004180097486823797,0.0015361113473773003
1738773052456843800,9.01884375,0.00185089698061347,0.003183010034263134,0.001585912425071001
1738773052466835700,9.028835693359374,0.0035566515289247036,0.0034493261482566595,-0.0002463423879817128
1738773052476827000,9.038826904296876,0.0014748586108908057,0.004133225884288549,0.0001685781026026234
1738773052486817800,9.04881787109375,0.0012650014832615852,0.003997670952230692,-0.00037523938226513565
1738773052496808700,9.05880859375,-0.00025726135936565697,0.00270736962556839,-0.0010615360224619508
1738773052506799600,9.068799560546875,0.0005805690889246762,0.004058391321450472,0.0013137373607605696
1738773052516790800,9.078790771484375,0.002040780382230878,0.0032732912804931402,0.00004234426160110161
1738773052526781700,9.08878173828125,-0.00033422670094296336,0.004447212442755699,-0.0016684704460203648
1738773052536772600,9.098772705078124,0.0006703176186420023,0.0041489386931061745,0.00016351809608750045
1738773052546764800,9.108764892578124,0.002808569697663188,0.00461712246760726,0.00027856664382852614
1738773052556755700,9.118755615234376,0.0020844561513513327,0.002370745874941349,0.0000673779723001644
1738773052566746600,9.12874658203125,0.002430667169392109,0.005257612559944391,0.0012934972764924169
1738773052576737800,9.13873779296875,0.002954510971903801,0.00526586826890707,0.001657018787227571
1738773052586728700,9.148728759765625,-0.00004314320904086344,0.0020234698895365,-0.00003834952076431364
1738773052596719600,9.1587197265625,0.0004889564006589353,0.0041044638492167,0.00049108691746369
1738773052606710800,9.168710693359374,0.0009504822082817554,0.003334810258820653,0.00019627496658358723
1738773052616702000,9.178701904296876,0.001255680457688868,0.003677559085190296,0.000595216522924602
1738773052626692900,9.18869287109375,0.0008588694618083537,0.003424825146794319,0.0019166769925504923
1738773052636684800,9.198684814453125,0.0020301276817917824,0.0034823494497686625,-0.00018109494703821838
1738773052646675700,9.20867578125,0.0013797837309539318,0.005117796827107668,0.0005094627267681062
1738773052656667000,9.2186669921875,0.0011547466274350882,0.004768123384565115,0.0011054781498387456
1738773052666657800,9.22865771484375,0.0013680658303201199,0.002701510675251484,-0.0002817624481394887
1738773052676649000,9.23864892578125,0.0009635316673666239,0.002482066163793206,0.000731836655177176
1738773052686639900,9.248639892578124,-0.00016538229829166085,0.0030341395176947117,-0.0015345134306699038
1738773052696630800,9.258630859375,0.0025308020412921906,0.004875448998063803,0.0017678063595667481
1738773052706622000,9.2686220703125,0.00020213393145240843,0.002654372714459896,0.0009981527691707015
1738773052716614000,9.27861376953125,0.0011824434623122215,0.00315957423299551,0.0015355786308646202
1738773052726604800,9.288604736328125,0.0007076018955558538,0.004344947170466185,0.0002511360798962414
1738773052736596000,9.298595947265625,0.00180908537004143,0.0038948729634284973,-0.0008420915110036731
1738773052746587000,9.3085869140625,0.0010021475609391928,0.0037140443455427885,0.00032890037982724607
1738773052756577800,9.318577880859374,0.0020325244404375553,0.004382497631013393,-0.000023968450477696024
1738773052766569000,9.32856884765625,0.0015683355741202831,0.004066913388669491,-0.0008831042214296758
1738773052776559900,9.338559814453125,0.0034314829390496016,0.001499625970609486,-0.0012330436147749424
1738773052786550800,9.34855078125,0.00130920996889472,0.004877313040196896,0.00041305628838017583
1738773052796543000,9.35854296875,0.0012668657582253218,0.003465571440756321,-0.0018628811230883002
1738773052806534000,9.368533935546875,0.001335841603577137,0.0029142971616238356,0.0006825681775808334
1738773052816524800,9.37852490234375,0.0014732606941834092,0.0041492050513625145,-0.000036485307646216825
1738773052826515700,9.388515625,0.001047154888510704,0.004620584659278393,-0.000021305288100847974
1738773052836507000,9.3985068359375,0.0009984191274270415,0.0036125779151916504,-0.000907338981050998
1738773052846497800,9.408497802734376,0.002882871776819229,0.004178233444690704,0.0006229133578017354
1738773052856488700,9.41848876953125,0.0016040218761190772,0.0027680895291268826,0.0014319816837087274
1738773052866479900,9.42847998046875,0.0007749798824079335,0.003226952161639929,0.001246892032213509
1738773052876470800,9.438470703125,-0.00023409185814671218,0.003855458227917552,0.0007294398383237422
1738773052886462700,9.448462646484375,0.00145222176797688,0.0023273364640772343,0.0010572749888524413
1738773052896454000,9.458453857421874,0.0025843314360827208,0.0038429414853453636,0.001306280493736267
1738773052906444800,9.46844482421875,-0.0002961435238830745,0.00455666845664382,-0.0002109223569277674
1738773052916435700,9.478435791015626,0.001243962557055056,0.0044022053480148315,0.0002793656021822244
1738773052926427000,9.488427001953125,0.00045833003241568804,0.003920705523341894,0.00020825919636990875
1738773052936417800,9.498417724609375,0.00029108350281603634,0.004523645620793104,0.0007898935582488775
1738773052946408700,9.50840869140625,0.000014114753867033869,0.0033622407354414463,0.0012903015594929457
1738773052956399600,9.518399658203125,0.0020743361674249172,0.004065847955644131,0.00009400958515470847
1738773052966391800,9.528391845703124,0.0019283948931843042,0.0020777983590960503,0.0006340986583381891
1738773052976382700,9.5383828125,0.0030394657514989376,0.0038932752795517445,-0.00010918960470007733
1738773052986374000,9.548373779296876,0.0027630296535789967,0.0035262915771454573,-0.00013768543431069702
1738773052996364800,9.55836474609375,0.0016591493040323257,0.0025811356026679277,0.00021252025908324867
1738773053006355700,9.568355712890625,0.0036732980515807867,0.0039278962649405,0.0012855078093707561
1738773053016346600,9.5783466796875,0.00024208133982028812,0.0025925873778760433,-0.0008855010382831097
1738773053026337800,9.588337890625,0.002831472782418132,0.004833104554563761,0.0008532768115401268
1738773053036328700,9.59832861328125,0.001657551503740251,0.004880775231868029,0.001175519311800599
1738773053046320600,9.608320556640624,0.002281263703480363,0.002573412610217929,0.0012381036067381501
1738773053056311800,9.618311767578126,0.0011896340874955058,0.00452923821285367,-0.00015659387281630188
1738773053066302700,9.628302734375,0.0017363809747621417,0.004038949962705374,0.0003515372518450022
1738773053076293600,9.638293701171875,0.003174754325300455,0.004039482679218054,-0.001460743835195899
1738773053086284800,9.648284912109375,0.0033776871860027313,0.002665291540324688,0.0007185208378359675
1738773053096275700,9.658275634765625,0.0013305152533575892,0.004677576012909412,0.0016908409306779504
1738773053106266600,9.6682666015625,-0.0009888317435979843,0.0019092201255261898,0.0009970874525606632
1738773053116257800,9.6782578125,0.0012863067677244544,0.0031257520895451307,0.0005257080192677677
1738773053126249000,9.6882490234375,0.0009805759182199836,0.0026136261876672506,-0.000036751622246811166
1738773053136240600,9.69824072265625,0.0005486111622303724,0.0041161817498505116,0.0007736482657492161
1738773053146231800,9.708231689453125,0.0014554174849763513,0.004358263220638037,-0.0004207794554531574
1738773053156222700,9.71822265625,0.0008945558220148087,0.0043707797303795815,0.001014131703414023
1738773053166213600,9.728213623046875,0.001151018193922937,0.003522563260048628,-0.0003454120014794171
1738773053176204800,9.738204833984375,0.0013265205780044198,0.0038807583041489124,0.0005225121858529747
1738773053186196000,9.748196044921874,0.0003414172388147563,0.002668753731995821,0.00006524744821945205
1738773053196187000,9.758186767578126,0.0001704423048067838,0.0030037793330848217,0.0011416971683502197
1738773053206177800,9.768177734375,0.0019473034190014005,0.004476507660001516,-0.0005044027348048985
1738773053216169700,9.778169677734375,0.0012916331179440022,0.0038722362369298935,-0.0007667240570299327
1738773053226161000,9.788160888671875,0.0019089538836851716,0.004318848252296448,-0.00020506340661086142
1738773053236151800,9.79815185546875,0.00013502225920092314,0.003352653468027711,-0.00010519486386328936
1738773053246143000,9.80814306640625,0.0029731530230492353,0.0041404166258871555,-0.00065460498444736
1738773053256134100,9.818134033203124,0.0021313277538865805,0.0034176346380263567,-0.0005619269795715809
1738773053266125000,9.828125,0.0003099919413216412,0.0033864756114780903,-0.0012085424968972802
1738773053276116000,9.838115966796876,0.001820536912418902,0.004593420308083296,-0.0015781891997903585
1738773053286107000,9.84810693359375,0.0005704491049982607,0.004483431577682495,-0.0012668657582253218
1738773053296099000,9.85809912109375,0.002129996195435524,0.004890362732112408,0.0007017429452389479
1738773053306090000,9.868090087890625,0.0019174759509041905,0.004996356554329395,0.0000697748182574287
1738773053316081000,9.878080810546875,0.0004673847579397261,0.0033981935121119022,0.0013028184184804559
1738773053326072000,9.888072021484374,0.001654089312069118,0.003072755178436637,0.000046072687837295234
1738773053336063000,9.89806298828125,0.00010253170330543071,0.004559864290058613,0.0009028115891851485
1738773053346054000,9.908053955078126,0.001320927869528532,0.003948136232793331,0.002912432886660099
1738773053356045000,9.918045166015625,0.0004977448261342943,0.002770220162346959,-0.00003488740912871435
1738773053366036000,9.928035888671875,-0.00009560748003423214,0.004314054735004902,-0.00047111319145187736
1738773053376027000,9.93802685546875,0.0006841660942882299,0.0038983351550996304,0.001008539111353457
1738773053386019000,9.94801904296875,0.002089249901473522,0.004536428488790989,0.00018029600323643535
1738773053396010000,9.958010009765625,0.0009110674145631492,0.002659965306520462,0.00045300371129997075
1738773053406001000,9.9680009765625,0.0006442186422646046,0.002981142606586218,0.0005446164286695421
1738773053415992000,9.977991943359376,0.0019659455865621567,0.002683933824300766,0.0010149306617677212
1738773053425983000,9.98798291015625,0.0018399780383333564,0.003519633784890175,0.0000125168571685208
1738773053435974000,9.997973876953125,0.0005587312043644488,0.004233094397932291,-0.0006953513366170228
1738773053445964800,10.00796484375,0.0002258360618725419,0.0040442761965096,0.0016255935188382864
1738773053455956000,10.0179560546875,0.0008860336965881288,0.0022234732750803232,-0.0010072075529024005
1738773053465948000,10.027947998046875,0.00042104575550183654,0.0033931334037333727,0.001910019083879888
1738773053475939000,10.03793896484375,0.00017070861940737814,0.0033185649663209915,-0.0002205097407568246
1738773053485930000,10.047929931640626,0.0008812400046736002,0.003608316881582141,-0.00014674017438665032
1738773053495921000,10.0579208984375,0.0013622068800032139,0.004747084807604551,-0.0009590042755007744
1738773053505911800,10.067911865234375,0.00010386328358436003,0.004039749037474394,0.00010972223390126601
1738773053515903000,10.077903076171875,0.000663393409922719,0.004232029430568218,0.0013203952694311738
1738773053525894000,10.087893798828125,0.0018407768802717328,0.003311374457553029,0.0004868258547503501
1738773053535884800,10.097884765625,0.0014466290595009923,0.0046568033285439014,0.0012250541476532817
1738773053545876000,10.1078759765625,0.002764627570286393,0.003564108395949006,0.0006506102508865297
1738773053555868000,10.117867919921874,0.0010359697043895721,0.0036972665693610907,0.0009600695921108127
1738773053565858800,10.12785888671875,0.0015835155500099063,0.0044046021066606045,-0.0003081277245655656
1738773053575850000,10.13785009765625,0.0005227785441093147,0.002576608443632722,0.001014664419926703
1738773053585841000,10.1478408203125,0.0023180153220891953,0.006486129015684128,-0.0005581985460594296
1738773053595831800,10.157831787109375,0.0008953547803685069,0.0034669029992073774,-0.0009384979493916035
1738773053605822700,10.16782275390625,-0.00012197277828818187,0.0029433255549520254,-0.0012977584265172482
1738773053615814000,10.17781396484375,0.0016831178218126297,0.004701810888946056,-0.00020479709201026708
1738773053625804800,10.1878046875,0.000035686356568476185,0.004280498716980219,0.0013550163712352514
1738773053635797000,10.197796875,0.0001073253879440017,0.0022682142443954945,-0.00020160128769930452
1738773053645788000,10.207787841796875,0.00021438446128740907,0.003319630166515708,0.0017193368403241038
1738773053655778800,10.21777880859375,0.0012996225850656629,0.003073554253205657,0.0009659285424277186
1738773053665769700,10.227769775390625,0.0019081549253314734,0.0037736992817372084,-0.00013981595111545175
1738773053675761000,10.237760986328125,0.00029587719473056495,0.004422445315867662,-0.00011451592581579462
1738773053685751800,10.247751708984374,0.002427737694233656,0.003861050819978118,-0.0001699096756055951
1738773053695742700,10.25774267578125,0.0017947042360901833,0.004083691164851189,0.0007723167072981596
1738773053705734000,10.26773388671875,0.0008096009842120111,0.003507383167743683,-0.0007771103992126882
1738773053715725800,10.277725830078126,0.00010626012954162434,0.005771336145699024,0.00025726135936565697
1738773053725716700,10.287716796875,0.0013670006301254034,0.0022778017446398735,-0.000761664065066725
1738773053735708000,10.2977080078125,0.0012447615154087543,0.0025102957151830196,0.0011920308461412787
1738773053745698800,10.30769873046875,0.0006940197781659663,0.004608067683875561,0.0007757788407616317
1738773053755690000,10.31768994140625,-0.00024767397553659976,0.0031672974582761526,-0.00048709215479902923
1738773053765681200,10.32768115234375,0.0014034858904778957,0.004037085920572281,0.00036698358599096537
1738773053775672000,10.337672119140626,0.00045806370326317847,0.005724198184907436,0.00047164582065306604
1738773053785663000,10.3476630859375,-0.001823466387577355,0.0035987296141684055,-0.00014567491598427296
1738773053795654000,10.35765380859375,0.0015970977256074548,0.0014452975010499358,0.0015869776252657175
1738773053805645800,10.367645751953125,0.001344363670796156,0.003032008884474635,0.0018381137633696198
1738773053815637000,10.377636962890625,0.0017275925492867827,0.0037233654875308275,-0.000978711643256247
1738773053825628000,10.3876279296875,0.0015022892039269209,0.0035742283798754215,0.0009318400407209992
1738773053835619000,10.397619140625,0.0010431602131575346,0.004517253953963518,0.00014540860138367862
1738773053845610000,10.40760986328125,0.0003552656853571534,0.004689293913543224,0.0012383698485791683
1738773053855601000,10.417600830078126,0.0020839234348386526,0.004432831425219774,0.00023329291434492916
1738773053865592000,10.427592041015625,0.0026136261876672506,0.003367300843819976,0.0004069310089107603
1738773053875583000,10.4375830078125,0.0010783139150589705,0.004030161537230015,0.00140987744089216
1738773053885575000,10.447574951171875,0.0009001484140753746,0.004817392211407423,-0.00036192359402775764
1738773053895566000,10.457566162109375,0.0008905610884539783,0.002990197157487273,-0.0002846919232979417
1738773053905557000,10.467556884765624,0.0015371765475720167,0.0029403960797935724,0.0013129384024068713
1738773053915548000,10.4775478515625,0.001156877144239843,0.004745753016322851,-0.0004748416249640286
1738773053925539000,10.4875390625,0.0013427657540887594,0.004148405976593494,0.0001656486128922552
1738773053935530000,10.497530029296875,0.0017185378819704056,0.0034083134960383177,-0.000535561703145504
1738773053945521000,10.50752099609375,0.001817607437260449,0.0025278725661337376,0.0009294432238675654
1738773053955511800,10.51751171875,0.0011797803454101086,0.003314836649224162,-0.0003051982494071126
1738773053965504000,10.52750390625,0.0017417073249816895,0.0032527849543839693,0.0005925533478148282
1738773053975495000,10.537494873046874,0.001680720946751535,0.0054759918712079525,0.00042823629337362945
1738773053985486000,10.547486083984374,0.0019680759869515896,0.0035332157276570797,0.0006077333819121122
1738773053995477000,10.55747705078125,0.0029491845052689314,0.004487426485866308,0.000857005245052278
1738773054005468000,10.567468017578125,0.0012266519479453564,0.0037707698065787554,0.0006671218434348702
1738773054015458800,10.577458740234375,0.002016811864450574,0.003941744565963745,-0.000264718197286129
1738773054025450000,10.587449951171875,0.0013973605819046497,0.0035582494456321,-0.000571248063351959
1738773054035441000,10.59744091796875,0.0016953683225437999,0.003614708548411727,-0.0013693973887711763
1738773054045431800,10.607431884765624,0.0016205335268750787,0.004516721237450838,-0.0005083974683657289
1738773054055424000,10.617424072265624,0.0009339706157334149,0.003876230912283063,0.0008311725687235594
1738773054065415000,10.627414794921876,0.0015552861150354147,0.0033891387283802032,0.0003755057114176452
1738773054075405800,10.63740576171875,0.002260757377371192,0.004576908424496651,0.0009547432418912649
1738773054085397000,10.64739697265625,0.00006391586794052273,0.003718571737408638,0.0005462143453769386
1738773054095388000,10.657387939453125,0.0008407599525526166,0.001999501371756196,0.0006356965750455856
1738773054105378800,10.66737890625,-0.0009771138429641724,0.0044072652235627174,0.001508680754341185
1738773054115370000,10.677369873046874,0.0013422331539914012,0.003867975203320384,0.0006420881254598498
1738773054125361000,10.68736083984375,0.0013582120882347226,0.0031406658235937357,0.0003275688213761896
1738773054135352800,10.697352783203126,0.00016298545233439654,0.0037414750549942255,0.0019150790758430958
1738773054145344000,10.707343994140626,0.00007856325100874528,0.003721501212567091,0.002359827049076557
1738773054155335000,10.7173349609375,0.0018381137633696198,0.004275705199688673,0.0004194478678982705
1738773054165325800,10.727325927734375,0.0010812433902174234,0.00418382603675127,-0.0010215885704383254
1738773054175316700,10.737316650390625,0.0009747169679030776,0.005437109619379044,0.0012460930738598108
1738773054185308000,10.747307861328125,0.0021843246649950743,0.003382214577868581,-0.0002567287301644683
1738773054195298800,10.757298828125,0.001139300293289125,0.004522313829511404,-0.00012996226723771542
1738773054205289700,10.767289794921876,0.0019225359428673983,0.004838963504880667,-0.0008705873624421656
1738773054215282000,10.777281982421876,-0.00008149272616719827,0.0043840957805514336,-0.0010290454374626279
1738773054225273000,10.787273193359376,0.0006700513185933232,0.004113518632948399,0.0017052220646291971
1738773054235264300,10.79726416015625,0.001517469179816544,0.0041310954838991165,-0.0004753742541652173
1738773054245255200,10.807255126953125,0.0013821806060150266,0.005342300981283188,0.0009323726990260184
1738773054255246000,10.81724609375,0.0018796591321006417,0.003643736941739917,0.0006380933918990195
1738773054265237000,10.827237060546874,0.002805373864248395,0.0033960631117224693,0.0002801645314320922
1738773054275228200,10.837228271484374,-0.00017550231132190675,0.004460528492927551,-0.0006351639167405665
1738773054285219000,10.847218994140626,0.0018796591321006417,0.004206196404993534,-0.00021944446780253202
1738773054295210200,10.857210205078125,0.0002948119363281876,0.004764928016811609,0.0018836538074538112
1738773054305202200,10.8672021484375,0.0016104135429486632,0.004563060123473406,0.0000577905957470648
1738773054315193000,10.877193115234375,0.0012471582740545273,0.003942543640732765,0.00010466222738614306
1738773054325184000,10.88718408203125,0.0007091998122632504,0.003832821501418948,0.001793905277736485
1738773054335175200,10.897175048828124,0.0007121292874217033,0.00532685499638319,0.001059139147400856
1738773054345166000,10.907166015625,0.0030479878187179565,0.003166232258081436,0.00011984224693151191
1738773054355157200,10.9171572265625,0.0018730012234300375,0.004561994690448046,0.0013526194961741567
1738773054365148400,10.9271484375,0.0009235842735506594,0.003224022686481476,0.0005060005933046341
1738773054375139300,10.937139404296875,0.0028514466248452663,0.0036421390250325203,0.0013800500892102718
1738773054385131000,10.947131103515625,0.001591771375387907,0.0037561224307864904,0.00010093380114994943
1738773054395122200,10.9571220703125,0.001365668955259025,0.00449887802824378,-0.0007635282818228006
1738773054405113300,10.96711328125,0.0014085458824411035,0.0028160265646874905,0.0011121360585093498
1738773054415104300,10.977104248046874,0.001121989800594747,0.004018709994852543,0.00046818371629342437
1738773054425095400,10.987095458984374,0.0011877698125317693,0.0034788872580975294,-0.00043995422311127186
1738773054435086300,10.99708642578125,-0.0006170544074848294,0.0036842171102762222,-0.0003760383406188339
1738773054445077200,11.0070771484375,0.0006194512825459242,0.003465571440756321,0.0004695153038483113
1738773054455068200,11.017068115234375,0.0020216056145727634,0.003933488857001066,0.0006974819116294384
1738773054465059300,11.027059326171875,0.0008420915110036731,0.0019947076216340065,0.0002884203568100929
1738773054475051300,11.03705126953125,0.0017563547007739544,0.004030427895486355,0.0008354336023330688
1738773054485042200,11.047042236328124,-0.00021997711155563593,0.0034061830956488848,0.0012575446162372828
1738773054495033300,11.057033447265624,0.0009771138429641724,0.004199272487312555,0.0010133327450603247
1738773054505024300,11.067024169921876,0.001606418751180172,0.0032799490727484226,-0.0007305050967261195
1738773054515015200,11.07701513671875,0.002377403900027275,0.0037055222783237696,0.000358461489668116
1738773054525006300,11.08700634765625,0.00063383235828951,0.0029518476221710443,-0.0008000136003829539
1738773054534997200,11.096997314453125,0.0016969662392511964,0.003433080855756998,0.0008825715631246567
1738773054544988200,11.10698828125,0.00039068571641109884,0.0029981867410242558,0.0005158542771823704
1738773054554980400,11.11698046875,0.0007470166892744601,0.002915096003562212,0.00043542683124542236
1738773054564971300,11.12697119140625,0.0005334311863407493,0.0029318740125745535,-0.001181378262117505
1738773054574962200,11.136962158203126,0.002258094260469079,0.004068511072546244,0.000925448490306735
1738773054584953300,11.146953369140626,0.0013720606220886111,0.004315386060625315,0.001621066126972437
1738773054594944300,11.1569443359375,0.002159024588763714,0.005269863177090883,0.0010402307379990816
1738773054604935200,11.16693505859375,0.0003944141499232501,0.0028091021813452244,0.00011158645065734163
1738773054614926000,11.176926025390625,0.002237055217847228,0.0024823325220495462,-0.000303334032651037
1738773054624917200,11.186917236328124,0.0026762105990201235,0.003973702434450388,0.0011646003695204854
1738773054634909200,11.1969091796875,0.0012889700010418892,0.0035185683518648148,0.0006793724023737013
1738773054644900400,11.206900390625,0.0015326491557061672,0.0044440170750021935,0.0006905576447024941
1738773054654891300,11.216891357421876,0.0008215851848945022,0.004864796530455351,-0.0002892192860599607
1738773054664882200,11.226882080078125,0.0015132081462070346,0.0034796863328665495,-0.00024208133982028812
1738773054674873000,11.236873046875,-0.000050600061513250694,0.004027232062071562,-0.0007382282637991011
1738773054684864300,11.2468642578125,0.0005640574963763356,0.004334028344601393,0.00013555490295402706
1738773054694855200,11.256855224609374,0.0020530307665467262,0.0023441144730895758,0.00138031633105129
1738773054704846000,11.26684619140625,0.0032354744616895914,0.004210724029690027,0.0001411475386703387
1738773054714837200,11.276837158203126,0.0011773834703490138,0.0052320463582873344,-0.0012740562669932842
1738773054724829200,11.2868291015625,0.0033047166652977467,0.003611512714996934,-0.000036751622246811166
1738773054734820000,11.296820068359375,0.0010247844038531184,0.003864246653392911,-0.0004215783847030252
1738773054744811300,11.306811279296875,0.0018152105621993542,0.0025893915444612503,0.000666322885081172
1738773054754802200,11.31680224609375,0.0009824400767683983,0.003962783608585596,0.0004934837343171239
1738773054764793000,11.32679296875,0.001067927572876215,0.004314054735004902,-0.0005984122981317341
1738773054774784300,11.3367841796875,0.0031254857312887907,0.003686880227178335,-0.0006165218073874712
1738773054784775200,11.346775146484376,0.002222940558567643,0.002924949862062931,0.0003259709046687931
1738773054794766000,11.35676611328125,0.0025361282750964165,0.0034972631838172674,-0.0013097425689920783
1738773054804758300,11.36675830078125,0.0020873856265097857,0.0031856733839958906,0.002457032445818186
1738773054814749200,11.376749267578125,0.0007443535141646862,0.001898034941405058,0.0007808388327248394
1738773054824740000,11.386739990234375,0.0007592672482132912,0.003906857222318649,0.0009345032158307731
1738773054834731000,11.39673095703125,0.00185063062235713,0.004291950259357691,-0.000018109494703821838
1738773054844722200,11.40672216796875,0.0028876655269414186,0.003771568648517132,0.00042557314736768603
1738773054854713000,11.416713134765626,0.0010665960144251585,0.004804076161235571,-0.0010327738709747791
1738773054864704300,11.426704345703126,0.0019148128340020776,0.003369697602465749,-0.0004569984448608011
1738773054874695400,11.4366953125,0.0014775217277929187,0.004637895151972771,0.0008191883680410683
1738773054884686300,11.446686279296875,0.0014335796004161239,0.005251220893114805,0.0001637844106880948
1738773054894678000,11.456677978515625,0.0015630092239007354,0.00361790438182652,0.0006487460341304541
1738773054904669200,11.466669189453125,0.002930276095867157,0.003224555402994156,0.0009110674145631492
1738773054914660000,11.47666015625,0.002251702593639493,0.005608883686363697,0.00012676646292675287
1738773054924651300,11.4866513671875,0.0016919062472879887,0.0035004590172320604,0.00014434332842938602
1738773054934642400,11.496642333984376,0.002638659905642271,0.003010969841852784,-0.0013140037190169096
1738773054944633300,11.50663330078125,0.0016982977977022529,0.004147606901824474,0.0003001382574439049
1738773054954624300,11.516624267578125,0.0015835155500099063,0.0033787523861974478,-0.0019206717843189836
1738773054964615200,11.526615234375,0.0005094627267681062,0.004495149478316307,0.0003278351214248687
1738773054974607000,11.536607177734375,-0.0004990763845853508,0.005044825840741396,-0.00031798143754713237
1738773054984598300,11.546598388671875,0.0013193299528211355,0.003031742526218295,0.0000900148443179205
1738773054994589200,11.556589111328124,0.0017699368763715029,0.003581685246899724,-0.00016005597717594355
1738773055004580400,11.566580322265626,0.002302835462614894,0.004255465231835842,0.0013116068439558148
1738773055014571300,11.5765712890625,-0.0003230414295103401,0.0023241406306624413,-0.0008847020799294114
1738773055024562200,11.586562255859375,0.0019331886433064938,0.0049010151997208595,0.0011166634503751993
1738773055034553300,11.59655322265625,-0.00047936898772604764,0.003802461316809058,0.00039547940832562745
1738773055044544300,11.606544189453125,0.0020101540721952915,0.0035776905715465546,0.001112935016863048
1738773055054535200,11.61653515625,0.0008202536264434457,0.00296303303912282,-0.0014567491598427296
1738773055064527400,11.62652734375,0.002426938619464636,0.004297276493161917,0.00023222764139063656
1738773055074518300,11.636518310546874,0.0011209244839847088,0.003480218816548586,0.0008988168556243181
1738773055084509200,11.64650927734375,-0.00011238539445912465,0.003665574826300144,0.00037470675306394696
1738773055094500400,11.656500244140625,0.00004900216299574822,0.0030101709999144077,0.0004058657505083829
1738773055104491300,11.6664912109375,0.002254898427054286,0.004157727118581533,0.001487641828134656
