time,seconds_elapsed,z,y,x
1738773043466077000,0.028076904296875,-0.00041784922359511256,-0.000522195128723979,-0.0008282444905489683
1738773043476068600,0.038068603515625,0.0021158824674785137,-0.001028195722028613,-0.0007624644204042852
1738773043486060000,0.04806005859375,-0.00042247219244018197,0.00008807051926851273,-0.0003699827357195318
1738773043496051000,0.058051025390625,0.0005434562917798758,-0.00005014752969145775,0.00045559724094346166
1738773043506041900,0.068041748046875,0.0014267023652791977,-0.00040745525620877743,-0.0011857426725327969
1738773043516033000,0.078032958984375,0.0009374797809869051,-0.0010277056135237217,-0.0022430175449699163
1738773043526024000,0.08802392578125,-0.00012586498633027077,-0.000904567539691925,0.000807854114100337
1738773043536014800,0.098014892578125,0.00026695127598941326,-0.0009423843584954739,-0.0007706014439463615
1738773043546007000,0.108007080078125,-0.00030298775527626276,0.0011607573833316565,0.0002477533998899162
1738773043555998000,0.117998046875,0.0012528308434411883,-0.0006669699214398861,-0.000006312140612863004
1738773043565988900,0.12798876953125,-0.0005133325466886163,0.0004256032407283783,-0.00014933513011783361
1738773043575980000,0.13797998046875,-0.00009601516649127007,0.0005521033890545368,0.0009359029936604202
1738773043585971000,0.147970947265625,-0.0007755892002023757,-0.0014191435184329748,0.0013910478446632624
1738773043595961900,0.1579619140625,-0.0003854361129924655,0.00033561326563358307,0.0006917017162777483
1738773043605952800,0.167952880859375,-0.0008923489367589355,0.0010624288115650415,-0.0007637427770532668
1738773043615945000,0.177945068359375,0.0008626740891486406,-0.001385282725095749,-0.00023563794093206525
1738773043625936000,0.187935791015625,-0.001160641317255795,0.0008384974207729101,0.000722171098459512
1738773043635926800,0.1979267578125,0.00021488138008862734,-0.0003665830008685589,-0.0008786550024524331
1738773043645918000,0.20791796875,0.0010075311874970794,-0.001760109094902873,0.0012137541780248284
1738773043655908900,0.217908935546875,0.00011111120693385601,0.0013933400623500347,-0.000599592225626111
1738773043665899800,0.227899658203125,-0.0013666563900187612,-0.000528691103681922,0.0014598823618143797
1738773043675891000,0.237890869140625,0.0003857036354020238,-0.0018365693977102637,-0.0001183068088721484
1738773043685883000,0.2478828125,0.0012550284154713154,0.000533288111910224,-0.0015425642486661673
1738773043695873800,0.257873779296875,-0.00004832260310649872,0.0006853544618934393,0.0018271333537995815
1738773043705865000,0.267864990234375,-0.0000447174534201622,-0.0012006510514765978,0.0009634388843551278
1738773043715856000,0.27785595703125,-0.0015637845499441028,0.000961303012445569,-0.0008578969282098114
1738773043725846800,0.2878466796875,0.0006714141927659512,0.000591594260185957,-0.0007870574481785297
1738773043735838000,0.297837890625,0.0007257426623255014,-0.00033278902992606163,0.0003943208430428058
1738773043745828900,0.307828857421875,-0.0004889372503384948,0.0006548285018652678,0.0009612630819901824
1738773043755820800,0.31782080078125,0.00013557402417063713,-0.0008517219685018063,-0.00005606441118288785
1738773043765812000,0.32781201171875,-0.001037610461935401,0.00022150995209813118,0.000011460229870863259
1738773043775803000,0.337802978515625,0.00039011018816381693,0.0007424242794513702,0.0020213478710502386
1738773043785793800,0.347793701171875,0.0005228634690865874,-0.0011868008878082037,0.0008335824823006988
1738773043795785000,0.357784912109375,0.0032419508788734674,-0.00003125518560409546,0.00014755220036022365
1738773043805776000,0.36777587890625,0.0006928042275831103,0.00007050484418869019,-0.0009584351209923625
1738773043815766800,0.377766845703125,0.00007122242823243141,0.00032829889096319675,-0.0014146346366032958
1738773043825757700,0.3877578125,-0.00028088572435081005,0.0008224919438362122,-0.0011579270940274
1738773043835750000,0.39775,0.0020475159399211407,-0.00011600600555539131,-0.002142497571185231
1738773043845740800,0.40774072265625,0.0014133536024019122,0.0006244853138923645,-0.0014505102299153805
1738773043855731700,0.417731689453125,0.0033587925136089325,0.0013328860513865948,-0.0006997650489211082
1738773043865723000,0.427722900390625,0.0008898860542103648,-0.0003241852391511202,-0.0011161604197695851
1738773043875713800,0.4377138671875,0.0032848664559423923,-0.0008967649191617966,-0.0025036674924194813
1738773043885704700,0.44770458984375,0.0011948688188567758,0.001355782151222229,-0.000119405536679551
1738773043895697000,0.45769677734375,0.00016848661471158266,0.0006226138211786747,-0.0005614903056994081
1738773043905687800,0.467687744140625,0.002254451159387827,-0.0008474434725940228,-0.0004051423748023808
1738773043915678700,0.4776787109375,0.001805974985472858,0.0010007901582866907,0.00040925227222032845
1738773043925670000,0.487669921875,0.001079236390069127,0.00009701540693640709,-0.000534396676812321
1738773043935660800,0.497660888671875,-0.0003918937873095274,-0.00017249654047191143,-0.0007972506573423743
1738773043945651700,0.507651611328125,0.00007081415969878435,0.000506142619997263,0.00020339401089586318
1738773043955643000,0.517642822265625,0.00208549527451396,0.00008323276415467262,-0.00006079157174099237
1738773043965634800,0.527634765625,-0.001060754293575883,-0.0006626073736697435,-0.00037356268148869276
1738773043975625700,0.537625732421875,0.0007222321582958102,0.0005797573830932379,-0.0003770248149521649
1738773043985617000,0.547616943359375,-0.00032244890462607145,0.00019819126464426517,-0.00011024174455087632
1738773043995607800,0.55760791015625,0.0010536063928157091,-0.0009134120773524046,-0.00005138589040143415
1738773044005598700,0.5675986328125,0.00013722910080105066,0.0008726792875677347,0.0006676186458207667
1738773044015590000,0.57758984375,0.00027864298317581415,-0.0011523885186761618,0.0008732146234251559
1738773044025580800,0.587580810546875,0.001603475771844387,-0.0006534678395837545,0.0008084193104878068
1738773044035571700,0.59757177734375,-0.0009630125714465976,0.0007425614167004824,0.001913098618388176
1738773044045564000,0.60756396484375,-0.001994799356907606,0.00031488435342907906,0.001081728609278798
1738773044055554800,0.617554931640625,-0.0006088904337957501,0.0016299532726407051,0.0005669395322911441
1738773044065545700,0.627545654296875,0.0012467995984479785,0.0003160859923809767,0.0015448714839294553
1738773044075536600,0.63753662109375,-0.0004187413724139333,-0.0005190812516957521,-0.001380610978230834
1738773044085527800,0.64752783203125,0.0010857817251235247,0.0008544276934117079,0.0011724313953891397
1738773044095518700,0.657518798828125,-0.00010811339598149061,-0.00004199240356683731,0.0015311591560021043
1738773044105509600,0.667509521484375,0.0004116168711334467,0.0015279327053576708,0.000716567796189338
1738773044115501800,0.677501708984375,-0.000703182362485677,0.0022182243410497904,0.0001687555923126638
1738773044125492700,0.68749267578125,0.00011278979945927858,0.001094946637749672,-0.0003770616021938622
1738773044135483600,0.697483642578125,-0.0007319648866541684,0.0000203610397875309,-0.0016713578952476382
1738773044145474800,0.707474853515625,0.00039358146023005247,0.0006142433267086744,0.00018437026301398873
1738773044155465700,0.7174658203125,-0.000054362230002880096,0.0009463394526392221,-0.001097409171052277
1738773044165457000,0.727456787109375,-0.00001382618211209774,0.0008768613915890455,0.00023603267618454993
1738773044175448000,0.737447998046875,0.00009190128184854984,-0.0011000032536685467,0.0007574796327389777
1738773044185439700,0.747439697265625,0.001479215919971466,-0.0017869879957288504,-0.0005122409202158451
1738773044195430700,0.7574306640625,-0.0013410716783255339,0.002745445817708969,0.0016885952791199088
1738773044205421800,0.767421875,-0.00002717995084822178,-0.000207449309527874,-0.0010388533119112253
1738773044215413500,0.77741357421875,-0.0007821860490366817,-0.0003616462927311659,0.0005933981738053262
1738773044225404400,0.787404296875,0.0003227831330150366,0.00111724017187953,0.0011313328286632895
1738773044235395600,0.7973955078125,-0.0007430138648487628,-0.00003937073051929474,-0.0008764242520555854
1738773044245387500,0.807387451171875,-0.0003245854750275612,0.0011514942161738873,0.0007431072881445289
1738773044255378400,0.81737841796875,-0.00029449176508933306,-0.0007225722074508667,0.0008512316271662712
1738773044265369600,0.82736962890625,0.0002753959270194173,-0.002402053913101554,0.00033629138488322496
1738773044275360500,0.837360595703125,-0.0005637661670334637,0.0003271533641964197,0.0011509524192661047
1738773044285351400,0.847351318359375,0.0016327304765582085,0.0009102306794375181,0.0010424762731418014
1738773044295342600,0.857342529296875,0.0008558863773941994,-0.00038140243850648403,0.002113333437591791
1738773044305333500,0.86733349609375,0.0003490521339699626,0.0002920171245932579,0.00028135679895058274
1738773044315325400,0.877325439453125,0.00051416817586869,0.0005165217444300652,0.00018175457080360502
1738773044325316600,0.887316650390625,0.0007830819813534617,0.00036143953911960125,0.0010515059111639857
1738773044335307500,0.8973076171875,0.00026190129574388266,0.0013308303896337748,0.00002991740984725766
1738773044345298400,0.90729833984375,0.0007642693817615509,0.001524257706478238,0.00014284765347838402
1738773044355289600,0.91728955078125,0.0006803798023611307,-0.00032370956614613533,0.00025922778877429664
1738773044365280500,0.927280517578125,0.00075763207860291,0.0006686700507998466,0.0007243717554956675
1738773044375271700,0.937271728515625,0.0013206242583692074,-0.00020218361169099808,-0.00020081043476238847
1738773044385263600,0.947263671875,0.00022275885567069054,0.0018070254009217024,0.0008240612805821002
1738773044395254500,0.957254638671875,0.0013420854229480028,-0.00175761547870934,-0.00008274508581962436
1738773044405245400,0.967245361328125,0.0006119151366874576,0.0014505330473184586,0.0003866043407469988
1738773044415236400,0.977236328125,-0.0003361701965332031,0.0016055293381214142,-0.00026507116854190826
1738773044425227500,0.9872275390625,0.0004961185622960329,-0.000617010286077857,-0.0002098023978760466
1738773044435218700,0.99721875,0.0005397944478318095,0.0008549189660698175,0.0014269764069467783
1738773044445209600,1.007209716796875,0.0018096889834851027,0.0010947692207992077,-0.00030303909443318844
1738773044455201500,1.017201416015625,-0.000030821654945611954,-0.0008141847793012857,-0.000030864044674672186
1738773044465192400,1.0271923828125,0.000948336673900485,0.0014177176635712385,0.0007047103135846555
1738773044475183400,1.037183349609375,0.00022049469407647848,-0.0008726008236408234,-0.00017333385767415166
1738773044485174500,1.047174560546875,-0.0013544096145778894,0.0006922227330505848,-0.0007629950996488333
1738773044495165700,1.057165771484375,-0.00023401773069053888,0.001960153691470623,0.000871120544616133
1738773044505156600,1.067156494140625,0.000373288756236434,0.00012523634359240532,0.0007055388414300978
1738773044515147800,1.077147705078125,-0.0010184792336076498,-0.00007689767517149448,-0.00016584743571002036
1738773044525138700,1.087138671875,-0.000407584710046649,0.0008505815640091896,0.0010707380715757608
1738773044535130600,1.097130615234375,0.0005367721896618605,-0.0004133547190576792,-0.0008904137648642063
1738773044545121800,1.107121826171875,0.0004634917713701725,-0.00008941185660660267,-0.000011937581803067587
1738773044555112700,1.11711279296875,-0.00044651038479059935,-0.00011178245767951012,-0.00023830626741982996
1738773044565103600,1.127103515625,-0.0003456665435805917,-0.0005380096845328808,-0.0007162480615079403
1738773044575094800,1.1370947265625,-0.0010495400056242943,-0.000040531158447265625,-0.0006334237405098975
1738773044585085700,1.147085693359375,0.0004988990258425474,-0.0006521628238260746,0.0003193385200574994
1738773044595076600,1.15707666015625,0.0010754733812063932,0.0006072463002055883,-0.0003834696835838258
1738773044605068800,1.16706884765625,-0.0012728865258395672,-0.0005324152298271656,0.0002502560964785516
1738773044615059700,1.177059814453125,0.0007428600220009685,0.00024602701887488365,-0.00005840427184011787
1738773044625050600,1.187050537109375,0.0013834105338901281,0.0003023166209459305,-0.001546971034258604
1738773044635041500,1.19704150390625,-0.00018971855752170086,0.0009449371136724949,-0.00020899892842862755
1738773044645032700,1.20703271484375,0.0006166300736367702,0.0003706812858581543,0.0027775838971138
1738773044655023600,1.217023681640625,0.001083215931430459,0.0021704458631575108,0.0021924872417002916
1738773044665014500,1.2270146484375,0.0003382149152457714,-0.0011344228405505419,0.0006109057576395571
1738773044675006700,1.2370068359375,-0.0008612728561274707,0.0001518838107585907,0.0014519320102408528
1738773044684997600,1.24699755859375,0.000675840419717133,-0.0010293915402144194,-0.000039027589082252234
1738773044694988500,1.256988525390625,-0.0005697199958376586,-0.00028264126740396023,-0.00000627070949121844
1738773044704979700,1.266979736328125,-0.00047475798055529594,-0.0003496201243251562,0.0006674017058685422
1738773044714970600,1.276970703125,-0.0002965924795717001,-0.0006955647841095924,-0.00022768673079553992
1738773044724961500,1.28696142578125,0.00009107531514018774,-0.0020379777997732162,0.0008420845260843635
1738773044734952700,1.29695263671875,-0.0003547378582879901,0.0009167992975562811,0.0017217266140505672
1738773044744944600,1.306944580078125,-0.0008138557313941419,0.0002318148035556078,0.00013763424067292362
1738773044754935600,1.316935546875,0.0006303765112534165,-0.002105641644448042,0.0000553425561520271
1738773044764926700,1.3269267578125,-0.0010933673474937677,0.0003253959584981203,0.0003698465006891638
1738773044774917600,1.336917724609375,-0.0008049469324760139,0.0011091639753431082,-0.0005766409449279308
1738773044784908500,1.346908447265625,-0.001357227098196745,-0.0003036155831068754,-0.0010452622082084417
1738773044794899700,1.356899658203125,0.00017781893257051706,-0.00011799321509897709,0.0005294649745337665
1738773044804890600,1.366890625,-0.0011808605631813407,-0.00026681041345000267,-0.0007950536091811955
1738773044814881500,1.376881591796875,0.0009241019142791629,-0.0008886584546416998,-0.0009098358568735421
1738773044824873700,1.386873779296875,-0.00017061794642359018,0.000371171860024333,-0.0008165193139575422
1738773044834864600,1.39686474609375,0.001257901662029326,0.00020472449250519276,-0.00017070278408937156
1738773044844855600,1.40685546875,-0.0008965383167378604,0.00000775931403040886,-0.0006252274615690112
1738773044854846500,1.416846435546875,-0.0016115970211103559,0.0006245474796742201,-0.000511510472279042
1738773044864837600,1.426837646484375,0.0014548157341778278,0.00027439394034445286,0.0005993658560328186
1738773044874828500,1.43682861328125,0.00035253330133855343,0.0006781292613595724,0.00036953508970327675
1738773044884819500,1.4468193359375,-0.0006968863890506327,-0.0007308896165341139,-0.0006822785944677889
1738773044894811600,1.456811767578125,0.0008879608940333128,0.000844636233523488,0.0007225388544611633
1738773044904802600,1.466802490234375,0.0011145687894895673,0.0012009553611278534,-0.000413423782447353
1738773044914793500,1.47679345703125,0.0009366696467623115,0.0003141225315630436,-0.00024191621923819184
1738773044924784600,1.48678466796875,0.000025309156626462936,-0.0017693291883915663,0.0009705214761197567
1738773044934775600,1.496775634765625,0.0014852541498839855,0.0007881044875830412,-0.0017376471078023314
1738773044944766500,1.506766357421875,-0.0007368665537796915,0.0011579892598092556,0.0007481602369807661
1738773044954757600,1.516757568359375,0.00017047242727130651,0.0003361376002430916,-0.0003149736439809203
1738773044964749600,1.52674951171875,-0.0007416373700834811,-0.0002562636509537697,0.0002588758943602443
1738773044974740500,1.536740478515625,-0.00042019382817670703,0.001180245541036129,0.0006961669423617423
1738773044984731600,1.546731689453125,-0.0003904775367118418,-0.0002932264469563961,0.000572622986510396
1738773044994722600,1.55672265625,0.00015413889195770025,-0.0003528811503201723,0.0008139053825289011
1738773045004713500,1.56671337890625,-0.0004341030726209283,-0.000015851575881242752,-0.0011934781214222312
1738773045014704400,1.576704345703125,-0.00023117021191865206,0.0007799009326845407,0.001005493919365108
1738773045024695600,1.586695556640625,0.0002898966195061803,-0.0006718768272548914,-0.00047963473480194807
1738773045034686500,1.5966865234375,0.001012412365525961,-0.0010226152371615171,-0.00025406500208191574
1738773045044678700,1.6066787109375,-0.0003672720631584525,-0.0012662091758102179,-0.0005659695016220212
1738773045054669600,1.616669677734375,0.00007081788498908281,0.0008022680412977934,0.0017448553116992116
1738773045064660500,1.626660400390625,-0.00031547003891319036,0.0001233820803463459,0.0007247186149470508
1738773045074651400,1.6366513671875,-0.001472080941312015,0.0006136700976639986,0.0006275132764130831
1738773045084642600,1.646642578125,0.0005615018308162689,-0.00017156312242150307,-0.0010374101111665368
1738773045094633500,1.656633544921875,-0.0012100328458473086,-0.00007382500916719437,0.0008281343034468591
1738773045104624400,1.666624267578125,-0.0008935296791605651,-0.00011226884089410305,0.0010386554058641195
1738773045114616600,1.676616455078125,-0.000043715001083910465,-0.000023851869627833366,0.0007534308824688196
1738773045124607500,1.686607421875,-0.0014515838120132685,-0.0007909187115728855,0.00046611641300842166
1738773045134598400,1.696598388671875,0.0006432586815208197,-0.0010087653063237667,-0.00008728849206818268
1738773045144589600,1.706589599609375,-0.0008518487447872758,0.002445611637085676,0.000030094292014837265
1738773045154580500,1.71658056640625,-0.00032187975011765957,0.00028339121490716934,-0.0012370378244668245
1738773045164571600,1.726571533203125,-0.001825419021770358,-0.0009090837556868792,0.001124089933000505
1738773045174562800,1.736562744140625,0.00009978003799915314,-0.0012670124415308237,-0.0001811253314372152
1738773045184554500,1.746554443359375,0.0015645271632820368,-0.0014270299579948187,0.0011926732258871198
1738773045194545400,1.75654541015625,0.0003051183884963393,-0.0009812167845666409,-0.0007913817535154521
1738773045204536600,1.76653662109375,-0.0005581509904004633,0.0007052028086036444,-0.00010595634375931695
1738773045214527500,1.776527587890625,0.000018689665012061596,0.00022982829250395298,0.0006133634597063065
1738773045224518700,1.7865185546875,-0.0015579030150547624,-0.0011396075133234262,0.000031265386496670544
1738773045234509600,1.796509521484375,0.0007348122308030725,-0.00011535570956766605,-0.0007991082384251058
1738773045244500700,1.806500732421875,-0.00010230741463601589,0.0016978285275399685,-0.0007836800068616867
1738773045254491600,1.81649169921875,0.000528062810190022,-0.00008569029159843922,0.0009428473422303796
1738773045264483300,1.8264833984375,-0.0008597299456596375,-0.00005198339931666851,-0.00013256944657769054
1738773045274474500,1.836474609375,-0.0007412192644551396,0.0007964998949319124,0.0004005954251624644
1738773045284465700,1.846465576171875,-0.0001378464512526989,-0.0007157744839787483,-0.00020015050540678203
1738773045294456600,1.85645654296875,0.0022294374648481607,0.0013614909257739782,-0.0004701950238086283
1738773045304447700,1.86644775390625,0.001245701452717185,-0.000929275993257761,0.000749816361349076
1738773045314438700,1.876438720703125,-0.000203058123588562,0.00004996825009584427,-0.0003561944467946887
1738773045324429600,1.8864296875,0.0009210648713633418,0.00009952927939593792,-0.0001924844109453261
1738773045334421800,1.896421875,-0.0012571344850584865,0.0007551996968686581,0.0009116621222347021
1738773045344412700,1.90641259765625,0.0019265414448454976,-0.00041240756399929523,0.0002888302260544151
1738773045354403600,1.916403564453125,0.00047005852684378624,0.00002142135053873062,-0.00011916606308659539
1738773045364394500,1.92639453125,0.0006209488492459059,0.0006825167220085859,-0.0008277809247374535
1738773045374385700,1.9363857421875,-0.00010849104728549719,-0.00018807058222591877,-0.0017002325039356947
1738773045384376600,1.94637646484375,-0.00004388613160699606,-0.0003407476469874382,-0.0013461494818329811
1738773045394367500,1.956367431640625,-0.0006992900744080544,-0.0008422208484262228,0.0006320466054603457
1738773045404359700,1.966359619140625,0.0012276718625798821,0.0008930421900004148,0.00065563153475523
1738773045414350600,1.9763505859375,0.00018664216622710228,-0.0011607874184846878,0.0007355263223871589
1738773045424341500,1.986341552734375,-0.0011952276108786464,0.00046742032282054424,0.000946679268963635
1738773045434332700,1.996332763671875,-0.00002423569094389677,0.0005190859083086252,0.000011643365724012256
1738773045444323600,2.006323486328125,0.0008600009605288506,-0.0007005762308835983,0.0019369920482859015
1738773045454314500,2.016314453125,-0.00035333522828295827,0.0010137006174772978,-0.00004013883153675124
1738773045464305700,2.0263056640625,0.000019754399545490742,0.0002934292424470186,0.00012531329412013292
1738773045474296600,2.036296630859375,-0.0003717303043231368,-0.001094343839213252,0.0008965647430159152
1738773045484288500,2.04628857421875,-0.0003271268797107041,-0.00015347101725637913,0.000012378644896671176
1738773045494279700,2.05627978515625,-0.0009630897548049688,0.0013922275975346565,0.0006997404852882028
1738773045504270600,2.0662705078125,0.0012890825746580958,0.00003782007843255997,-0.0004760479205287993
1738773045514261500,2.076261474609375,-0.001164221321232617,0.0004966824781149626,0.00023288553347811103
1738773045524252700,2.086252685546875,-0.0006363791762851179,0.0017746721860021353,0.000010545292752794921
1738773045534243600,2.09624365234375,0.0014382231747731566,-0.0005308261606842279,0.0006355891819112003
1738773045544234500,2.106234375,-0.0012313735205680132,-0.0006393007934093475,-0.0004051707510370761
1738773045554225400,2.116225341796875,0.0011263228952884674,0.00027682678773999214,-0.0005234151030890644
1738773045564217600,2.126217529296875,0.00043261656537652016,0.0002287945244461298,0.00013684865552932024
1738773045574208500,2.13620849609375,-0.0009554229327477515,-0.0005597672425210476,0.0009797392413020134
1738773045584199400,2.146199462890625,-0.0006523979245685041,0.00034568202681839466,0.0000868005445227027
1738773045594190600,2.156190673828125,0.0005739877233281732,0.0004833673592656851,0.0002782818046398461
1738773045604181500,2.166181396484375,-0.001708480529487133,-0.00035547069273889065,0.0010240364354103804
1738773045614172400,2.17617236328125,-0.0006727771833539009,0.00048635457642376423,-0.0003256535856053233
1738773045624163600,2.18616357421875,-0.0005356892943382263,0.0007135579362511635,0.0020587812177836895
1738773045634155500,2.196155517578125,0.0015690068248659372,-0.0008103030268102884,0.0002536907559260726
1738773045644146400,2.206146484375,-0.00010038481559604406,0.0002698800526559353,0.0011125204619020224
1738773045654137600,2.2161376953125,0.0017838017083704472,0.00005469680763781071,0.0004038531915284693
1738773045664128500,2.22612841796875,-0.0003848691703751683,0.0009310268796980381,0.00022076893947087228
1738773045674119400,2.236119384765625,-0.0008168338681571186,-0.0006154708098620176,0.00050705875037238
1738773045684110600,2.246110595703125,0.00015093188267201185,0.00014338293112814426,-0.00012041516311001033
1738773045694101500,2.2561015625,0.002552836900576949,0.000007295282557606697,0.0016031826380640268
1738773045704092400,2.266092529296875,0.0008407925488427281,-0.0008449296001344919,-0.0008500595577061176
1738773045714084600,2.276084716796875,-0.0005014407215639949,-0.00017940555699169636,-0.00036882638232782483
1738773045724075500,2.286075439453125,-0.0013569439761340618,-0.00041606673039495945,0.000027964299079030752
1738773045734066400,2.29606640625,-0.0011380321811884642,0.00023347814567387104,0.0014642069581896067
1738773045744057600,2.3060576171875,0.0003904929617419839,-0.0011403358075767756,0.0005744402878917754
1738773045754048500,2.316048583984375,-0.0005304281366989017,0.0001955055631697178,-0.0006178568582981825
1738773045764039400,2.326039306640625,-0.0011537245009094477,0.0016718590632081032,-0.0002328541304450482
1738773045774030300,2.3360302734375,0.0005227354122325778,-0.0005255152937024832,-0.0010232803178951144
1738773045784022500,2.3460224609375,0.0003492712276056409,-0.00038574659265577793,-0.001414745463989675
1738773045794013400,2.356013427734375,0.000519713619723916,0.0008896414656192064,0.00023668078938499093
1738773045804004400,2.36600439453125,0.0004364936612546444,-0.00044014002196490765,-0.0007797481957823038
1738773045813995500,2.37599560546875,0.00048576213885098696,0.0011412447784096003,0.000253558304393664
1738773045823986400,2.385986328125,0.0012109376257285476,-0.000003984896466135979,-0.0003173348377458751
1738773045833977300,2.395977294921875,-0.0007408931269310415,-0.0012050704099237919,-0.001215619035065174
1738773045843968500,2.405968505859375,0.00009644206147640944,-0.000676433090120554,-0.00017238291911780834
1738773045853959700,2.415959716796875,0.0006402594735845923,0.0005685945507138968,-0.0006019508000463247
1738773045863951400,2.425951416015625,-0.0006448515923693776,0.000266889575868845,-0.0005099432310089469
1738773045873942500,2.435942626953125,0.00003798294346779585,0.0002873959019780159,-0.0004233905056025833
1738773045883933400,2.445933349609375,0.00044805160723626614,-0.0013479311019182205,-0.0003620432107709348
1738773045893924400,2.45592431640625,-0.00012000068090856075,0.0000222653616219759,0.0011255985591560602
1738773045903915500,2.46591552734375,0.00003724265843629837,0.0010236063972115517,-0.000012697768397629261
1738773045913906700,2.47590673828125,-0.0006860718713141978,0.0011240076273679733,-0.0002656980650499463
1738773045923897600,2.485897705078125,0.00045183824840933084,0.00030794995836913586,0.0004529791185632348
1738773045933889500,2.4958896484375,-0.0004001070046797395,-0.0005378702189773321,0.0002428556908853352
1738773045943880400,2.50588037109375,-0.0004206340527161956,-0.0003657874185591936,-0.0009827050380408764
1738773045953871600,2.51587158203125,-0.0008467398001812398,0.0012587406672537327,-0.00004074486787430942
1738773045963862800,2.52586279296875,0.0003716736100614071,-0.0013033386785537004,0.0008112991345115006
1738773045973853700,2.535853759765625,-0.0020757713355123997,-0.0010751057416200638,-0.0005911214975640178
1738773045983844600,2.5458447265625,-0.0002526853932067752,-0.0008261608891189098,0.00019938667537644506
1738773045993835500,2.55583544921875,-0.000168795813806355,-0.001064780168235302,0.0005160365253686905
1738773046003826700,2.56582666015625,0.000025826389901340008,0.0007014339789748192,-0.000446519028628245
1738773046013818600,2.575818603515625,-0.0013204015558585525,0.00024150637909770012,-0.0010798186995089054
1738773046023809500,2.5858095703125,-0.0002457111841067672,-0.00025417166762053967,-0.00022776545665692538
1738773046033800700,2.59580078125,0.0005311329150572419,-0.0002741455100476742,-0.0009550747345201671
1738773046043791600,2.60579150390625,-0.0005319499759934843,-0.00002199830487370491,-0.001217246288433671
1738773046053782500,2.615782470703125,-0.0004762899479828775,0.0003372621722519398,0.0004938347265124321
1738773046063773700,2.625773681640625,0.00027229601982980967,0.0007540490478277206,-0.0015243234811350703
1738773046073764600,2.6357646484375,-0.0007064156234264374,0.0005228864029049873,-0.0007813015836291015
1738773046083756500,2.645756591796875,-0.0008554876549169421,0.0006198191549628973,0.000508781464304775
1738773046093747700,2.655747802734375,-0.000658680044580251,0.00179427326656878,-0.002183940727263689
1738773046103738600,2.665738525390625,0.00011315417941659689,0.0006868867203593254,-0.0002444532001391053
1738773046113729500,2.6757294921875,0.0018383500864729285,-0.0007434971630573273,-0.0012601828202605247
1738773046123720700,2.685720703125,-0.0011783675290644169,0.00008410378359258175,-0.00006932186079211533
1738773046133711600,2.695711669921875,0.0007929041748866439,0.00038956827484071255,0.00029899331275373697
1738773046143702500,2.70570263671875,-0.0006588177056983113,0.000517501961439848,0.00007712471415288746
1738773046153693400,2.715693359375,-0.0006202018703334033,0.0004911366850137711,0.0007298655109480023
1738773046163685600,2.725685546875,-0.0005729470285587013,0.001270590117201209,0.00017904205014929175
1738773046173676500,2.735676513671875,0.0010097695048898458,0.0000881468877196312,0.001958299893885851
1738773046183667700,2.745667724609375,-0.0012532107066363096,0.000027360860258340836,0.0005674940766766667
1738773046193658600,2.75565869140625,-0.0008963471045717597,-0.0022070312406867743,-0.0023398788180202246
1738773046203649500,2.7656494140625,0.0011911806650459766,-0.0006522675976157188,-0.00011701660696417093
1738773046213640400,2.775640380859375,-0.0007931406726129353,0.0016771992668509483,0.00033891655039042234
1738773046223632000,2.7856318359375,-0.0009180016932077706,0.0008724420331418514,0.0005425509298220277
1738773046233622800,2.795622802734375,-0.00015021231956779957,-0.0007379711605608463,-0.0011978248367086053
1738773046243614700,2.80561474609375,0.0002876167418435216,-0.000861873384565115,0.00003404717426747084
1738773046253606000,2.81560595703125,0.0012684590183198452,0.0009227106347680092,0.0007443122449330986
1738773046263596800,2.8255966796875,0.0005747134564444423,0.0002012311015278101,-0.0006491857348009944
1738773046273587700,2.835587646484375,-0.00008122308645397425,0.0008214812260121107,0.00002086561289615929
1738773046283579000,2.845578857421875,0.0009930831147357821,0.0004010333213955164,0.002197509165853262
1738773046293569800,2.85556982421875,-0.00011346035171300173,0.0005301965866237879,-0.0008459514938294888
1738773046303560700,2.865560791015625,0.0004893195582553744,-0.0000318202655762434,0.0008909838506951928
1738773046313553000,2.875552978515625,-0.00033572770189493895,-0.0015916337724775076,-0.0002587028138805181
1738773046323543800,2.885543701171875,-0.000874496647156775,-0.0009380446281284094,0.0008272516424767673
1738773046333534700,2.89553466796875,-0.0005535857635550201,0.00040631904266774654,0.0005066070589236915
1738773046343526000,2.90552587890625,0.0010312550002709031,-0.0004687551409006119,0.0008408856228925288
1738773046353516800,2.915516845703125,-0.0012055339757353067,0.00051288609392941,-0.0004510138533078134
1738773046363507700,2.9255078125,-0.0020491527393460274,0.00009225844405591488,0.0005030457978136837
1738773046373498600,2.93549853515625,-0.00015431363135576248,-0.0005807222332805395,0.0006561775808222592
1738773046383489800,2.94548974609375,-0.0018545377533882856,0.0006627605762332678,0.0000032370153348892927
1738773046393481700,2.955481689453125,-0.002369592897593975,0.00005263020284473896,-0.0008492408669553697
1738773046403473000,2.965472900390625,-0.0012116425205022097,0.00023935316130518913,-0.0013523903908208013
1738773046413463800,2.9754638671875,0.00012126960791647434,0.0006984821520745754,-0.0004855315200984478
1738773046423454700,2.985454833984375,-0.00018207053653895855,0.000779520021751523,0.0012513998663052917
1738773046433445600,2.995445556640625,-0.0008667692309245467,-0.00015764636918902397,-0.00024103558098431677
1738773046443436800,3.005436767578125,-0.0006912253447808325,0.0002919065300375223,0.0005468931049108505
1738773046453427700,3.015427734375,-0.00008136150427162647,0.0006799290422350168,-0.000626761931926012
1738773046463418600,3.025418701171875,-0.0020121135748922825,-0.0011990326456725597,-0.0000606034736847505
1738773046473410800,3.035410888671875,0.0008233538828790188,-0.0001982168760150671,0.00001636188244447112
1738773046483401700,3.045401611328125,-0.00045022909762337804,0.0007978151552379131,0.001010654028505087
1738773046493392600,3.055392578125,-0.0004592838231474161,-0.0004040696658194065,0.0012000047136098146
1738773046503383800,3.0653837890625,0.0009051570668816566,-0.0007712102960795164,0.0002823286922648549
1738773046513374700,3.075374755859375,-0.0011220411397516727,0.0009968625381588936,0.0008083030697889626
1738773046523365600,3.08536572265625,0.0006937719881534576,0.0008183808531612158,0.00187540368642658
1738773046533356800,3.095356689453125,0.0004452990833669901,-0.0005880345124751329,0.00032544395071454346
1738773046543348700,3.1053486328125,0.001902579446323216,-0.000675861956551671,-0.0008369680726900697
1738773046553339600,3.115339599609375,0.000638643279671669,-0.0007621482945978642,0.0014789167325943708
1738773046563330800,3.125330810546875,0.0006586876697838306,0.0005815851036459208,0.0016374627593904734
1738773046573321700,3.13532177734375,0.0009585596853867173,0.0012316626962274313,0.0007730005891062319
1738773046583312600,3.145312744140625,0.00046617002226412296,0.0001506572589278221,0.0004914821474812925
1738773046593303800,3.1553037109375,-0.0001916307955980301,0.0008934130892157555,-0.0006579381879419088
1738773046603295000,3.165294921875,-0.0002505157608538866,0.0004597713705152273,-0.00016114336904138327
1738773046613286000,3.175285888671875,-0.0005618392606265843,-0.0009602261707186699,0.00016136543126776814
1738773046623277800,3.18527783203125,-0.0008002104004845023,0.001122119603678584,0.0015859900740906596
1738773046633268700,3.195268798828125,-0.0006268385914154351,0.0005719105247408152,-0.0012649238342419267
1738773046643259600,3.205259765625,-0.0008075385121628642,0.00018770224414765835,-0.00021037409896962345
1738773046653250800,3.215250732421875,-0.001687180600129068,-0.00047116377390921116,0.0008016270585358143
1738773046663242000,3.225241943359375,0.001795626012608409,-0.0000369437038898468,3.3005198929458857e-7
1738773046673233000,3.23523291015625,-0.0021660923957824707,-0.0004609187599271536,0.00014201021986082196
1738773046683223800,3.245223876953125,-0.0012247500708326697,0.0009206323884427547,-0.0006543763447552919
1738773046693215000,3.255215087890625,0.0009577105520293117,-0.0003819195553660393,0.0002851869212463498
1738773046703206700,3.26520654296875,0.0012705702101811767,-0.00010240403935313225,0.000710175430867821
1738773046713197800,3.27519775390625,0.000634607276879251,-0.00048456783406436443,0.000403911923058331
1738773046723189000,3.28518896484375,-0.0012289031874388456,0.00006290781311690807,0.00012063846224918962
1738773046733180000,3.295179931640625,0.00035621027927845716,0.0011372268199920654,0.0017454330809414387
1738773046743170800,3.3051708984375,-0.000641488702967763,0.0003276208881288767,0.0016517849871888757
1738773046753162000,3.315161865234375,0.00013695331290364265,0.0000895343255251646,0.000024859808036126196
1738773046763153000,3.32515283203125,0.00043444603215903044,0.00019228551536798477,-0.000988856772892177
1738773046773143800,3.335143798828125,0.00040941231418401003,-0.0014141330029815435,-0.00007832204573787749
1738773046783136000,3.345135986328125,0.0011672032997012138,-0.0020562554709613323,0.00030317946220748127
1738773046793127000,3.355126953125,-0.00030126364436000586,0.0011800180654972792,0.00013140554074198008
1738773046803117800,3.365117919921875,0.000834230100736022,-0.0004069753922522068,-0.000571709533687681
1738773046813108700,3.375108642578125,0.0015298477374017239,-0.0006136368028819561,0.0004136600764468312
1738773046823100000,3.385099853515625,-0.001176733523607254,0.000727061415091157,0.000248597702011466
1738773046833090800,3.3950908203125,-0.0008089509792625904,-0.0016242433339357376,-0.0005559432320296764
1738773046843081700,3.405081787109375,0.0001407288946211338,0.0003087548539042473,0.0012066458584740758
1738773046853074000,3.415073974609375,0.0009306225692853332,-0.00009151804260909557,0.000044708678615279496
1738773046863064800,3.42506494140625,0.0015955297276377678,0.0008575571700930595,0.0005924073047935963
1738773046873055700,3.4350556640625,-0.0014641759917140007,0.00035954592749476433,-0.0018166881054639816
1738773046883047000,3.445046875,0.0016777305863797665,-0.001380836358293891,0.0001570133026689291
1738773046893037800,3.455037841796875,-0.0010384273482486606,-0.0008386166300624609,-0.0002467219310346991
1738773046903028700,3.46502880859375,0.0011287007946521044,-0.00025880103930830956,0.0007844984065741301
1738773046913020000,3.47502001953125,0.00019925751257687807,0.0006091231480240822,-0.00043309887405484915
1738773046923010800,3.4850107421875,0.0008104026783257723,0.0001440949272364378,0.0003705614944919944
1738773046933002800,3.495002685546875,0.0006088013760745525,-0.00003939680755138397,0.0015689840074628592
1738773046942994000,3.504993896484375,-0.0003756418591365218,-0.00041693681851029396,0.00019824027549475431
1738773046952984800,3.51498486328125,-0.0007351686363108456,-0.0017005805857479572,-0.0010526464320719242
1738773046962975700,3.524975830078125,0.0012608601246029139,0.00013555912300944328,-0.00041120563400909305
1738773046972967000,3.534966796875,-0.001094705774448812,0.0012165363878011703,-0.00042691826820373535
1738773046982957800,3.544957763671875,-0.0007136082276701927,0.0008159582503139973,-0.00005749959382228553
1738773046992948700,3.55494873046875,0.0006600501947104931,-0.0012189631815999746,0.00042985889012925327
1738773047002939600,3.564939697265625,-0.0016041449271142483,0.00027051777578890324,-0.0003145069640595466
1738773047012931800,3.574931884765625,0.0007879064651206136,0.0020138227846473455,-0.0004053207521792501
1738773047022922800,3.5849228515625,0.00015856162644922733,0.0005055607762187719,-0.0006859521963633597
1738773047032913700,3.59491357421875,0.0011037176009267569,0.0002373803872615099,0.0016797337448224425
1738773047042904800,3.60490478515625,0.0017069223104044795,0.0001564742997288704,0.00035412138095125556
1738773047052895700,3.614895751953125,0.0003987775417044759,0.001026528887450695,0.0000965937360888347
1738773047062886700,3.62488671875,-0.0004128241562284529,0.0008622405584901571,0.00043076620204374194
1738773047072877800,3.6348779296875,-0.0008900626562535763,-0.0022310211788862944,-0.00017643450701143593
1738773047082868700,3.64486865234375,-0.0013873439747840166,-0.0008922724518924952,0.00017031501920428127
1738773047092860700,3.654860595703125,-0.0008901318069547415,-0.0002541791182011366,-0.000765253440476954
1738773047102851800,3.664851806640625,0.00016834493726491928,0.00008457107469439507,0.0010618672240525484
1738773047112842800,3.6748427734375,-0.0008905279100872576,0.0001998860388994217,-0.0010225889272987843
1738773047122833700,3.684833740234375,0.0009850775822997093,-0.000946300569921732,-0.0001532638561911881
1738773047132824800,3.694824951171875,0.00004258495755493641,0.0009828933980315924,0.0007490151328966022
1738773047142815700,3.704815673828125,0.00017468607984483242,0.0002755201421678066,-0.001636154600419104
1738773047152806700,3.714806640625,0.000550990691408515,-0.00021636555902659893,-0.0015101871686056256
1738773047162797600,3.724797607421875,-0.0005912068882025778,0.001091914949938655,0.0003086614888161421
1738773047172789800,3.734789794921875,-0.0003760234685614705,-0.0003347403835505247,0.00014940445544198155
1738773047182780700,3.74478076171875,-0.0003669660654850304,-0.0006128286477178335,0.00041013784357346594
1738773047192771600,3.754771484375,-0.0006058515864424407,0.0007405900396406651,-0.0016282456927001476
1738773047202762800,3.7647626953125,0.0017841439694166183,0.0014475570060312748,-0.00029684253968298435
1738773047212753700,3.774753662109375,0.00027865904849022627,-0.0006736505310982466,0.000346843502484262
1738773047222744000,3.784744140625,0.001831251778639853,0.0003027955535799265,0.0014490442117676139
1738773047232735200,3.7947353515625,-0.001277456060051918,-0.00036459253169596195,-0.0004641707055270672
1738773047242727200,3.80472705078125,0.001971716061234474,-0.0008188039064407349,-0.0005304501974023879
1738773047252718000,3.814718017578125,0.0006712944013997912,0.0008917443919926882,0.0016615977510809898
1738773047262709200,3.824709228515625,-0.00037149630952626467,0.00007853913120925426,0.0013285547029227018
1738773047272700200,3.8347001953125,0.0008799231145530939,-0.0017454596236348152,0.0010153669863939285
1738773047282691000,3.844691162109375,0.0003926329081878066,0.001220804639160633,0.00033250334672629833
1738773047292682000,3.854681884765625,0.0006693353643640876,0.00044369418174028397,0.000563399400562048
1738773047302673200,3.864673095703125,-0.0005561949219554663,0.0009751659817993641,0.00019147558487020433
1738773047312664000,3.8746640625,-0.0012768462765961885,0.00101191783323884,0.0005560623831115663
1738773047322656300,3.88465625,-0.0003431981895118952,0.00033268798142671585,0.0008534563239663839
1738773047332647200,3.894647216796875,0.000016328529454767704,-0.0008050142787396908,-0.00007066062244120985
1738773047342638000,3.90463818359375,0.0006022672168910503,0.0012170057743787766,0.0012265213299542665
1738773047352629000,3.91462890625,0.0009093296248465776,-0.00048102554865181446,-0.00004274119783076458
1738773047362620200,3.9246201171875,-0.0003831943613477051,0.0007916006725281477,-0.00014735315926373005
1738773047372611000,3.934611083984375,0.001271161250770092,-0.00020335637964308262,-0.00015054893447086215
1738773047382602000,3.94460205078125,-0.0017572717042639852,0.00008918764069676399,0.0007267330074682832
1738773047392593200,3.95459326171875,0.00014981802087277174,-0.00014969799667596817,0.001452178112231195
1738773047402585000,3.964585205078125,-0.000967307249084115,-0.001094871899113059,0.00003688693686854094
1738773047412576000,3.974575927734375,0.0000636024633422494,-0.0007398726884275675,-0.0000139794428832829
1738773047422567200,3.984567138671875,-0.0005046218284405768,0.00006559002213180065,0.00013535222387872636
1738773047432558000,3.99455810546875,0.0006471953820437193,-0.0011562684085220098,-0.0005429548909887671
1738773047442549000,4.004549072265625,-0.0019178561633452773,-0.00047152978368103504,0.0006048853974789381
1738773047452540200,4.0145400390625,0.0010225399164482951,0.0011521996930241585,-0.0001354733540210873
1738773047462531000,4.024531005859375,0.000329355476424098,-0.0013431143015623093,0.00039238721365109086
1738773047472522000,4.03452197265625,0.000493139959871769,0.0014777060132473707,-0.000779137306381017
1738773047482514200,4.04451416015625,-0.000030164257623255253,-0.0008037411607801914,-0.0006789397448301315
1738773047492505000,4.054505126953125,-0.001630191458389163,-0.000915327575057745,-0.00042407523142173886
1738773047502496000,4.06449609375,0.001158926752395928,0.00010805507190525532,0.00038541137473657727
1738773047512487000,4.07448681640625,0.0007464031223207712,0.00032829842530190945,0.001354269334115088
1738773047522478000,4.08447802734375,0.00018899294082075357,0.0005744702648371458,-0.0007956902263686061
1738773047532469000,4.094468994140625,-0.0019228938035666943,-0.00004471489228308201,0.001051744562573731
1738773047542460000,4.1044599609375,0.000316665624268353,-0.0001516076736152172,0.0009536948055028915
1738773047552451000,4.114451171875,0.0001598054077476263,0.00023774662986397743,0.0002540823770686984
1738773047562443000,4.124443115234375,0.00036769011057913303,0.0002232627011835575,-0.0002955589152406901
1738773047572434000,4.134433837890625,0.0012553215492516756,-0.00020071258768439293,0.0008072560885921121
1738773047582425000,4.144425048828125,-0.00046887341886758804,0.0010593798942863941,0.00006562683847732842
1738773047592416000,4.154416015625,0.00020597153343260288,0.00029824813827872276,0.0014603242743760347
1738773047602407000,4.164406982421875,0.0005374746397137642,-0.0014447604771703482,-0.0007512111915275455
1738773047612398000,4.174398193359375,0.0008538581896573305,0.000254602637141943,0.0004141880781389773
1738773047622389000,4.184388916015625,-0.00044320139568299055,-0.000397323165088892,-0.0005554223316721618
1738773047632380000,4.1943798828125,0.0005695987492799759,0.00005967519246041775,-0.0008939101244322956
1738773047642372000,4.2043720703125,0.0005751117132604122,0.0006603372748941183,0.0015065082116052508
1738773047652363000,4.214363037109375,-0.00043635693145915866,-0.00041611259803175926,-0.00022907386301085353
1738773047662354000,4.22435400390625,0.000709649408236146,-0.0002915249206125736,0.001651386613957584
1738773047672345000,4.234344970703125,-0.00030581385362893343,-0.0013448051176965237,0.0016322118462994695
1738773047682336000,4.2443359375,-0.00000709842424839735,0.0008796912152320147,-0.0007445328519679606
1738773047692327000,4.254326904296875,-0.0003210851573385298,0.000539339380338788,0.0004965002299286425
1738773047702318000,4.264318115234375,0.0007363777840510011,-0.0010022614151239395,0.0015449041966348886
1738773047712310000,4.27431005859375,0.0014543660217896104,-0.0007580495439469814,0.0011118743568658829
1738773047722301000,4.284301025390625,0.0011804623063653708,-0.0000780478585511446,-0.000030163617338985205
1738773047732291800,4.294291748046875,0.00009655579924583435,0.00016376725398004055,0.000381028454285115
1738773047742283000,4.304282958984375,-0.00007251661736518145,-0.0001748683862388134,0.00052948750089854
1738773047752274000,4.31427392578125,-0.00028903165366500616,0.0001875879243016243,-0.0002838419168256223
1738773047762265000,4.32426513671875,0.00045400322414934635,-0.001297153066843748,0.00195961887948215
1738773047772256300,4.33425634765625,0.00001298380084335804,0.0005257807206362486,-0.00025533195002935827
1738773047782247200,4.3442470703125,0.0008878082735463977,0.0012011006474494934,-0.00034023975604213774
1738773047792238800,4.35423876953125,0.000936277792789042,0.00022824760526418686,0.001576170907355845
1738773047802230000,4.36422998046875,-0.00005730823613703251,-0.00022328435443341732,0.0015410959022119641
1738773047812221000,4.374220947265625,0.002601858228445053,0.0003389089833945036,0.001150942756794393
1738773047822212000,4.384212158203125,-0.00040626944974064827,0.00074722059071064,0.0015618241159245372
1738773047832203300,4.394203369140625,0.0011697892332449555,0.00024148635566234589,0.000027310685254633427
1738773047842194200,4.404194091796875,0.0007197472732514143,-0.0004602272529155016,-0.0011134239612147212
1738773047852185000,4.41418505859375,-0.0010480590863153338,-0.00018112803809344769,0.0010826187208294868
1738773047862176000,4.424176025390625,-0.0007286319741979241,0.0023298896849155426,-0.000010691845091059804
1738773047872168200,4.434168212890625,-0.0006527318619191647,0.0007181446999311447,0.0007126227137632668
1738773047882159000,4.4441591796875,-0.0007241098792292178,0.0003781965933740139,-0.00010122363892151043
1738773047892150000,4.45414990234375,-0.0001408775569871068,0.00046714628115296364,0.001392543432302773
1738773047902141200,4.46414111328125,0.00008489505853503942,-0.0006131669506430626,-0.0001536169002065435
1738773047912132000,4.474132080078125,0.0006763831479474902,0.00001214328221976757,-0.00006812942592659965
1738773047922123000,4.484123046875,0.001736070611514151,0.0008430841844528913,0.0021319056395441294
1738773047932114200,4.4941142578125,-0.0008093786891549826,0.0005783659871667624,-0.000038570520700886846
1738773047942105000,4.50410498046875,-0.000018526101484894753,0.00046340166591107845,-0.0001539084332762286
1738773047952097000,4.514096923828125,-0.002249988727271557,0.0007145379204303026,-0.00017068635497707874
1738773047962088200,4.524088134765625,0.0008056401275098324,0.0008099253755062819,0.0013439178001135588
1738773047972079000,4.5340791015625,-0.0005395225598476827,0.001593427499756217,0.0011737417662516236
1738773047982070000,4.544070068359375,0.000634051626548171,-0.0017977452371269464,-0.0009555168217048049
1738773047992061200,4.554061279296875,0.0005229978123679757,-0.00006216298788785934,0.00003171700518578291
1738773048002052000,4.564052001953125,0.0001240826677531004,-0.0000022351741790771484,0.001338563277386129
1738773048012043000,4.57404296875,0.0006111748516559601,-0.0006089033558964729,0.00020538826356641948
1738773048022034000,4.584033935546875,-0.0003933468833565712,-0.00006844568997621536,-0.000948128814343363
1738773048032026000,4.594026123046875,0.001056478125974536,-0.0006167904939502478,-0.001899942522868514
1738773048042017000,4.60401708984375,-0.0003023154567927122,-0.0010812412947416306,-0.00046487123472616076
1738773048052008200,4.61400830078125,0.0009312606416642666,-0.0004639204125851393,0.000009704061085358262
1738773048061999000,4.6239990234375,-0.0006420455756597221,-0.00017008627764880657,0.0006777063244953752
1738773048071990000,4.633989990234375,-0.0008929153555072844,0.0008520351257175207,0.0005133892991580069
1738773048081981000,4.64398095703125,-0.0004137204377911985,-0.00004594121128320694,0.0007980490336194634
1738773048091972000,4.65397216796875,0.001125852926634252,0.0006821670103818178,-0.00010582778486423194
1738773048101963000,4.663962890625,-0.002523080911487341,-0.0013807856012135744,0.0003901277668774128
1738773048111955000,4.673954833984375,0.0005001394310966134,0.00008821394294500351,-0.00045968694030307233
1738773048121946000,4.683946044921875,0.0010598967783153057,0.0006197700276970863,-0.00040970637928694487
1738773048131937000,4.69393701171875,-0.0008940646075643599,-0.0001102022361010313,0.0005271936533972621
1738773048141928000,4.703927978515625,0.001288210740312934,0.00006696418859064579,0.0012802435085177422
1738773048151919000,4.713919189453125,0.0012935369741171598,-0.00010587484575808048,-0.000698751537129283
1738773048161910000,4.723909912109375,0.00011411518789827824,-0.001238775672391057,-0.00009238994971383363
1738773048171901000,4.73390087890625,0.0014795179013162851,-0.00029122293926775455,-0.00027668068651109934
1738773048181892000,4.74389208984375,0.00046036962885409594,-0.00006699957884848118,0.0005407219287008047
1738773048191884000,4.753884033203125,-0.000011808821000158787,-0.001006562728434801,-0.0007541069644503295
1738773048201875000,4.763875,-0.0010784808546304703,0.0005216384306550026,0.0015644810628145933
1738773048211866000,4.7738662109375,-0.000887265894562006,-0.00001019495539367199,0.00017537621897645295
1738773048221857300,4.783857177734375,0.001219079247675836,0.000009148847311735153,0.00032585131702944636
1738773048231848200,4.79384814453125,0.0001466242829337716,0.000010480638593435287,-0.00005791021976619959
1738773048241839400,4.80383935546875,-0.0000634810421615839,-0.0005206081550568342,0.0011384952813386917
1738773048251830300,4.813830322265625,0.0024396241642534733,0.0012203003279864788,0.0005267671658657491
1738773048261821200,4.8238212890625,-0.001195954973809421,0.0017623626627027988,0.00007561134407296777
1738773048271813400,4.8338134765625,0.0006014123791828752,-0.00009652390144765377,0.0013123833341524005
1738773048281804300,4.84380419921875,0.0007768085924908519,0.0004221745766699314,-0.0009970683604478836
1738773048291795200,4.853795166015625,-0.0013071148423478007,-0.0005059370305389166,-0.000641003658529371
1738773048301786000,4.8637861328125,-0.0004895212478004396,-0.0001107286661863327,0.0009069364750757813
1738773048311777300,4.87377734375,0.0005397904897108674,0.0008959462866187096,0.0011394303292036057
1738773048321768200,4.883768310546875,-0.0019523282535374165,-0.0005137801636010408,0.00047087669372558594
1738773048331759000,4.893759033203125,0.001450126408599317,0.0002345680259168148,-0.0005440539680421352
1738773048341750300,4.903750244140625,0.0004419002216309309,-0.0016320610884577036,-0.0015049031935632229
1738773048351742200,4.9137421875,-0.001411127275787294,-0.00010127597488462925,-0.00047212938079610467
1738773048361733000,4.923733154296875,0.00024687196128070354,-0.000786871649324894,-0.0010827000951394439
1738773048371724300,4.933724365234375,0.000331560499034822,0.0003742664121091366,0.0009929676307365298
1738773048381715200,4.943715087890625,0.0003642129013314843,0.0004443833604454994,0.001276778639294207
1738773048391706000,4.9537060546875,0.0001538231736049056,-0.00015935534611344337,-0.0012806550366804004
1738773048401697300,4.963697265625,-0.0007004505023360252,-0.0006373124197125435,0.00026938581140711904
1738773048411688400,4.9736884765625,-0.001622170559130609,-0.0007691388018429279,-0.00046005399781279266
1738773048421679400,4.983679443359375,-0.0010551982559263706,0.00003377581015229225,0.001062778988853097
1738773048431671300,4.99367138671875,0.00028517062310129404,0.0007951734587550163,-0.0007050272542983294
1738773048441662200,5.003662109375,0.0016117568593472242,-0.0013256138190627098,0.0010214134817942977
1738773048451653000,5.013653076171875,-0.002307350980117917,-0.00010588602162897587,-0.0006513179396279156
1738773048461644300,5.023644287109375,0.0001937513006851077,-0.0019657511729747057,0.0007524746470153332
1738773048471635500,5.033635498046875,-0.0005514011136256158,0.0008433512412011623,-0.0010728558991104364
1738773048481626400,5.04362646484375,0.0015823935391381383,-0.0010066162794828415,-0.00018244428792968392
1738773048491617300,5.0536171875,0.00008063693530857563,-0.0008321793284267187,-0.00005221572064328939
1738773048501608400,5.0636083984375,0.0006532459519803524,-0.0012062415480613708,-0.0001392036210745573
1738773048511600000,5.07360009765625,-0.0007254724623635411,-0.0004613553173840046,-0.000038269805372692645
1738773048521591300,5.08359130859375,-0.0004262835718691349,-0.0009498095605522394,0.0014005033299326897
1738773048531582500,5.09358251953125,-0.0004260172718204558,0.0006068083457648754,0.0010542923118919134
1738773048541573400,5.103573486328125,0.0007204926805570722,-0.000138408737257123,-0.00019933830481022596
1738773048551564300,5.113564208984375,0.00011675397399812937,-0.0010145886335521936,-0.0016057535540312529
1738773048561555500,5.123555419921875,0.0005470671458169818,0.000017960090190172195,0.0005213620606809855
1738773048571546400,5.13354638671875,0.001256000716239214,-0.0008893790654838085,-0.000625661457888782
1738773048581537300,5.143537353515625,0.00016875308938324451,-0.0005714562721550465,-0.0003910980303771794
1738773048591529500,5.153529541015625,-0.0013007791712880135,-0.00034695188514888287,-0.001473140437155962
1738773048601520400,5.163520263671875,-0.00009258661884814501,0.001423664391040802,0.0001236323150806129
1738773048611511300,5.17351123046875,0.0004586876602843404,-0.0007683834992349148,-0.0007221876876428723
1738773048621502500,5.18350244140625,0.0020855397451668978,0.0007284386083483696,0.0006846303585916758
1738773048631493400,5.193493408203125,-0.0003477904247120023,-0.0012915690895169973,0.00008728336251806468
1738773048641484300,5.203484375,0.0020178055856376886,0.00006172014400362968,0.00041709307697601616
1738773048651475200,5.21347509765625,-0.0006916944403201342,-0.00016251788474619389,-0.0016497861361131072
1738773048661466400,5.22346630859375,-0.00047476624604314566,0.0006146067753434181,-0.0004568751319311559
1738773048671458300,5.233458251953125,-0.0003519945312291384,-0.00016569951549172401,0.0007015999290160835
1738773048681449200,5.24344921875,0.00045792106539011,0.0013399505987763405,-0.0005430690944194794
1738773048691440400,5.2534404296875,0.00005445210263133049,-0.00010321615263819695,0.0007323187310248613
1738773048701431300,5.263431396484375,0.0003609296400099993,-0.0007141525857150555,-0.00008336093742400408
1738773048711422200,5.273422119140625,-0.00034454173874109983,0.001497069839388132,-0.001537979464046657
1738773048721413400,5.283413330078125,0.00031541555654257536,0.0005667316727340221,-0.00003439373540459201
1738773048731404300,5.293404296875,-0.00016848079394549131,0.00003596395254135132,0.00034244355629198253
1738773048741395200,5.303395263671875,0.0003029360668733716,-0.0011341606732457876,0.00011234510748181492
1738773048751387400,5.313387451171875,-0.0007439525215886533,-0.0005405419506132603,-0.00024132269027177244
1738773048761378300,5.32337841796875,-0.0006144831422716379,0.00017599435523152351,0.0005801279912702739
1738773048771369200,5.333369140625,-0.0004847872187383473,-0.0022453516721725464,-0.0005096375243738294
1738773048781360400,5.3433603515625,0.0007181783439591527,-0.0005107009783387184,-0.0002625351771712303
1738773048791351300,5.353351318359375,-0.00010180904064327478,0.00019796611741185188,-0.00040927535155788064
1738773048801342200,5.36334228515625,0.0008388039423152804,0.00019695749506354332,0.0012309252051636577
1738773048811333000,5.3733330078125,-0.0005132828373461962,0.0006217313930392265,-0.0009741722024045885
1738773048821324300,5.38332421875,0.0002558929845690727,0.00032215705141425133,0.0013135825283825397
1738773048831316200,5.393316162109375,-0.0011949972249567509,-0.0009657475166022778,0.0006070458912290633
1738773048841307400,5.403307373046875,-0.0009729423327371478,-0.0005181788001209497,0.001521552330814302
1738773048851298300,5.41329833984375,-0.0010610929457470775,-0.0005317609757184982,-0.0014934123028069735
1738773048861289200,5.423289306640625,0.0018022629665210843,-0.00006001046858727932,0.0007642692653462291
1738773048871280000,5.433280029296875,-0.0014095092192292213,0.0003711553290486336,-0.001026972895488143
1738773048881271300,5.443271240234375,-0.00012023234739899635,-0.00012513762339949608,0.00020492223848123103
1738773048891262200,5.45326220703125,-0.0007902836659923196,0.0003073597326874733,-0.0005317081231623888
1738773048901253000,5.463253173828125,-0.0014223491307348013,0.0015641055069863796,-0.0005804437678307295
1738773048911245300,5.473245361328125,-0.0014191532973200083,-0.0005925223231315613,0.0005394154577516019
1738773048921236200,5.483236328125,0.0010071615688502789,0.0007547461427748203,-0.0013622564729303122
1738773048931227100,5.49322705078125,-0.00010603980626910925,-0.0009400895796716213,-0.001067178207449615
1738773048941218300,5.50321826171875,-0.0001429625554010272,-0.001248994143679738,0.0005770798306912184
1738773048951209200,5.513209228515625,0.0002013840712606907,-0.0007624346762895584,-0.00008551467180950567
1738773048961200000,5.5232001953125,0.0001327433856204152,0.0008837450295686722,-0.001079440931789577
1738773048971191300,5.53319140625,-0.0001740527804940939,-0.001330407103523612,0.0007075401954352856
1738773048981182500,5.543182373046875,0.0007422262569889426,-0.001070086844265461,0.001092586200684309
1738773048991174100,5.553174072265625,-0.0007552693132311106,0.00031076185405254364,0.0010252082720398903
1738773049001165300,5.563165283203125,0.0009146718075498939,-0.0017678937874734402,-0.00031232996843755245
1738773049011156200,5.57315625,0.0004267806652933359,-0.0010232741478830576,0.0003465360787231475
1738773049021147100,5.583147216796875,0.0006859516724944115,-0.0001426388043910265,0.001057382207363844
1738773049031138300,5.59313818359375,-0.0007409700192511082,-0.000810293247923255,0.0007793483091518283
1738773049041129500,5.60312939453125,0.001231023925356567,0.0004597618244588375,-0.00022719819389749318
1738773049051120400,5.613120361328125,0.001350599923171103,0.002412125002592802,-0.00045836056233383715
1738773049061111300,5.623111328125,0.000052761868573725224,0.0005943833384662867,0.0009927444625645876
1738773049071103200,5.633103271484375,0.00012733042240142822,0.0006271398160606623,0.00070299266371876
1738773049081094100,5.64309423828125,0.0004043790977448225,0.001077659660950303,-0.000728046812582761
1738773049091085300,5.653085205078125,-0.0003833839436993003,0.0011519619729369879,-0.00029315261053852737
1738773049101076500,5.663076416015625,0.0008836125489324331,-0.00038926349952816963,0.0005656110588461161
1738773049111067400,5.6730673828125,0.0017898862715810537,0.0010802687611430883,-0.001150796189904213
1738773049121058300,5.683058349609375,0.00006659131031483412,-0.00017582904547452927,-0.0007647933671250939
1738773049131049500,5.693049560546875,0.0003731211181730032,0.000020179664716124535,-0.0005701162735931575
1738773049141040400,5.703040283203125,-0.00033862708369269967,-0.0013999631628394127,0.0004935936885885894
1738773049151032300,5.7130322265625,0.0008728448301553726,0.0006615896709263325,0.0008360762149095535
1738773049161023500,5.7230234375,-0.00011644407641142607,0.0007203437853604555,0.0009109522216022015
1738773049171014400,5.733014404296875,-0.0016038194298744202,-0.0000607615802437067,-0.0006555190775543451
1738773049181005300,5.74300537109375,-0.000012808828614652157,-0.0008981272112578154,-0.000035620098060462624
1738773049190996500,5.75299658203125,0.0006423287559300661,-0.000566297210752964,0.000028029455279465765
1738773049200987400,5.7629873046875,-0.00009278394281864166,-0.0007071366999298334,0.001784187974408269
1738773049210978300,5.772978271484375,0.0003128155367448926,0.0005669197998940945,0.0019048290560021996
1738773049220969200,5.78296923828125,0.001060632523149252,0.0008418324869126081,-0.0006765885045751929
1738773049230961200,5.792961181640625,0.0003458400024101138,-0.0003552583511918783,-0.00034502497874200344
1738773049240952000,5.8029521484375,-0.001158704748377204,0.0002948143519461155,0.0004430255794432014
1738773049250943200,5.812943115234375,-0.0009182213107123971,-0.000802141847088933,-0.00047390078543685377
1738773049260934100,5.82293408203125,0.0005443372065201402,-0.00030404701828956604,0.00041061340016312897
1738773049270925000,5.832925048828125,0.0001600431278347969,0.0017806754913181067,0.0005110146012157202
1738773049280916000,5.842916015625,0.0007049656705930829,0.0011646801140159369,0.0006713091861456633
1738773049290907100,5.8529072265625,-0.000048975227400660515,0.0004994224291294813,0.0004233688523527235
1738773049300898000,5.86289794921875,0.0002553624799475074,-0.0008045877330005169,-0.0005527935572899878
1738773049310890200,5.87289013671875,0.0005682839546352625,0.00121541996486485,0.0005550814094021916
1738773049320881200,5.882881103515625,0.0006043347530066967,0.00039320136420428753,0.001580985845066607
1738773049330872000,5.8928720703125,0.0004639861872419715,-0.000555416801944375,0.0001993379119085148
1738773049340863000,5.902863037109375,-0.00012777396477758884,-0.00012356159277260303,0.000550829223357141
1738773049350854100,5.912854248046875,0.00008048524614423513,-0.0010239763651043177,-0.000060898928495589644
1738773049360845000,5.922844970703125,0.0007569730514660478,0.00018715090118348598,-0.00015486030315514654
1738773049370836000,5.9328359375,0.0013444664655253291,0.00023535382933914661,-0.0008656580466777086
1738773049380827100,5.9428271484375,0.0010285614989697933,-0.001594610745087266,0.0006149556720629334
1738773049390818000,5.952818115234375,0.0012493375688791275,0.00011380692012608051,-0.0011206264607608318
1738773049400810000,5.96281005859375,0.0017722075572237372,-0.00037181517109274864,-0.0003495293785817921
1738773049410801200,5.97280126953125,0.000760206370614469,-0.000405637314543128,0.0003064072225242853
1738773049420792000,5.9827919921875,-0.00007273757364600897,-0.0004897601902484894,-0.0007195011712610722
1738773049430783000,5.992782958984375,-0.001037068199366331,-0.001384049654006958,-0.0002997869742102921
1738773049440774100,6.002774169921875,-0.0010068146511912346,-0.0007427812088280916,-0.00003139667387586087
1738773049450765000,6.01276513671875,-0.0007665975717827678,-0.0000740615651011467,0.0009997792076319456
1738773049460756000,6.022755859375,0.0012420546263456345,-0.0016823923215270042,0.0005521057755686343
1738773049470747000,6.032746826171875,-0.0013159115333110094,-0.0002719822805374861,-0.0002945131273008883
1738773049480739000,6.042739013671875,0.0008511882042512298,-0.00001692795194685459,0.000434189714724198
1738773049490730000,6.05272998046875,0.0009771558688953519,-0.0008185394108295441,-0.00009631199645809829
1738773049500721000,6.062720947265625,-0.0005675285356119275,0.0012102846521884203,0.0011354167945683002
1738773049510712000,6.072712158203125,-0.0003246482228860259,-0.000359649071469903,0.0008962649153545499
1738773049520703000,6.082702880859375,0.00008261867333203554,-0.00007386039942502975,0.0008725140942260623
1738773049530694000,6.09269384765625,-0.0015064895851537585,0.00003959052264690399,-0.0006074045668356121
1738773049540685000,6.10268505859375,-0.000012230593711137772,0.0007247552275657654,-0.0008435050840489566
1738773049550676200,6.11267626953125,-0.000705984013620764,-0.0006004336755722761,-0.00038224554737098515
1738773049560668000,6.12266796875,-0.0009301446843892336,-0.0006713136099278927,0.0002096758398693055
1738773049570659000,6.1326591796875,-0.0005362631054595113,-0.0016066159587353468,0.0005921057891100645
1738773049580650000,6.14264990234375,-0.00028323300648480654,0.00005636969581246376,-0.00038210657658055425
1738773049590641000,6.152640869140625,-0.0015381145058199763,0.00010244222357869148,-0.00030860333936288953
1738773049600632000,6.162632080078125,-0.0010432344861328602,0.00011955201625823975,0.0003684197145048529
1738773049610623200,6.172623291015625,-0.00041233160300180316,-0.0014594362583011389,-0.0009290723828598857
1738773049620614100,6.1826142578125,-0.0007098227506503463,0.0014177910052239895,-0.000457256130175665
1738773049630605000,6.19260498046875,0.0002593016251921654,-0.00047252094373106956,0.0017715434078127146
1738773049640597000,6.202596923828125,0.0005080723203718662,-0.0010882839560508728,-0.0033153484109789133
1738773049650588200,6.212588134765625,-0.0009540030732750893,0.0008680738974362612,0.00033185057691298425
1738773049660579000,6.2225791015625,0.0002498156391084194,-0.000021886778995394707,0.0008932871278375387
1738773049670570200,6.2325703125,-0.00043301889672875404,0.0006212666630744934,-0.001129383803345263
1738773049680561200,6.24256103515625,0.0006994792493060231,-0.0003579091280698776,0.0006843566661700606
1738773049690552000,6.252552001953125,0.0006502107717096806,0.0009760684333741665,-0.00014069066673982888
1738773049700543200,6.262543212890625,0.0007680869894102216,0.000005262438207864761,0.00001532606256660074
1738773049710534100,6.2725341796875,0.00012866209726780653,0.0010777176357805729,0.0003394327941350639
1738773049720526000,6.282526123046875,-0.002015726175159216,0.00045474059879779816,0.0008628834038972855
1738773049730517200,6.292517333984375,-0.0015099917072802782,-0.0009452831000089645,0.0011845933040603995
1738773049740508200,6.302508056640625,0.0011057353112846613,0.0009165923111140728,-0.0006739078089594841
1738773049750499000,6.3124990234375,0.00002608983777463436,0.0014958297833800316,0.000198011111933738
1738773049760490200,6.322490234375,0.0011934831272810698,0.001870612846687436,0.0012250341242179275
1738773049770481200,6.332481201171875,-0.00045288301771506667,-0.0010351620148867369,0.0014119880506768823
1738773049780472000,6.34247216796875,0.001260858029127121,-0.00007456028833985329,0.0003650603466667235
1738773049790463000,6.352462890625,-0.0008712687995284796,-0.0004077218472957611,-0.0011404246324673295
1738773049800455200,6.362455078125,0.0008333277655765414,0.00009473203681409359,-0.00024402578128501773
1738773049810446000,6.372446044921875,0.0009758068481460214,-0.00033057481050491333,0.000573298311792314
1738773049820437200,6.382437255859375,-0.000004010507836937904,-0.00011975620873272419,0.00019551700097508729
1738773049830428200,6.39242822265625,0.0006031902739778161,-0.0010859512258321047,0.0005779468920081854
1738773049840419000,6.402419189453125,0.00032879167702049017,0.0016160677187144756,0.0009732347098179162
1738773049850410000,6.412409912109375,0.0008212100947275758,-0.0002436176873743534,0.0002685622894205153
1738773049860401200,6.422401123046875,0.001947831828147173,0.00067719048820436,-0.0004797045548912138
1738773049870392000,6.43239208984375,0.0014932302292436361,-0.0004645066801458597,0.00017969412147067487
1738773049880384000,6.442384033203125,0.0003118028398603201,-0.0005304887890815735,0.0005829234723933041
1738773049890375200,6.452375244140625,0.0004665324231609702,0.0008074832148849964,0.0011858631623908877
1738773049900366000,6.462365966796875,0.0009201592765748501,-0.0006312448531389236,0.0008703143103048205
1738773049910357000,6.47235693359375,0.00036169448867440224,-0.00039741932414472103,0.0010876281885430217
1738773049920348200,6.48234814453125,0.0006601503118872643,-0.0005995186511427164,0.000550307217054069
1738773049930339000,6.492339111328125,-0.0021417615935206413,0.0001943698152899742,-0.0012739581288769841
1738773049940330000,6.502330078125,0.0001247867476195097,0.0007727069314569235,-0.0003127926611341536
1738773049950321200,6.512321044921875,0.00009788887109607458,-0.0005540798883885145,0.0010528763523325324
1738773049960313000,6.52231298828125,0.0011298240860924125,0.00008312310092151165,0.0009200912900269032
1738773049970304000,6.532303955078125,0.0004448590334504843,-0.000695585273206234,-0.0002759343769866973
1738773049980295200,6.542295166015625,0.0008864409755915403,-0.00033977185375988483,0.00008166249608621001
1738773049990286000,6.5522861328125,0.00015487067867070436,-0.00017518852837383747,-0.00016973989841062576
1738773050000277000,6.562277099609375,-0.000590566429309547,0.0006076032295823097,-0.0003527429944369942
1738773050010268000,6.572267822265625,-0.0008528877515345812,-0.0009580694604665041,0.0013878990430384874
1738773050020259000,6.582259033203125,-0.0001009248080663383,0.0006544417701661587,-0.0013902571517974138
1738773050030250000,6.59225,0.00020667025819420815,-0.0003242699895054102,0.000525088282302022
1738773050040242200,6.6022421875,-0.000367451342754066,0.00037185708060860634,-0.0009697830537334085
1738773050050233000,6.612233154296875,-0.0002617238787934184,0.0003500189632177353,0.0003580690536182374
1738773050060224000,6.62222412109375,0.0019279754487797618,-0.00012301094830036163,0.00046018484863452613
1738773050070215000,6.63221484375,0.0009213004959747195,0.0005781990475952625,-0.0008929673349484801
1738773050080206000,6.6422060546875,-0.00007600936805829406,0.0016440057661384344,-0.0004589310847222805
1738773050090197000,6.652197021484375,0.0007919148774817586,0.00037847203202545643,-0.0000669137662043795
1738773050100188000,6.66218798828125,-0.0017266839276999235,0.0009274273179471493,0.00021113254479132593
1738773050110179000,6.672178955078125,0.0012858840636909008,0.0016344967298209667,0.00045188231160864234
1738773050120171000,6.6821708984375,0.0014808070845901966,-0.00030845217406749725,0.0009958059526979923
1738773050130162000,6.692161865234375,0.000056015909649431705,0.0011735970620065928,-0.0005767907714471221
1738773050140153000,6.702153076171875,-0.0003963093040511012,0.001334133092314005,0.002384377643465996
1738773050150144000,6.71214404296875,-0.0020573227666318417,0.0017005843110382557,0.00042748666601255536
1738773050160135000,6.722135009765625,-0.00012372841592878103,-0.00027904543094336987,-0.0005471205804497004
1738773050170126000,6.7321259765625,0.00018040451686829329,0.001244282815605402,0.0014510491164401174
1738773050180117200,6.7421171875,0.00026508839800953865,-0.00007802154868841171,-0.0003604561497922987
1738773050190108200,6.752108154296875,0.0004917234182357788,-0.00036164838820695877,-0.0011026791762560606
1738773050200100000,6.76210009765625,0.0008246916113421321,-0.0006219390779733658,0.0016196371288970113
1738773050210091000,6.772091064453125,0.0003682258538901806,-0.0007537654601037502,-0.0004802654148079455
1738773050220082000,6.78208203125,0.0012671048752963543,0.00013916683383286,0.0001741705636959523
1738773050230073000,6.792072998046875,0.000664431368932128,0.00027365656569600105,0.00025592962629161775
1738773050240064300,6.802064208984375,-0.0000881347805261612,0.0012852009385824203,-0.00009337055962532759
1738773050250055400,6.812055419921875,0.0018357328372076154,0.00039330823346972466,0.00046482798643410206
1738773050260046300,6.82204638671875,-0.0010089705465361476,0.0008594843093305826,0.000754644104745239
1738773050270037200,6.832037353515625,0.001295729074627161,-0.00039912573993206024,0.0008830084116198123
1738773050280029200,6.842029296875,0.000419319374486804,0.0007411716505885124,0.00205408176407218
1738773050290020400,6.852020263671875,0.0006880322471261024,0.00031506549566984177,0.000040998333133757114
1738773050300011500,6.862011474609375,0.0001560230739414692,-0.000774571904912591,-0.0001055510074365884
1738773050310002400,6.87200244140625,0.0014135678065940738,0.0010888418182730675,0.000982882920652628
1738773050319993300,6.881993408203125,0.0009546342771500349,0.0014674023259431124,0.00021193717839196324
1738773050329984300,6.891984375,0.0008731414563953876,-0.00099282618612051,0.0008907769224606454
1738773050339975400,6.901975341796875,0.0014061247929930687,0.0004820525646209717,-0.0006446365150623024
1738773050349966300,6.91196630859375,0.000707311206497252,0.0007923110388219357,-0.00109870545566082
1738773050359958500,6.92195849609375,0.00010035908780992031,-0.002362883882597089,0.0009540386963635683
1738773050369949400,6.931949462890625,0.00004682957660406828,-0.0006179807242006063,0.0002357842167839408
1738773050379940400,6.9419404296875,-0.0002602591994218528,-0.000540073262527585,-0.0007638981333002448
1738773050389931300,6.95193115234375,0.0007171209435909986,-0.00009905360639095306,-0.0008741529891267419
1738773050399922400,6.96192236328125,-0.00038418121403083205,0.0016904377844184637,-0.0010810126550495625
1738773050409913300,6.971913330078125,0.000047250883653759956,0.00004886533133685589,-0.0005827352870255709
1738773050419904300,6.981904296875,-0.00002279062755405903,0.0020495799835771322,0.0005426113493740559
1738773050429895400,6.9918955078125,0.001051262253895402,0.0008114760275930166,-0.0010076146572828293
1738773050439887400,7.001887451171875,-0.0004504823009483516,0.0002065766602754593,0.0004617787490133196
1738773050449878300,7.011878173828125,-0.00007763976464048028,0.0002225555945187807,0.00013607411528937519
1738773050459869400,7.021869384765625,0.0022071534767746925,-0.000016922131180763245,0.00039726204704493284
1738773050469860400,7.0318603515625,0.00022309855557978153,-0.0001487485133111477,-0.00016626283468212932
1738773050479851300,7.041851318359375,0.00010958523489534855,0.0024274708703160286,-0.0004402574268169701
1738773050489842200,7.05184228515625,0.0006443479796871543,-0.0003877566196024418,-0.0003363941505085677
1738773050499833300,7.061833251953125,-0.00037017144495621324,-0.00019379588775336742,-0.0011230729287490249
1738773050509824300,7.07182421875,-0.00033155560959130526,0.0020967889577150345,-0.0007925746031105518
1738773050519816400,7.08181640625,0.0005629475926980376,-0.00010036863386631012,-0.0013799547450616956
1738773050529807400,7.091807373046875,0.0006154117872938514,-0.0012378047686070204,-0.0006574391154572368
1738773050539798300,7.10179833984375,-0.0007275145035237074,0.0005425857380032539,-0.0008850188460201025
1738773050549789200,7.1117890625,0.00049061537720263,0.0008938563987612724,-0.000809385091997683
1738773050559780400,7.1217802734375,-0.0007606195285916328,-0.0007808157242834568,0.0006684364634566009
1738773050569771300,7.131771240234375,-0.0006120151374489069,0.0006703406106680632,0.0004503235686570406
1738773050579762200,7.14176220703125,-0.0032532275654375553,-0.0006051117088645697,-0.0003002739977091551
1738773050589753300,7.15175341796875,0.00007332686800509691,0.0005349875427782536,-0.0001431474811397493
1738773050599745300,7.161745361328125,-0.00013009575195610523,-0.0012996168807148933,0.0004747630446217954
1738773050609736200,7.171736083984375,-0.00012263900134712458,-0.0008852288592606783,0.00016130896983668208
1738773050619727400,7.181727294921875,-0.0022323497105389833,-0.00012560631148517132,-0.0005796372424811125
1738773050629718300,7.19171826171875,-0.00016839982708916068,-0.0005146942567080259,0.0005663209594786167
1738773050639709200,7.201709228515625,-0.0018779505044221878,-0.00003078370355069637,-0.0010547887068241835
1738773050649700400,7.211700439453125,0.00007734238170087337,0.00021662376821041107,-0.0004318753781262785
1738773050659691300,7.221691162109375,-0.0005638468428514898,0.00034174323081970215,-0.0006746342987753451
1738773050669682200,7.23168212890625,0.0015853241784498096,-0.000308068236336112,-0.0012597307795658708
1738773050679674400,7.24167431640625,-0.0009026204934343696,0.00014432473108172417,0.00008815844194032252
1738773050689665300,7.251665283203125,-0.0009769226890057325,-0.0005422381218522787,-0.0012135946890339255
1738773050699656200,7.26165625,-0.0010885309893637896,0.0006246129050850868,0.001645487267524004
1738773050709647000,7.271647216796875,-0.0008581675356253982,0.0004776064306497574,-0.0020049074664711952
1738773050719638300,7.28163818359375,-0.0013088362757116556,-0.0019727125763893127,0.0005823888932354748
1738773050729629200,7.291629150390625,-0.000137844355776906,-0.00024618511088192463,0.0005975689273327589
1738773050739620000,7.3016201171875,0.001209050533361733,0.0005361516959965229,-0.0006036274135112762
1738773050749611300,7.311611328125,-0.0011241449974477291,-0.000607409980148077,0.0010427386732771993
1738773050759603200,7.321603271484375,0.0009117831941694021,0.0003464627079665661,-0.0002177426649723202
1738773050769594000,7.331593994140625,-0.00023816979955881834,-0.0007941690273582935,0.0006523120682686567
1738773050779585300,7.341585205078125,0.0003102374030277133,0.00002224859781563282,-0.0002296064922120422
1738773050789576200,7.351576171875,0.002385638654232025,0.0005506197921931744,0.0004947732668370008
1738773050799567000,7.361567138671875,-0.000054560950957238674,0.0000588900875300169,-0.0007898164913058281
1738773050809558300,7.371558349609375,-0.00014084740541875362,-0.000487856799736619,-0.00029260432347655296
1738773050819549400,7.381549560546875,6.533227860927582e-7,0.0002719098702073097,-0.0001834165013860911
1738773050829540400,7.391540283203125,0.002000420819967985,0.00041785091161727905,-0.00039753466262482107
1738773050839532300,7.4015322265625,0.0008662333711981773,-0.0006848450284451246,-0.0002034787175944075
1738773050849523200,7.411523193359375,-0.0022885471116751432,0.00003767036832869053,-0.0005563475424423814
1738773050859514000,7.42151416015625,-0.0001986072165891528,0.0001384057104587555,0.0005044321296736598
1738773050869505300,7.43150537109375,-0.00009900506120175123,-0.0012746676802635193,-0.00017547287279739976
1738773050879496400,7.441496337890625,-0.0007655449444428086,-0.0005623199976980686,-0.0005613081157207489
1738773050889487400,7.4514873046875,0.0009543244959786534,0.0008416983764618635,0.0011894539929926395
1738773050899478300,7.461478271484375,0.0008339340565726161,-0.00035896291956305504,0.0001677983091212809
1738773050909469400,7.471469482421875,-0.0005767424590885639,0.0002855223137885332,0.0003608774859458208
1738773050919461400,7.48146142578125,0.00039968860801309347,-0.00017833290621638298,0.00046711412142030895
1738773050929452300,7.491452392578125,-0.0005880778189748526,0.0004248728509992361,0.001119854860007763
1738773050939443500,7.501443359375,0.00032814883161336184,-0.00019261310808360577,0.001689130556769669
1738773050949434400,7.511434326171875,0.00027674983721226454,0.0012644021771848202,0.00023637618869543076
1738773050959425300,7.52142529296875,-0.0002730005653575063,-0.00007085734978318214,-0.0003540568286553025
1738773050969416400,7.53141650390625,-0.0005145492614246905,-0.000766741344705224,-0.0004816222353838384
1738773050979407400,7.541407470703125,-0.00025982328224927187,0.000034692464396357536,0.001122975954785943
1738773050989398300,7.551398193359375,-0.0009200208587571979,0.000564927700906992,0.0006622491055168211
1738773050999390500,7.561390380859375,-0.0011830395087599754,0.0005562626756727695,-0.000445012585259974
1738773051009381400,7.57138134765625,-0.0003151153214275837,-0.0008956927340477705,-0.0009550079703330994
1738773051019372300,7.581372314453125,-0.0020000229123979807,0.0006774079520255327,0.0008325514500029385
1738773051029363500,7.591363525390625,-0.000057246885262429714,0.0001466402318328619,-0.0003727952716872096
1738773051039354400,7.601354248046875,0.0015604665968567133,0.0008542872965335846,0.0001864977239165455
1738773051049345300,7.61134521484375,-0.00006352912168949842,0.0000068694353103637695,-0.000515777850523591
1738773051059336200,7.621336181640625,-0.00046275852946564555,-0.00045001297257840633,-0.0011724327923730016
1738773051069327400,7.631327392578125,0.00008585269097238779,0.0010075350292026997,-0.0004065076936967671
1738773051079319300,7.6413193359375,0.00011673395056277514,0.00015449686907231808,-0.0004694529343396425
1738773051089310500,7.651310546875,-0.00014345685485750437,0.0011694275308400393,-0.00118824013043195
1738773051099301400,7.66130126953125,-0.00023636373225599527,0.0012453971430659294,0.0009038965799845755
1738773051109292300,7.671292236328125,-0.0005167946219444275,-0.00037007639184594154,-0.0000444551114924252
1738773051119283200,7.681283203125,-0.0015629208646714687,-0.00017167278565466404,0.0011129174381494522
1738773051129274400,7.6912744140625,0.00047626160085201263,0.0006754789501428604,-0.0010085566900670528
1738773051139265300,7.701265380859375,0.000551266479305923,0.0014937189407646656,0.0008564865565858781
1738773051149256200,7.711256103515625,-0.0009664690587669611,0.000553889200091362,0.0006093452102504671
1738773051159248400,7.721248291015625,-0.0006249994621612132,-0.00028455303981900215,-0.00011066271690651774
1738773051169239300,7.7312392578125,0.00010124454274773598,0.00013622641563415527,0.0002858819789253175
1738773051179230200,7.741230224609375,-0.0002469508908689022,0.0009844070300459862,0.000716790440492332
1738773051189221400,7.751221435546875,-0.0003321720287203789,0.0007833386771380901,-0.001115730730816722
1738773051199212300,7.76121240234375,-0.0008690404938533902,-0.0008591532241553068,-0.0015108329243957996
1738773051209203200,7.771203125,0.0004729264182969928,-0.0009289281442761421,0.0011374144814908504
1738773051219194000,7.781194091796875,0.0002822608221322298,0.00023312214761972427,-0.0006999806500971317
1738773051229187000,7.79118701171875,-0.000016279518604278564,-0.00028859125450253487,-0.0005846658023074269
1738773051239179000,7.801178955078125,-0.0007721406873315573,-0.0003119194880127907,0.00022542518854606897
1738773051249170000,7.811169921875,-0.00012925360351800919,0.001654292456805706,-0.00040174927562475204
1738773051259161000,7.8211611328125,-0.00039177550934255123,0.00006230967119336128,-0.0003911326639354229
1738773051269152000,7.831152099609375,0.0016516681062057614,-0.0008610084187239408,-0.00013333867536857724
1738773051279143000,7.841142822265625,0.0001257471740245819,0.0008514237124472857,-0.0014467069413512945
1738773051289134000,7.851134033203125,0.0012772980844601989,-0.0008109214249998331,0.001089687692001462
1738773051299125000,7.861125,0.001076950691640377,-0.0009930150117725134,-0.0004176883085165173
1738773051309116000,7.871115966796875,-0.001377152162604034,-0.0014486818108707666,0.0001572881592437625
1738773051319108000,7.881108154296875,0.0005622083554044366,0.0004264179151505232,-0.0011877374490723014
1738773051329099000,7.89109912109375,0.0017079003155231476,0.001538820331916213,-0.0001789319794625044
1738773051339090000,7.90108984375,0.0004033950390294194,-0.0006666397675871849,-0.0011628108331933618
1738773051349080800,7.911080810546875,0.0003847528714686632,-0.00022056023590266705,0.0020039540249854326
1738773051359072000,7.921072021484375,-0.00010907207615673542,0.000616755336523056,0.0005106708267703652
1738773051369063000,7.93106298828125,0.0007351498352363706,0.0005658888258039951,-0.00005525090091396123
1738773051379053800,7.9410537109375,0.00011709006503224373,0.0004268442280590534,0.0005642730975523591
1738773051389045000,7.951044921875,0.0008313499856740236,-0.00065413280390203,0.00018956631538458169
1738773051399037000,7.961036865234375,0.0008165787439793348,0.0007264649029821157,0.0007794132106937468
1738773051409027800,7.97102783203125,-0.00012112024705857038,-0.00013267085887491703,-0.0002504311560187489
1738773051419019000,7.98101904296875,0.0011705089127644897,0.0010422407649457455,-0.0009215347236022353
1738773051429010000,7.991010009765625,0.002076516393572092,-0.00045871688053011894,0.0000971243716776371
1738773051439000800,8.001000732421875,-0.0009153797291219234,0.0010789385996758938,5.80010237172246e-7
1738773051448992000,8.010991943359375,-0.00034200120717287064,0.0013995831832289696,0.00031909404788166285
1738773051458983000,8.02098291015625,-0.0009206988615915179,0.00034442683681845665,0.001105517614632845
1738773051468973800,8.030973876953125,0.00043511646799743176,-0.0005357479676604271,0.00016409019008278847
1738773051478966000,8.040966064453125,0.0013152722967788577,0.00022076675668358803,-0.0010702618164941669
1738773051488957000,8.05095703125,0.00015333527699112892,0.0009691151790320873,-0.00028462926275096834
1738773051498947800,8.06094775390625,-0.0011453788029029965,0.0013350960798561573,-0.0008396857883781195
1738773051508939000,8.07093896484375,-0.0002090113703161478,-0.00014349096454679966,-0.0007645846344530582
1738773051518930000,8.080929931640625,-0.0011946252780035138,-0.0004455363377928734,-0.00019785197218880057
1738773051528920800,8.0909208984375,0.0005028736777603626,0.0006149346008896828,-0.0003259500372223556
1738773051538911700,8.100911865234375,-0.00023176893591880798,0.0010649978648871183,-0.0006892087403684855
1738773051548903000,8.11090283203125,-0.0009369739564135671,0.00006764428690075874,-0.00027348933508619666
1738773051558893800,8.120893798828124,0.00019958603661507368,0.0014741688501089811,0.0006405599415302277
1738773051568885800,8.1308857421875,0.0004571136087179184,0.0009545858483761549,-0.0010100672952830791
1738773051578877000,8.140876953125,-0.000036838348023593426,0.0012190998531877995,-0.0010247941827401519
1738773051588867800,8.150867919921875,-0.0007601528777740896,-0.0004411148838698864,-0.0002498143003322184
1738773051598858800,8.160858642578125,-0.0009806444868445396,0.0016182330437004566,-0.001318901195190847
1738773051608850000,8.170849853515625,-0.00041845120722427964,-0.00016182358376681805,-0.000423280056566
1738773051618840800,8.1808408203125,0.0010378696024417877,0.000013888813555240631,-0.0003668724384624511
1738773051628831700,8.190831787109374,0.000028265174478292465,0.000607773894444108,-0.001367688411846757
1738773051638823000,8.200822998046876,0.00013099343050271273,0.00012509245425462723,-0.00033211574191227555
1738773051648814800,8.21081494140625,0.00016987556591629982,-0.00030154595151543617,0.0008604478207416832
1738773051658805800,8.2208056640625,0.0004097998607903719,-0.0020824349485337734,0.00017959834076464176
1738773051668797000,8.230796875,0.0008263183990493417,0.0006022974848747253,0.0004893239238299429
1738773051678787800,8.240787841796875,-0.0005509187467396259,-0.0009555635042488575,0.0006454613176174462
1738773051688778800,8.25077880859375,-0.00042521749855950475,-0.0004453016445040703,0.00046889367513358593
1738773051698770000,8.26077001953125,-0.0003938509617000818,0.0018182620406150818,-0.0006351454649120569
1738773051708761000,8.270760986328124,-0.00015789491590112448,-0.0017394546885043383,0.001351838931441307
1738773051718752000,8.280751953125,-0.0012085099006071687,-0.000957585172727704,-0.001218038727529347
1738773051728744000,8.290743896484376,-0.0006335334037430584,0.0012648229021579027,-0.0014396136393770576
1738773051738734800,8.30073486328125,0.00026714883279055357,0.00011807330884039402,0.00020251699606887996
1738773051748726000,8.31072607421875,0.0006359966937452555,-0.00019298400729894638,-0.00015940658340696245
1738773051758717000,8.320717041015625,-0.0011793402954936028,-0.0006365533918142319,0.00025935095618478954
1738773051768708000,8.3307080078125,-0.0005044952849857509,-0.0011164548341184855,0.000016736972611397505
1738773051778699000,8.340698974609374,-0.0008540285052731633,0.00045640976168215275,0.00014229008229449391
1738773051788690000,8.35068994140625,0.0001957896165549755,-0.00031297747045755386,-0.0005682412884198129
1738773051798681000,8.36068115234375,8.00006091594696e-7,0.0009301113896071911,0.0005391178419813514
1738773051808673000,8.370673095703125,0.00040639948565512896,0.0007056072354316711,0.00032073864713311195
1738773051818664000,8.380663818359375,-0.0024354830384254456,-0.0007000493351370096,0.0003252000315114856
1738773051828655000,8.390655029296875,-0.0016863357741385698,0.00027147168293595314,-0.0002769407001323998
1738773051838646000,8.40064599609375,0.0008409579750150442,-0.000359969912096858,-0.0002613612450659275
1738773051848637000,8.410636962890624,-0.001144428737461567,-0.000002041226252913475,-0.0004999804659746587
1738773051858628000,8.420628173828124,-0.0009862317238003016,0.0012516113929450512,-0.0011573444353416562
1738773051868619000,8.430618896484376,-0.0016312493244186044,0.0007794327102601528,-0.002043378073722124
1738773051878610000,8.44060986328125,0.00018135295249521732,0.0011007189750671387,-0.00022056684247218072
1738773051888602000,8.45060205078125,-0.0002503454452380538,-0.0010218205861747265,0.0003160600899718702
1738773051898593000,8.460593017578125,-0.00018299371004104614,-0.000028257258236408234,-0.000593542936258018
1738773051908584000,8.470583984375,0.0001528308494016528,-0.0010442531201988459,0.00030447496101260185
1738773051918574800,8.480574951171874,-0.0005138118285685778,0.0007046479731798172,0.00008780031930655241
1738773051928566000,8.49056591796875,-0.0001731935190036893,0.0005272817797958851,0.0007746295304968953
1738773051938557000,8.500556884765626,-0.00021191465202718973,0.0008882360998541117,-0.0010789672378450632
1738773051948547800,8.5105478515625,0.00033243547659367323,0.0006027452182024717,-0.0004387432709336281
1738773051958539000,8.5205390625,-0.0006718841032125056,0.0003194953314960003,-0.0007393182022497058
1738773051968531000,8.530531005859375,-0.0005741460481658578,-0.000059206271544098854,-0.0009124237112700939
1738773051978521900,8.54052197265625,0.00051632069516927,0.0005784807726740837,-0.0006001192377880216
1738773051988513000,8.550512939453125,-0.00010632630437612534,-0.0014138298574835062,0.00001800042809918523
1738773051998504000,8.56050390625,0.0005081068957224488,0.0003862560261040926,-0.00006964022759348154
1738773052008494800,8.570494873046876,0.0009579147445037961,0.00005336105823516846,0.0019114853348582983
1738773052018486000,8.580486083984376,0.00098580087069422,-0.0010285531170666218,-0.00015987361257430166
1738773052028477000,8.590476806640625,-0.0006959852762520313,-0.00018513016402721405,0.0003381374990567565
1738773052038467800,8.6004677734375,-0.00017381832003593445,0.0007430468685925007,0.0007910424028523266
1738773052048458800,8.610458740234375,-0.00021749408915638924,-0.00010383827611804008,0.000985719496384263
1738773052058451000,8.620450927734375,-0.0006993351271376014,0.0002913498319685459,-0.0006865226314403117
1738773052068441900,8.63044189453125,-0.0008657827274873853,0.0007326356135308743,-0.0008545680902898312
1738773052078432800,8.640432861328126,-0.0014763890067115426,-0.000043516745790839195,-0.0001363404153380543
1738773052088424000,8.650423828125,-0.00015093374531716108,0.00018844450823962688,0.00027485162718221545
1738773052098414800,8.660414794921875,0.00041054433677345514,-0.0007843035273253918,0.000850892742164433
1738773052108405800,8.67040576171875,-0.0007202338892966509,-0.00007323967292904854,-0.0004308867210056633
1738773052118397000,8.68039697265625,0.0010004639625549316,-0.0003330970648676157,0.0007602068944834173
1738773052128387800,8.690387939453124,0.0010915440507233143,0.0009137948509305716,-0.00011304361396469176
1738773052138379800,8.7003798828125,-0.0009803685825318098,0.0005863525439053774,-0.0011729779653251171
1738773052148371000,8.710370849609374,0.00010833167470991611,-0.0008437647484242916,0.0009788561146706343
1738773052158361900,8.72036181640625,0.0001664013834670186,0.0006003447342664003,-0.0006178676267154515
1738773052168352800,8.730352783203125,-0.0002956570824608207,0.0011228572111576796,-0.0003606062673497945
1738773052178344000,8.740343994140625,0.00087238650303334,-0.0008374177850782871,-0.0014577507972717285
1738773052188334800,8.7503349609375,-0.00010659149847924709,0.0002472875639796257,0.0005854264018125832
1738773052198325800,8.76032568359375,0.00008256628643721342,0.0005012503825128078,-0.0004851437988691032
1738773052208317000,8.77031689453125,-0.00026231317315250635,-0.00026387604884803295,-0.0007527914713136852
1738773052218308900,8.780308837890624,0.0007263438310474157,0.00046915956772863865,0.00005311699351295829
1738773052228297700,8.790297607421875,0.0012448611669242382,0.00009045819751918316,-0.0006254564505070448
1738773052238289000,8.800288818359375,-0.000015262048691511154,0.00016255490481853485,-0.00001819198951125145
1738773052248279800,8.81027978515625,-0.0005055500078015029,0.0004935860633850098,0.0007189709576778114
1738773052258270700,8.820270751953124,0.0006824862211942673,-0.001173463650047779,0.0006053141551092267
1738773052268262000,8.830261962890624,-0.0003726581926457584,0.000424965750426054,0.0007347437785938382
1738773052278252800,8.840252685546876,0.0008061478147283196,-0.0003008272033184767,0.00004514202009886503
1738773052288243700,8.85024365234375,-0.0008039993699640036,-0.00004037003964185715,-0.00011171816731803119
1738773052298236000,8.86023583984375,-0.000677253701724112,-0.00031047454103827477,0.00019347580382600427
1738773052308226800,8.870226806640625,-0.0011422416428104043,-0.0006665391847491264,-0.00042118175770156085
1738773052318217700,8.8802177734375,-0.0002323663793504238,-0.00001102476380765438,-0.000860797765199095
1738773052328208600,8.890208740234375,-0.0014928404707461596,0.0014153644442558289,0.0007869000546634197
1738773052338199800,8.90019970703125,-0.00029901787638664246,-0.00015377742238342762,0.00038709596265107393
1738773052348190700,8.910190673828126,-0.002311302348971367,-0.00042861560359597206,-0.0017117413226515055
1738773052358181600,8.920181640625,0.0005579347489401698,0.001754766795784235,-0.00006210664287209511
1738773052368172800,8.9301728515625,-0.00027297157794237137,-0.0009419501293450594,0.00014269043458625674
1738773052378163700,8.940163818359375,-0.00210123835131526,0.00023135612718760967,-0.00029209780041128397
1738773052388155600,8.95015576171875,-0.0002577981213107705,-0.0009609409607946873,-0.00007425123476423323
1738773052398146800,8.960146728515625,-0.0006689709844067693,-0.0014019517693668604,-0.000692190951667726
1738773052408137700,8.9701376953125,-0.00005351449362933636,-0.0014426982961595058,0.0010649627074599266
1738773052418128600,8.980128662109376,-0.00021446403115987778,0.0007259862031787634,0.00044502626406028867
1738773052428119800,8.990119873046876,0.00037569249980151653,0.0005598051939159632,0.0002900303225032985
1738773052438110700,9.00011083984375,-0.0018279484938830137,-0.00043178116902709007,-0.000005914800567552447
1738773052448101600,9.0101015625,0.0007979281945154071,-0.00034762523137032986,-0.0001957981730811298
1738773052458092800,9.0200927734375,0.0013426643563434482,-0.0010654584039002657,-0.000014825083781033754
1738773052468084700,9.030084716796875,0.001255845301784575,0.000459467526525259,-0.00008779569179750979
1738773052478075600,9.04007568359375,-0.00002748903352767229,-0.00043953070417046547,0.001460062456317246
1738773052488066600,9.050066650390624,0.0009091447573155165,0.00013011926785111427,0.0000065092172008007765
1738773052498057700,9.0600576171875,-0.0007516852929256856,-0.0015837026294320822,-0.0005170267540961504
1738773052508049000,9.070048828125,-0.00030640477780252695,0.0004951609298586845,0.001372752245515585
1738773052518039800,9.080039794921875,-0.0008466765284538269,-0.0006238243076950312,-0.00044819971662946045
1738773052528031000,9.090031005859375,-0.0007116542547009885,0.0007823246996849775,-0.0012410227209329605
1738773052538022000,9.10002197265625,0.0003699313383549452,0.0003712845500558615,-0.0008128975750878453
1738773052548013600,9.110013671875,0.0015124274650588632,0.00020004319958388805,-0.00072288274532184
1738773052558004700,9.120004638671874,-0.000125961028970778,-0.0005995188839733601,-0.00015759396774228662
1738773052567996000,9.129995849609376,-0.00010891677811741829,0.0017544492147862911,-0.0005320344353094697
1738773052577986800,9.13998681640625,0.00009337626397609711,0.0007584569975733757,0.0008476456860080361
1738773052587978000,9.14997802734375,0.0005394556792452931,-0.001174465287476778,-0.00018326395365875214
1738773052597969000,9.159968994140625,0.00008271820843219757,0.0006467325147241354,0.00007931483560241759
1738773052607959800,9.169959716796875,-0.00028692849446088076,0.00026749842800199986,0.0000066105276346206665
1738773052617950700,9.17995068359375,-0.00020202109590172768,-0.00029571447521448135,0.0005955124506726861
1738773052627942000,9.18994189453125,-0.0010041652712970972,-0.0008166285697370768,0.001097784610465169
1738773052637933800,9.199933837890624,0.0005940906703472137,-0.0005689053796231747,-0.0006076859426684678
1738773052647925000,9.209925048828126,-0.0003326893784105778,0.0017501753754913807,-0.00005534634692594409
1738773052657916000,9.219916015625,-0.00003168429248034954,0.0007552159950137138,0.000818655826151371
1738773052667906800,9.22990673828125,0.0005637984722852707,0.0009805192239582539,-0.0007518102647736669
1738773052677897700,9.239897705078125,-0.00023969635367393494,-0.000841126311570406,-0.000060947699239477515
1738773052687889000,9.249888916015625,-0.0012263975804671645,-0.00031861430034041405,-0.00023405315005220473
1738773052697879800,9.2598798828125,0.0010633195051923394,0.00035146670415997505,0.0009015638497658074
1738773052707870700,9.26987060546875,-0.0016049016267061234,-0.001026719342917204,-0.0004630398179870099
1738773052717863000,9.27986279296875,-0.0009858321864157915,-0.0011453968472778797,0.000345442327670753
1738773052727853800,9.289853759765625,-0.0010012785205617547,0.00008551613427698612,-0.0004628270398825407
1738773052737844700,9.2998447265625,0.0002198374131694436,-0.0012069321237504482,-0.0006584420334547758
1738773052747836000,9.3098359375,-0.0003998802276328206,-0.0007725704926997423,0.0012505118502303958
1738773052757826800,9.319826904296875,0.00018160417675971985,0.0005952296778559685,-0.0010127524146810174
1738773052767817700,9.329817626953124,-0.0008066948503255844,-0.0018298448994755745,-0.0013634907081723213
1738773052777809000,9.339808837890626,0.0004162207478657365,-0.0013606417924165726,-0.0020008189603686333
1738773052787799800,9.3497998046875,0.0011038489174097776,0.0011738883331418037,-0.00022955043823458254
1738773052797791700,9.359791748046876,0.00013079436030238867,0.0001710713841021061,-0.0016877629095688462
1738773052807783000,9.369782958984375,0.0009806089801713824,0.000060549937188625336,0.0002238541783299297
1738773052817773800,9.37977392578125,0.00005807809066027403,-0.000596602912992239,-0.0005004795384593308
1738773052827764700,9.3897646484375,0.000736118876375258,0.0008974303491413593,-0.001661617774516344
1738773052837755600,9.399755615234374,-0.00016574817709624767,-0.0005217615980654955,-0.0010325678158551455
1738773052847746800,9.409746826171874,0.0007274760864675045,0.0005368448328226805,0.00017943684360943735
1738773052857737700,9.41973779296875,0.00047029973939061165,-0.00032203015871345997,0.001600158168002963
1738773052867728600,9.429728759765625,0.0001363393384963274,0.00005960091948509216,0.0012590072583407164
1738773052877719800,9.4397197265625,-0.00018020765855908394,0.0015167191158980131,0.0007655592635273933
1738773052887711700,9.449711669921875,0.0007420449983328581,-0.0012676157057285309,0.0007474498124793172
1738773052897702700,9.45970263671875,-0.0006368870963342488,-0.00030199973843991756,0.0005523448344320059
1738773052907693800,9.46969384765625,-0.00045579217839986086,0.0011499559041112661,0.0010306485928595066
1738773052917684700,9.479684814453124,-0.0007518401253037155,0.0006181462667882442,0.0006698177894577384
1738773052927675600,9.489675537109376,-0.0009569035028107464,0.0005616871640086174,0.0007262767758220434
1738773052937666800,9.499666748046875,-0.0006031084340065718,0.0007013925351202488,0.00041326117934659123
1738773052947657700,9.50965771484375,-0.000803111819550395,-0.0003697308711707592,0.0007030131528154016
1738773052957648600,9.519648681640625,0.001780312624759972,-0.001589133171364665,-0.0011029622983187437
1738773052967640800,9.529640869140625,0.0006095869466662407,-0.0009747417643666267,0.00013221186236478388
1738773052977631700,9.5396318359375,0.0008138883858919144,0.00011623930186033249,-0.00040962756611406803
1738773052987622700,9.54962255859375,-0.0001869275001809001,-0.0003559389151632786,-0.000054095551604405046
1738773052997613800,9.55961376953125,0.00110498012509197,-0.001084508141502738,0.0007149325683712959
1738773053007604700,9.569604736328126,0.0014405384426936507,0.0006188496481627226,0.001652098959311843
1738773053017595600,9.579595703125,-0.00044409040128812194,-0.001346588134765625,-0.0006399971316568553
1738773053027586800,9.5895869140625,0.0006898834835737944,-0.000141507713124156,0.0010830680839717388
1738773053037578000,9.599577880859375,0.00015338649973273277,0.000012996140867471695,0.0011754375882446766
1738773053047569700,9.609569580078125,-0.0002847035648301244,0.00043004704639315605,-0.00014841972733847797
1738773053057560600,9.619560546875,-0.0009094816632568836,0.00036351499147713184,0.00004317885031923652
1738773053067551700,9.6295517578125,0.0013928210828453302,-0.0010357096325606108,0.0005113625666126609
1738773053077542700,9.639542724609376,0.0009819745318964124,-0.00029904115945100784,-0.000581779342610389
1738773053087533800,9.649533935546875,0.0009276460623368621,-0.000005827052518725395,0.000205184769583866
1738773053097525000,9.65952490234375,-0.001034232322126627,0.0006138922180980444,0.0013944001402705908
1738773053107516000,9.669515869140625,-0.002349301241338253,-0.0014103767462074757,-0.0001984365371754393
1738773053117506800,9.6795068359375,-0.00011379318311810493,0.0007525300607085228,0.0002868983428925276
1738773053127497700,9.689497802734374,0.00018208404071629047,-0.000225382624194026,0.00038570165634155273
1738773053137490000,9.699489990234374,-0.0010175283532589674,0.0000016158446669578552,-0.00010785655467770994
1738773053147480800,9.709480712890626,-0.0011538821272552013,-0.001500407001003623,-0.000045272259740158916
1738773053157472000,9.719471923828126,0.0002087774919345975,0.0012850998900830746,0.001110251061618328
1738773053167463000,9.729462890625,-0.00014222715981304646,-0.001522404607385397,-0.0011909864842891693
1738773053177453800,9.739453857421875,-0.0008781483629718423,0.0010372477117925882,0.0006051361560821533
1738773053187444700,9.74944482421875,-0.0006547091761603951,-0.001836835639551282,-0.00012137414887547493
1738773053197436000,9.759435791015624,-0.0015826737508177757,-0.0009261316154152155,0.0003393588704057038
1738773053207426800,9.7694267578125,0.00039552233647555113,0.0005585805047303438,0.0005012790788896382
1738773053217419000,9.7794189453125,-0.0011158440029248595,0.0004502590745687485,-0.0016220337711274624
1738773053227410000,9.789409912109376,0.0014786074170842767,0.0005695689469575882,-0.00012560357572510839
1738773053237401000,9.799401123046875,-0.0018659236375242472,0.00045143882744014263,-0.0008214249974116683
1738773053247392000,9.80939208984375,0.0007354521658271551,-0.0007421900518238544,-0.0010299505665898323
1738773053257383000,9.8193828125,0.000403420883230865,-0.0005158570129424334,0.00042608805233612657
1738773053267373800,9.829373779296875,-0.00044612749479711056,0.000003992114216089249,-0.00011799577623605728
1738773053277365000,9.839364990234374,0.00003461819142103195,0.0010312329977750778,-0.0015419477131217718
1738773053287356000,9.84935595703125,-0.0004615287762135267,0.0007955431938171387,-0.0011669746600091457
1738773053297348000,9.85934814453125,0.0001946598058566451,0.0011133975349366665,0.0008102254359982908
1738773053307339000,9.869339111328125,0.0011235704878345132,0.00021937466226518154,-0.00046249927254393697
1738773053317330000,9.879329833984375,0.0005151410587131977,-0.00036494946107268333,0.00004793563857674599
1738773053327320800,9.88932080078125,0.00102140789385885,0.00027207890525460243,0.0000021292653400450945
1738773053337312000,9.89931201171875,-0.00019205501303076744,0.0010580501984804869,0.000005570822395384312
1738773053347303000,9.909302978515624,-0.00029298884328454733,0.00009318697266280651,0.002271388191729784
1738773053357293800,9.9192939453125,0.0003258847864344716,0.000018198741599917412,-0.0006506254430860281
1738773053367285000,9.929284912109376,-0.0008464387501589954,0.0007577587384730577,-0.0011880514211952686
1738773053377276000,9.93927587890625,-0.0012969078961759806,-0.0006218808703124523,0.0001087247219402343
1738773053387267800,9.949267822265625,0.00025731290224939585,0.0013451301492750645,-0.0006002087611705065
1738773053397259000,9.959259033203125,0.00007103942334651947,-0.0001797238364815712,0.0004706180188804865
1738773053407250000,9.96925,0.0003221755614504218,-0.00006946898065507412,-0.0013576420024037361
1738773053417240800,9.97924072265625,0.00022447563242167234,-0.0006849218625575304,0.00034192902967333794
1738773053427232000,9.98923193359375,0.0009605734376236796,-0.000109146349132061,-0.0005345172830857337
1738773053437223000,9.999222900390626,-0.00039119075518101454,0.0006620672065764666,-0.0010405206121504307
1738773053447213800,10.0092138671875,-0.00022740638814866543,-0.00005725282244384289,0.0014210392255336046
1738773053457204700,10.019204833984375,0.00018414680380374193,-0.0011329934932291508,-0.0012362098786979914
1738773053467197000,10.029197021484375,-0.0005508856847882271,-0.000539108645170927,0.001871432876214385
1738773053477187800,10.039187744140625,0.0008699848549440503,-0.0010639228858053684,0.0005640164017677307
1738773053487178800,10.0491787109375,-0.0010770520893856883,-0.0007968079298734665,-0.0007060451316647232
1738773053497170000,10.059169921875,0.00037709949538111687,0.000708507839590311,-0.0008946064626798034
1738773053507160800,10.069160888671876,-0.0006167922401800752,0.00034498609602451324,0.00006785991718061268
1738773053517151700,10.07915185546875,-0.0003475950798019767,0.001018768409267068,0.00020953331841155887
1738773053527143000,10.089142822265625,-0.0008706399239599705,-0.0007756692357361317,-0.00006743540870957077
1738773053537133800,10.0991337890625,0.0003318350063636899,0.0005086064338684082,0.002155132358893752
1738773053547124700,10.109124755859375,0.0009286494459956884,-0.0003428063355386257,-0.0007240110426209867
1738773053557117000,10.119116943359375,-0.001321035553701222,-0.0005762751679867506,0.001028525992296636
1738773053567107800,10.12910791015625,0.0010973808821290731,0.000881006708368659,0.00021146811195649207
1738773053577098800,10.1390986328125,-0.0009853108786046505,-0.0007634824141860008,0.00040535052539780736
1738773053587090000,10.14908984375,0.0010677198879420757,0.0014512022025883198,-0.00044073571916669607
1738773053597080800,10.159080810546875,-0.0010731795337051153,-0.00042625656351447105,-0.0008335587335750461
1738773053607072000,10.169072021484375,-0.0018958300352096558,0.0005814838223159313,-0.0016836397117003798
1738773053617063000,10.17906298828125,0.0002922164276242256,0.0004360622260719538,0.000041261373553425074
1738773053627054000,10.18905419921875,-0.0008276427979581058,0.0018512660171836615,0.00043008290231227875
1738773053637045800,10.199045654296874,-0.0002071416238322854,-0.0013647836167365313,-0.000847427174448967
1738773053647037000,10.209036865234374,-0.0016404548659920692,0.00012126029469072819,0.00030652055284008384
1738773053657027800,10.21902783203125,-0.0006748136365786195,-0.0009851984214037657,-0.000632005394436419
1738773053667019000,10.22901904296875,0.0006892575183883309,0.00019138609059154987,-0.0002927187015302479
1738773053677010000,10.239010009765625,-0.000820506364107132,0.0016510530840605497,0.0005595553666353226
1738773053687001000,10.2490009765625,0.00009562110062688589,-0.00041848933324217796,-0.0006862713489681482
1738773053696992000,10.258991943359375,-0.0013739275746047497,0.0007410598918795586,-0.00003321029362268746
1738773053706983000,10.26898291015625,-0.0006929572555236518,-0.0006941177416592836,-0.0013354960829019547
1738773053716974800,10.278974853515624,-0.0007421623449772596,0.0019403707701712847,0.0010604162234812975
1738773053726966000,10.288966064453126,-0.0004998146905563772,-0.00004608090966939926,-0.0009848915506154299
1738773053736957000,10.29895703125,-0.00006649864371865988,-0.0005918031092733145,0.0011973297223448753
1738773053746948000,10.308947998046875,-0.000002582790330052376,0.0011243380140513182,0.0011105106677860022
1738773053756939000,10.31893896484375,-0.0007097979541867971,-0.0007197896484285593,-0.0008206189377233386
1738773053766930000,10.328929931640625,-0.0003055301494896412,-0.001093963859602809,-0.0022035983856767416
1738773053776921000,10.338921142578124,0.0003193640150129795,0.001610529376193881,0.0013002310879528522
1738773053786912000,10.348912109375,-0.0017003773245960474,-0.00046194251626729965,-0.0010622590780258179
1738773053796903000,10.35890283203125,0.000637824647128582,-0.0016773203387856483,0.0015987905208021402
1738773053806895000,10.36889501953125,0.0003747043665498495,-0.00043495558202266693,0.0003023637109436095
1738773053816886000,10.378885986328125,0.00030721689108759165,0.0009850438218563795,0.0002102587022818625
1738773053826877000,10.388876953125,0.00032106542494148016,-0.0007060633506625891,0.00022224290296435356
1738773053836867800,10.398867919921875,0.00041449477430433035,-0.0009641651995480061,0.0006744901183992624
1738773053846859000,10.40885888671875,-0.00028618285432457924,0.0010630330070853233,0.0012896803673356771
1738773053856850000,10.418849853515624,-0.00048276735469698906,0.001273921225219965,0.00026584131410345435
1738773053866840800,10.4288408203125,0.0013923642691224813,0.0006166533567011356,-0.0005677280714735389
1738773053876832000,10.43883203125,-0.0006002382724545896,-0.000024314969778060913,0.0018233428709208965
1738773053886824000,10.448823974609375,-0.0002002314431592822,0.00017675361596047878,-0.0003519270976539701
1738773053896814800,10.45881494140625,-0.00046248483704403043,-0.0007616730872541666,0.0003476366400718689
1738773053906806000,10.468805908203125,0.0005449890159070492,-0.00006179441697895527,0.00040169880958274007
1738773053916797000,10.478796875,-0.0005395550397224724,0.0011914682108908892,0.0009362482815049589
1738773053926787800,10.488787841796874,0.0002069289330393076,-0.0003723397385329008,0.0003189275157637894
1738773053936779000,10.498779052734376,0.0002669553505256772,0.00012885662727057934,-0.0006537477020174265
1738773053946770000,10.50877001953125,0.00005416874773800373,-0.0013638453092426062,0.0006280317902565002
1738773053956760800,10.5187607421875,-0.0004074859316460788,-0.0004702380392700434,-0.0005029966705478728
1738773053966753000,10.5287529296875,-0.00015501829329878092,0.0007367066573351622,-0.0001559868105687201
1738773053976744000,10.538743896484375,0.0010112476302310824,0.0010903994552791119,0.0005188856739550829
1738773053986734800,10.54873486328125,0.0004597068764269352,-0.00024970341473817825,0.0008483186829835176
1738773053996726000,10.55872607421875,0.0005834868643432856,0.0008284877985715866,0.00046897618449293077
1738773054006717000,10.568717041015624,-0.00030121521558612585,0.00038480525836348534,0.000509988865815103
1738773054016707800,10.578707763671876,0.000678488053381443,-0.0005905530415475368,-0.000814027909655124
1738773054026698800,10.58869873046875,0.0001863357611000538,-0.00001770700328052044,-0.0011900662211701274
1738773054036690000,10.59868994140625,0.00032229465432465076,0.0000016835983842611313,-0.00029900751542299986
1738773054046680800,10.608680908203125,0.0011569292983040214,0.00031993119046092033,-0.0014138066908344626
1738773054056672800,10.6186728515625,-0.00001740234438329935,-0.0007312027737498283,-0.00032713907421566546
1738773054066664000,10.628663818359374,0.0014020624803379178,-0.0017232303507626057,0.0012723554391413927
1738773054076654800,10.63865478515625,0.0008352970471605659,0.0009288466535508633,0.0004786900244653225
1738773054086645800,10.648645751953126,0.00005312659777700901,0.00027903541922569275,-0.0004624710709322244
1738773054096637000,10.658636962890625,-0.00009369023609906435,-0.0011244225315749645,-0.00012773287016898394
1738773054106627800,10.6686279296875,-0.0008212658576667309,0.0012969232629984617,0.0005055668298155069
1738773054116618800,10.67861865234375,0.00042713829316198826,0.0004035967867821455,0.00000846135662868619
1738773054126610000,10.68860986328125,0.00004524097312241793,0.0007351601962000132,0.000683040008880198
1738773054136601900,10.698601806640625,0.00042075151577591896,0.000588439404964447,0.000059939950006082654
1738773054146592800,10.7085927734375,-0.000912160612642765,-0.00021610152907669544,0.001577142858877778
1738773054156584000,10.718583984375,0.00017342681530863047,0.0008467512670904398,0.0007166580762714148
1738773054166574800,10.728574951171876,-0.00007717660628259182,0.001338104484602809,-0.0000822902366053313
1738773054176565800,10.738565673828125,-0.000045339809730648994,0.0007365287747234106,-0.0006476030685007572
1738773054186557000,10.748556884765625,0.0002524015726521611,-0.0005417885258793831,0.0000829020282253623
1738773054196548000,10.758548095703125,0.00004908430855721235,-0.00021528569050133228,0.0005067382589913905
1738773054206539000,10.7685390625,0.00006479688454419374,0.0006004406604915857,-0.001672260113991797
1738773054216530700,10.77853076171875,-0.0004003482754342258,0.000565393129363656,-0.00040416658157482743
1738773054226522000,10.788522216796874,-0.0008376393234357238,0.00033742678351700306,0.0012001215945929289
1738773054236513000,10.798512939453126,0.0009617417817935348,-0.00027128751389682293,-0.001342483563348651
1738773054246504200,10.808504150390625,-0.00022229959722608328,0.0008435118943452835,0.0008868486038409173
1738773054256495400,10.818495361328125,0.0004028391558676958,0.00009674020111560822,-0.0003558419703040272
1738773054266486300,10.828486328125,-0.0004214091459289193,0.0008791766595095396,0.0011552355717867613
1738773054276477200,10.838477294921875,-0.0003865671460516751,-0.00040074880234897137,-0.001832740381360054
1738773054286468400,10.84846826171875,-0.0002515448722988367,-0.0008279196918010712,0.00028660320094786584
1738773054296459300,10.858459228515626,-0.0011432345490902662,0.0015268614515662193,0.001263205660507083
1738773054306451200,10.868451171875,-0.00007024698425084352,0.00074788648635149,-0.0002939446712844074
1738773054316442400,10.8784423828125,0.0003569715190678835,-0.0005753855220973492,-0.0005687537486664951
1738773054326433300,10.888433349609375,-0.0004054915043525398,0.0016579413786530495,0.0007804036140441895
1738773054336424200,10.898424072265625,0.0001292341621592641,0.0006576129235327244,0.0014973192010074854
1738773054346415400,10.908415283203125,0.0008200581651180983,-0.00034267036244273186,-0.00045051678898744285
1738773054356406300,10.91840625,0.0001451668795198202,0.0009129473473876715,0.0004855828592553735
1738773054366397200,10.928397216796874,-0.0017131869681179523,-0.0006633775774389505,-0.0001549073786009103
1738773054376388400,10.938388427734376,-0.0001665959134697914,-0.0004854376893490553,0.00063048314768821
1738773054386380300,10.94838037109375,0.0006411408539861441,0.000050390372052788734,-0.0009114871500059962
1738773054396371200,10.95837109375,-0.0003143918002024293,0.0011070058681070805,-0.0017004709225147963
1738773054406362400,10.9683623046875,0.0007870916742831469,-0.0010565458796918392,0.0016899993643164635
1738773054416353300,10.978353271484375,0.00005258701276034117,0.0009110548999160528,-0.0007326690247282386
1738773054426344200,10.98834423828125,0.00017589132767170668,0.0007230357732623816,-0.0007001784979365766
1738773054436335400,10.99833544921875,-0.0005823366809636354,-0.00026142713613808155,-0.0010502090444788337
1738773054446326300,11.008326171875,-0.0008353369776159525,-0.0003104293718934059,-0.0003079859889112413
1738773054456317200,11.018317138671875,0.0009186761453747749,0.0003460473380982876,0.00009496198617853224
1738773054466308000,11.02830810546875,0.0002800500951707363,-0.0010585037525743246,-0.0001212867209687829
1738773054476300300,11.03830029296875,0.0016367512289434671,0.000419865595176816,0.0006243333918973804
1738773054486291200,11.048291259765625,-0.001329477527178824,0.0001359723974019289,0.0008770673302933574
1738773054496282000,11.0582822265625,-0.0014201297890394926,-0.0006394661031663418,-0.0005989019409753382
1738773054506273300,11.068273193359374,-0.00003129127435386181,-0.00034625199623405933,-0.00042499753180891275
1738773054516264200,11.07826416015625,0.0007746726041659713,-0.00019750348292291164,-0.00005303230136632919
1738773054526255000,11.088255126953126,0.001115557155571878,-0.0002265318762511015,-0.0012141705956310034
1738773054536246300,11.098246337890625,0.002201210707426071,-0.000053799478337168694,0.0002665436768438667
1738773054546237200,11.1082373046875,-0.0003724681446328759,-0.00015499955043196678,0.00043086076038889587
1738773054556229000,11.11822900390625,-0.00013899465557187796,0.00008579716086387634,0.0005464410642161965
1738773054566220300,11.12822021484375,-0.0006953290430828929,-0.00010994519107043743,-0.00006848282646387815
1738773054576211200,11.138211181640624,0.0012366242008283734,-0.00018525798805058002,-0.0001724313187878579
1738773054586202000,11.1482021484375,0.0012326292926445603,0.00009570550173521042,0.0007639360846951604
1738773054596193300,11.158193359375,0.0017330111004412174,0.001151163363829255,0.0005313333822414279
1738773054606184200,11.16818408203125,-0.0019789026118814945,-0.0009143846109509468,-0.0006263427203521132
1738773054616175000,11.178175048828125,0.0006222922820597887,-0.0010928544215857983,-0.001131056691519916
1738773054626166000,11.188166015625,0.0019096643663942814,-0.0008118909318000078,0.00019466489902697504
1738773054636158200,11.198158203125,0.001375984400510788,-0.00030530383810400963,0.0010866213124245405
1738773054646149000,11.208149169921874,-0.0006237832130864263,0.0012553082779049873,-0.0005000900710001588
1738773054656140300,11.218140380859374,-0.0009031995432451367,0.0009440542198717594,-0.0003484040789771825
1738773054666131200,11.228131103515626,-0.00018095027189701796,-0.0009952597320079803,0.0002816998166963458
1738773054676122000,11.2381220703125,-0.0010708949994295835,0.0008020729292184114,-0.0006815087981522083
1738773054686113000,11.248113037109375,-0.0005944555159658194,0.001461738022044301,-0.001433319179341197
1738773054696104200,11.258104248046875,0.00006994931027293205,-0.00027360417880117893,0.001405567629262805
1738773054706095000,11.26809521484375,0.0002481148112565279,0.00037434278056025505,-0.0002943280851468444
1738773054716086300,11.278086181640624,0.0002682838821783662,0.0010066947434097528,-0.0014188841450959444
1738773054726078200,11.288078125,0.0009423298761248589,-0.001033286564052105,-0.0006186043028719723
1738773054736069000,11.298069091796876,-0.0008067463058978319,0.00020712194964289665,-0.000608375295996666
1738773054746060000,11.30806005859375,0.00017249805387109518,-0.00021365750581026077,0.000902435916941613
1738773054756051200,11.31805126953125,-0.0003606160753406584,0.00029906933195888996,-0.00007254350930452347
1738773054766042000,11.3280419921875,-0.00025515491142868996,0.0004940128419548273,0.00015595569857396185
1738773054776033300,11.338033203125,0.001362198730930686,-0.000060443999245762825,-0.0012856842949986458
1738773054786024200,11.348024169921874,0.000993883702903986,-0.0004103833343833685,-0.00034452317049726844
1738773054796015400,11.358015380859374,0.00006129604298621416,-0.0005437282379716635,-0.000294990575639531
1738773054806007000,11.368007080078126,-0.00047799403546378016,-0.000670761102810502,0.0015199537156149745
1738773054815998200,11.377998291015626,-0.0007095873588696122,-0.0010574166662991047,0.00095201755175367
1738773054825989000,11.387989013671875,0.0014390508877113461,0.000893348827958107,0.0003261747187934816
1738773054835980300,11.397980224609375,0.0008401904487982392,0.0007170408498495817,-0.00003152427962049842
1738773054845971200,11.40797119140625,0.00035549525637179613,0.0004930694121867418,0.00014344538794830441
1738773054855962400,11.41796240234375,0.0005272874841466546,0.00012598582543432713,-0.0016313219675794244
