time,seconds_elapsed,z,y,x
1738772128120671200,0.022671142578125,-0.93939208984375,-0.338623046875,-0.03271484375
1738772128130662400,0.032662353515625,-0.945953369140625,-0.338348388671875,-0.034759521484375
1738772128140653300,0.0426533203125,-0.950439453125,-0.3401947021484375,-0.03424072265625
1738772128150644200,0.052644287109375,-0.9473724365234375,-0.33990478515625,-0.0309906005859375
1738772128160635400,0.062635498046875,-0.9428863525390625,-0.3387298583984375,-0.0328369140625
1738772128170626300,0.072626220703125,-0.9449462890625,-0.33868408203125,-0.0329132080078125
1738772128180617200,0.0826171875,-0.9473876953125,-0.3382720947265625,-0.034423828125
1738772128190609400,0.092609375,-0.94708251953125,-0.3383636474609375,-0.0335540771484375
1738772128200600300,0.102600341796875,-0.9441680908203125,-0.3390045166015625,-0.0331878662109375
1738772128210591200,0.11259130859375,-0.94329833984375,-0.3385009765625,-0.0322723388671875
1738772128220582400,0.12258251953125,-0.9444580078125,-0.33935546875,-0.033538818359375
1738772128230573300,0.1325732421875,-0.945037841796875,-0.3388214111328125,-0.03240966796875
1738772128240564200,0.142564208984375,-0.94732666015625,-0.3394775390625,-0.033111572265625
1738772128250555400,0.152555419921875,-0.945556640625,-0.3382415771484375,-0.0328521728515625
1738772128260547300,0.16254736328125,-0.944976806640625,-0.3381195068359375,-0.033233642578125
1738772128270538200,0.172538330078125,-0.9449920654296875,-0.3377838134765625,-0.0329132080078125
1738772128280529200,0.182529052734375,-0.94671630859375,-0.3378753662109375,-0.0340423583984375
1738772128290520300,0.192520263671875,-0.94482421875,-0.33868408203125,-0.0322418212890625
1738772128300511500,0.202511474609375,-0.9451904296875,-0.339508056640625,-0.03179931640625
1738772128310502400,0.21250244140625,-0.94610595703125,-0.338409423828125,-0.0327911376953125
1738772128320493600,0.22249365234375,-0.9462127685546875,-0.338531494140625,-0.033050537109375
1738772128330485200,0.2324853515625,-0.9446868896484375,-0.3378448486328125,-0.033111572265625
1738772128340476200,0.24247607421875,-0.9438018798828125,-0.3373870849609375,-0.03326416015625
1738772128350467300,0.25246728515625,-0.945465087890625,-0.3390350341796875,-0.032012939453125
1738772128360458500,0.26245849609375,-0.9461517333984375,-0.338592529296875,-0.032745361328125
1738772128370449400,0.272449462890625,-0.9463653564453125,-0.3382415771484375,-0.0337677001953125
1738772128380440600,0.282440673828125,-0.9462127685546875,-0.338165283203125,-0.0335540771484375
1738772128390431500,0.292431396484375,-0.9448089599609375,-0.3386993408203125,-0.0320892333984375
1738772128400422400,0.30242236328125,-0.945465087890625,-0.3386383056640625,-0.0326385498046875
1738772128410414300,0.312414306640625,-0.946563720703125,-0.3386077880859375,-0.033935546875
1738772128420405500,0.322405517578125,-0.9462127685546875,-0.338226318359375,-0.0330810546875
1738772128430396400,0.332396484375,-0.944061279296875,-0.338104248046875,-0.032623291015625
1738772128440387300,0.34238720703125,-0.9446868896484375,-0.3384246826171875,-0.032562255859375
1738772128450378500,0.35237841796875,-0.9454803466796875,-0.3380584716796875,-0.0323028564453125
1738772128460369400,0.362369384765625,-0.94586181640625,-0.3390045166015625,-0.0326995849609375
1738772128470360300,0.3723603515625,-0.9457855224609375,-0.338470458984375,-0.0322113037109375
1738772128480352500,0.3823525390625,-0.9472198486328125,-0.338592529296875,-0.033294677734375
1738772128490343400,0.392343505859375,-0.9452667236328125,-0.33892822265625,-0.0339508056640625
1738772128500334300,0.402334228515625,-0.945037841796875,-0.3394317626953125,-0.03326416015625
1738772128510325500,0.412325439453125,-0.9460601806640625,-0.33856201171875,-0.0326690673828125
1738772128520316400,0.42231640625,-0.94696044921875,-0.3372039794921875,-0.033721923828125
1738772128530307300,0.432307373046875,-0.9454193115234375,-0.3379974365234375,-0.0331268310546875
1738772128540298500,0.442298583984375,-0.9456329345703125,-0.3402099609375,-0.03289794921875
1738772128550290400,0.45229052734375,-0.9468536376953125,-0.339508056640625,-0.03375244140625
1738772128560281300,0.46228125,-0.9466552734375,-0.3379669189453125,-0.0334930419921875
1738772128570272500,0.4722724609375,-0.9452667236328125,-0.3382415771484375,-0.032440185546875
1738772128580263400,0.482263427734375,-0.9447479248046875,-0.3384552001953125,-0.0334014892578125
1738772128590254300,0.49225439453125,-0.94537353515625,-0.34002685546875,-0.03265380859375
1738772128600245500,0.50224560546875,-0.945770263671875,-0.33984375,-0.0328521728515625
1738772128610236400,0.512236328125,-0.94464111328125,-0.3383026123046875,-0.03265380859375
1738772128620228400,0.522228271484375,-0.94573974609375,-0.33837890625,-0.031463623046875
1738772128630219500,0.532219482421875,-0.945098876953125,-0.33740234375,-0.032684326171875
1738772128640210400,0.54221044921875,-0.94500732421875,-0.3386688232421875,-0.033843994140625
1738772128650201300,0.552201416015625,-0.9451751708984375,-0.3386688232421875,-0.032135009765625
1738772128660192300,0.562192138671875,-0.9455108642578125,-0.33673095703125,-0.033416748046875
1738772128670183400,0.572183349609375,-0.9456939697265625,-0.3392791748046875,-0.0328216552734375
1738772128680174300,0.58217431640625,-0.9454803466796875,-0.3392486572265625,-0.0326080322265625
1738772128690166500,0.59216650390625,-0.946746826171875,-0.33837890625,-0.0333251953125
1738772128700157400,0.602157470703125,-0.945343017578125,-0.3384246826171875,-0.033416748046875
1738772128710148400,0.6121484375,-0.945159912109375,-0.337890625,-0.0325469970703125
1738772128720139300,0.62213916015625,-0.9468994140625,-0.337005615234375,-0.0330657958984375
1738772128730130400,0.63213037109375,-0.945770263671875,-0.33917236328125,-0.033172607421875
1738772128740121300,0.642121337890625,-0.945343017578125,-0.338165283203125,-0.03326416015625
1738772128750112300,0.6521123046875,-0.9451446533203125,-0.3393402099609375,-0.031524658203125
1738772128760104400,0.6621044921875,-0.9437255859375,-0.3376312255859375,-0.0326995849609375
1738772128770095400,0.672095458984375,-0.9441680908203125,-0.3378753662109375,-0.0326385498046875
1738772128780086300,0.682086181640625,-0.946258544921875,-0.3387451171875,-0.0341644287109375
1738772128790077400,0.692077392578125,-0.946075439453125,-0.3394927978515625,-0.032684326171875
1738772128800068400,0.702068359375,-0.9443817138671875,-0.3383331298828125,-0.0328826904296875
1738772128810059300,0.712059326171875,-0.94525146484375,-0.339080810546875,-0.0325927734375
1738772128820050400,0.722050537109375,-0.9448394775390625,-0.3386383056640625,-0.032318115234375
1738772128830042400,0.73204248046875,-0.945770263671875,-0.339080810546875,-0.0332794189453125
1738772128840033300,0.742033203125,-0.946075439453125,-0.338104248046875,-0.0331573486328125
1738772128850024400,0.7520244140625,-0.946746826171875,-0.3385162353515625,-0.031707763671875
1738772128860015400,0.762015380859375,-0.945037841796875,-0.337921142578125,-0.033355712890625
1738772128870006300,0.77200634765625,-0.9442596435546875,-0.3376617431640625,-0.033538818359375
1738772128879997200,0.7819970703125,-0.94598388671875,-0.340118408203125,-0.0339508056640625
1738772128889988400,0.79198828125,-0.9476470947265625,-0.3392486572265625,-0.0346832275390625
1738772128899980300,0.801980224609375,-0.9461669921875,-0.338714599609375,-0.0331573486328125
1738772128909971500,0.811971435546875,-0.944732666015625,-0.339141845703125,-0.03277587890625
1738772128919962400,0.82196240234375,-0.945281982421875,-0.3378753662109375,-0.0343170166015625
1738772128929953300,0.831953369140625,-0.945770263671875,-0.339202880859375,-0.0338592529296875
1738772128939944200,0.841944091796875,-0.94537353515625,-0.3385009765625,-0.03240966796875
1738772128949935400,0.851935302734375,-0.94671630859375,-0.33807373046875,-0.0339813232421875
1738772128959927300,0.86192724609375,-0.9461822509765625,-0.33892822265625,-0.031951904296875
1738772128969918200,0.871918212890625,-0.9443359375,-0.338348388671875,-0.033477783203125
1738772128979909400,0.881909423828125,-0.9453277587890625,-0.33856201171875,-0.0322113037109375
1738772128989901600,0.891901611328125,-0.9455413818359375,-0.3393402099609375,-0.03271484375
1738772128999892500,0.901892578125,-0.9459381103515625,-0.338714599609375,-0.0332489013671875
1738772129009883400,0.91188330078125,-0.9454498291015625,-0.338714599609375,-0.0326690673828125
1738772129019874300,0.921874267578125,-0.9433441162109375,-0.3377838134765625,-0.0333404541015625
1738772129029866500,0.931866455078125,-0.9459991455078125,-0.338287353515625,-0.033172607421875
1738772129039857400,0.941857421875,-0.946868896484375,-0.3373260498046875,-0.0340728759765625
1738772129049848600,0.9518486328125,-0.944580078125,-0.3375701904296875,-0.0325775146484375
1738772129059839500,0.961839599609375,-0.944183349609375,-0.339019775390625,-0.032684326171875
1738772129069830400,0.971830322265625,-0.9457244873046875,-0.3394317626953125,-0.0325775146484375
1738772129079821300,0.9818212890625,-0.9443817138671875,-0.339263916015625,-0.0314483642578125
1738772129089812500,0.9918125,-0.945037841796875,-0.338226318359375,-0.0337677001953125
1738772129099804400,1.001804443359375,-0.9439697265625,-0.3376922607421875,-0.03338623046875
1738772129109795300,1.01179541015625,-0.9455413818359375,-0.3395843505859375,-0.0329437255859375
1738772129119786500,1.021786376953125,-0.9468536376953125,-0.3378143310546875,-0.03326416015625
1738772129129777400,1.03177734375,-0.94598388671875,-0.3374176025390625,-0.0332794189453125
1738772129139768300,1.041768310546875,-0.9437103271484375,-0.337615966796875,-0.0325164794921875
1738772129149759500,1.051759521484375,-0.9462127685546875,-0.33929443359375,-0.032379150390625
1738772129159750400,1.06175048828125,-0.9461212158203125,-0.3376922607421875,-0.0329132080078125
1738772129169742300,1.071742431640625,-0.9462890625,-0.3377685546875,-0.0326995849609375
1738772129179733500,1.0817333984375,-0.9443511962890625,-0.33935546875,-0.0327606201171875
1738772129189724400,1.091724365234375,-0.94598388671875,-0.3390655517578125,-0.03326416015625
1738772129199715300,1.10171533203125,-0.9452362060546875,-0.3384246826171875,-0.0342254638671875
1738772129209706500,1.11170654296875,-0.9461822509765625,-0.3381500244140625,-0.034515380859375
1738772129219697400,1.121697509765625,-0.94403076171875,-0.3384246826171875,-0.0331573486328125
1738772129229688300,1.131688232421875,-0.9446258544921875,-0.338165283203125,-0.032470703125
1738772129239679200,1.14167919921875,-0.9459686279296875,-0.33740234375,-0.034759521484375
1738772129249671400,1.15167138671875,-0.9454803466796875,-0.338165283203125,-0.0330352783203125
1738772129259662300,1.161662353515625,-0.9441986083984375,-0.338592529296875,-0.0340423583984375
1738772129269653500,1.171653564453125,-0.9444122314453125,-0.338775634765625,-0.033416748046875
1738772129279644400,1.18164453125,-0.946075439453125,-0.3378753662109375,-0.0330963134765625
1738772129289635300,1.19163525390625,-0.9470977783203125,-0.339080810546875,-0.033294677734375
1738772129299626200,1.201626220703125,-0.9464111328125,-0.33746337890625,-0.0324859619140625
1738772129309617400,1.211617431640625,-0.9451141357421875,-0.3382568359375,-0.0337371826171875
1738772129319609300,1.221609375,-0.945770263671875,-0.337890625,-0.0328826904296875
1738772129329600300,1.231600341796875,-0.945343017578125,-0.338592529296875,-0.033294677734375
1738772129339591400,1.24159130859375,-0.9450836181640625,-0.338165283203125,-0.0314483642578125
1738772129349582300,1.251582275390625,-0.9456939697265625,-0.3384857177734375,-0.0334320068359375
1738772129359573200,1.2615732421875,-0.9458465576171875,-0.338592529296875,-0.0319671630859375
1738772129369564400,1.271564453125,-0.9456329345703125,-0.338348388671875,-0.032501220703125
1738772129379555600,1.2815556640625,-0.94671630859375,-0.3391265869140625,-0.032470703125
1738772129389547300,1.29154736328125,-0.9449615478515625,-0.3386077880859375,-0.032440185546875
1738772129399538400,1.301538330078125,-0.94573974609375,-0.338653564453125,-0.0332183837890625
1738772129409529300,1.311529296875,-0.9448089599609375,-0.3381805419921875,-0.0329742431640625
1738772129419520300,1.321520263671875,-0.94317626953125,-0.338409423828125,-0.0333099365234375
1738772129429511400,1.331511474609375,-0.9453125,-0.3375091552734375,-0.0333709716796875
1738772129439502600,1.341502685546875,-0.9459228515625,-0.337615966796875,-0.0326385498046875
1738772129449493500,1.351493408203125,-0.943939208984375,-0.3389892578125,-0.0333099365234375
1738772129459485400,1.3614853515625,-0.947174072265625,-0.3384246826171875,-0.03369140625
1738772129469476400,1.371476318359375,-0.9458160400390625,-0.3381195068359375,-0.0332489013671875
1738772129479467300,1.38146728515625,-0.9441375732421875,-0.337860107421875,-0.0325164794921875
1738772129489458700,1.391458740234375,-0.944854736328125,-0.3387298583984375,-0.032684326171875
1738772129499449600,1.40144970703125,-0.9460906982421875,-0.3397216796875,-0.03265380859375
1738772129509440500,1.4114404296875,-0.945098876953125,-0.3375091552734375,-0.0327606201171875
1738772129519431400,1.421431396484375,-0.9449462890625,-0.3389434814453125,-0.031890869140625
1738772129529423400,1.43142333984375,-0.94647216796875,-0.3384246826171875,-0.0338134765625
1738772129539414500,1.44141455078125,-0.9462127685546875,-0.3383026123046875,-0.034088134765625
1738772129549405400,1.451405517578125,-0.945220947265625,-0.338470458984375,-0.03399658203125
1738772129559396600,1.461396728515625,-0.9445343017578125,-0.338165283203125,-0.0335693359375
1738772129569387500,1.471387451171875,-0.946136474609375,-0.337646484375,-0.033447265625
1738772129579378400,1.48137841796875,-0.945831298828125,-0.3389739990234375,-0.03265380859375
1738772129589369600,1.49136962890625,-0.9439239501953125,-0.3380126953125,-0.033172607421875
1738772129599361500,1.501361572265625,-0.942962646484375,-0.337371826171875,-0.0318145751953125
1738772129609352400,1.5113525390625,-0.9452362060546875,-0.339141845703125,-0.03363037109375
1738772129619343600,1.521343505859375,-0.9466400146484375,-0.3381500244140625,-0.033233642578125
1738772129629334500,1.53133447265625,-0.94610595703125,-0.33843994140625,-0.033935546875
1738772129639325400,1.541325439453125,-0.94342041015625,-0.3387298583984375,-0.0332489013671875
1738772129649316600,1.551316650390625,-0.94427490234375,-0.3389129638671875,-0.031982421875
1738772129659307500,1.5613076171875,-0.94732666015625,-0.338775634765625,-0.03240966796875
1738772129669299500,1.571299560546875,-0.9467315673828125,-0.337860107421875,-0.03466796875
1738772129679290600,1.58129052734375,-0.9442596435546875,-0.33697509765625,-0.0343170166015625
1738772129689281500,1.591281494140625,-0.94476318359375,-0.339263916015625,-0.032501220703125
1738772129699272400,1.6012724609375,-0.9468536376953125,-0.338897705078125,-0.0333099365234375
1738772129709263600,1.611263671875,-0.9453125,-0.33648681640625,-0.03375244140625
1738772129719254500,1.621254638671875,-0.944366455078125,-0.3377227783203125,-0.03485107421875
1738772129729245400,1.631245361328125,-0.9454193115234375,-0.3390045166015625,-0.034210205078125
1738772129739236400,1.641236328125,-0.946563720703125,-0.33941650390625,-0.0326690673828125
1738772129749228500,1.651228515625,-0.9481658935546875,-0.3380279541015625,-0.032440185546875
1738772129759219500,1.661219482421875,-0.945281982421875,-0.33782958984375,-0.0338897705078125
1738772129769210400,1.67121044921875,-0.944427490234375,-0.3372955322265625,-0.0335540771484375
1738772129779201500,1.681201416015625,-0.9464569091796875,-0.33905029296875,-0.0318145751953125
1738772129789192400,1.6911923828125,-0.9468231201171875,-0.3390350341796875,-0.0338897705078125
1738772129799183400,1.701183349609375,-0.9461669921875,-0.3377532958984375,-0.0338592529296875
1738772129809174500,1.711174560546875,-0.944000244140625,-0.336669921875,-0.0332794189453125
1738772129819166500,1.72116650390625,-0.945770263671875,-0.3397674560546875,-0.0319061279296875
1738772129829157400,1.731157470703125,-0.94720458984375,-0.3386383056640625,-0.0323638916015625
1738772129839148500,1.7411484375,-0.946746826171875,-0.3380126953125,-0.033966064453125
1738772129849139500,1.751139404296875,-0.9438018798828125,-0.338531494140625,-0.0340118408203125
1738772129859130400,1.76113037109375,-0.94488525390625,-0.3387603759765625,-0.032318115234375
1738772129869121500,1.77112158203125,-0.9483489990234375,-0.340179443359375,-0.0332794189453125
1738772129879112400,1.781112548828125,-0.9451751708984375,-0.3379364013671875,-0.034149169921875
1738772129889104400,1.7911044921875,-0.945892333984375,-0.3385009765625,-0.0324249267578125
1738772129899095600,1.801095458984375,-0.9467620849609375,-0.3390960693359375,-0.0323028564453125
1738772129909086500,1.81108642578125,-0.9457550048828125,-0.33746337890625,-0.0336761474609375
1738772129919077400,1.821077392578125,-0.9451751708984375,-0.339019775390625,-0.0345306396484375
1738772129929068500,1.831068603515625,-0.9432525634765625,-0.3391876220703125,-0.0325927734375
1738772129939059500,1.8410595703125,-0.944061279296875,-0.3379974365234375,-0.0316314697265625
1738772129949051400,1.851051513671875,-0.9465789794921875,-0.3385467529296875,-0.0335540771484375
1738772129959042600,1.86104248046875,-0.947265625,-0.33795166015625,-0.034088134765625
1738772129969033500,1.871033447265625,-0.94537353515625,-0.3370819091796875,-0.033233642578125
1738772129979024400,1.8810244140625,-0.94580078125,-0.3367156982421875,-0.032073974609375
1738772129989015000,1.89101513671875,-0.9469757080078125,-0.3368377685546875,-0.0330047607421875
1738772129999006000,1.901005859375,-0.946044921875,-0.3375396728515625,-0.0343475341796875
1738772130008996900,1.910996826171875,-0.944610595703125,-0.3388214111328125,-0.0339813232421875
1738772130018989000,1.920989013671875,-0.943817138671875,-0.3390045166015625,-0.0329437255859375
1738772130028980000,1.93097998046875,-0.94549560546875,-0.33917236328125,-0.0337066650390625
1738772130038971000,1.940970947265625,-0.9468231201171875,-0.33770751953125,-0.0327911376953125
1738772130048961800,1.9509619140625,-0.946319580078125,-0.337799072265625,-0.0326995849609375
1738772130058953000,1.960952880859375,-0.94464111328125,-0.3377532958984375,-0.0327911376953125
1738772130068944000,1.97094384765625,-0.9444427490234375,-0.33905029296875,-0.032806396484375
1738772130078934800,1.980934814453125,-0.9471435546875,-0.338775634765625,-0.032257080078125
1738772130088927000,1.990927001953125,-0.94635009765625,-0.33892822265625,-0.0329132080078125
1738772130098918000,2.00091796875,-0.9436187744140625,-0.3379058837890625,-0.033203125
1738772130108908800,2.01090869140625,-0.9450531005859375,-0.3395538330078125,-0.033660888671875
1738772130118900000,2.02089990234375,-0.9473876953125,-0.339508056640625,-0.0330810546875
1738772130128891000,2.030890869140625,-0.94696044921875,-0.3392791748046875,-0.034698486328125
1738772130138882000,2.040882080078125,-0.944549560546875,-0.3374176025390625,-0.033172607421875
1738772130148873200,2.050873291015625,-0.94366455078125,-0.3377532958984375,-0.032440185546875
1738772130158865000,2.060864990234375,-0.9462127685546875,-0.3388519287109375,-0.0335540771484375
1738772130168855800,2.070855712890625,-0.9462127685546875,-0.338653564453125,-0.03387451171875
1738772130178847000,2.080846923828125,-0.9466705322265625,-0.3380279541015625,-0.0333404541015625
1738772130188838000,2.090837890625,-0.9443817138671875,-0.3369903564453125,-0.0338592529296875
1738772130198829000,2.1008291015625,-0.9447174072265625,-0.3381805419921875,-0.0329742431640625
1738772130208820200,2.1108203125,-0.9470977783203125,-0.338836669921875,-0.034393310546875
1738772130218811100,2.12081103515625,-0.9446258544921875,-0.3385009765625,-0.034576416015625
1738772130228802800,2.130802734375,-0.9449920654296875,-0.338653564453125,-0.03240966796875
1738772130238794000,2.1407939453125,-0.945220947265625,-0.3375701904296875,-0.0330963134765625
1738772130248785000,2.150784912109375,-0.9468994140625,-0.338409423828125,-0.0333251953125
1738772130258776000,2.160776123046875,-0.9450225830078125,-0.3377838134765625,-0.0339202880859375
1738772130268767000,2.17076708984375,-0.9454193115234375,-0.3378448486328125,-0.0342559814453125
1738772130278758100,2.180758056640625,-0.944976806640625,-0.33807373046875,-0.032989501953125
1738772130288749000,2.1907490234375,-0.9469451904296875,-0.3390350341796875,-0.03363037109375
1738772130298741000,2.200740966796875,-0.9460601806640625,-0.3390045166015625,-0.0332183837890625
1738772130308732200,2.210732177734375,-0.945098876953125,-0.3386688232421875,-0.0330810546875
1738772130318723000,2.22072314453125,-0.945068359375,-0.3384552001953125,-0.0334320068359375
1738772130328714000,2.2307138671875,-0.9462127685546875,-0.3374481201171875,-0.032562255859375
1738772130338705200,2.240705078125,-0.9474334716796875,-0.337921142578125,-0.0343475341796875
1738772130348696000,2.250696044921875,-0.945343017578125,-0.3390655517578125,-0.0334930419921875
1738772130358687000,2.26068701171875,-0.9438323974609375,-0.3387603759765625,-0.033416748046875
1738772130368679200,2.27067919921875,-0.9447174072265625,-0.3390045166015625,-0.0331573486328125
1738772130378670000,2.280670166015625,-0.947906494140625,-0.3391265869140625,-0.0329132080078125
1738772130388661000,2.290660888671875,-0.9452667236328125,-0.3372650146484375,-0.0335235595703125
1738772130398652200,2.300652099609375,-0.944488525390625,-0.3378753662109375,-0.0334320068359375
1738772130408643000,2.31064306640625,-0.945648193359375,-0.3389739990234375,-0.0334320068359375
1738772130418634000,2.320634033203125,-0.946563720703125,-0.3383026123046875,-0.0335235595703125
1738772130428625200,2.330625244140625,-0.946533203125,-0.3382110595703125,-0.034393310546875
1738772130438617000,2.3406171875,-0.946197509765625,-0.33941650390625,-0.0330657958984375
1738772130448608000,2.35060791015625,-0.9449920654296875,-0.3392791748046875,-0.0338897705078125
1738772130458599200,2.36059912109375,-0.9460296630859375,-0.338836669921875,-0.033599853515625
1738772130468590000,2.370590087890625,-0.9457550048828125,-0.3394622802734375,-0.0330963134765625
1738772130478581000,2.3805810546875,-0.9444580078125,-0.3385009765625,-0.033935546875
1738772130488572000,2.390572021484375,-0.9445953369140625,-0.339599609375,-0.0325469970703125
1738772130498564000,2.400564208984375,-0.9447021484375,-0.3384857177734375,-0.033660888671875
1738772130508555000,2.410554931640625,-0.9450836181640625,-0.3382568359375,-0.033172607421875
1738772130518546200,2.420546142578125,-0.94586181640625,-0.3385162353515625,-0.0334320068359375
1738772130528537000,2.430537109375,-0.9449462890625,-0.3397064208984375,-0.0326995849609375
1738772130538528000,2.440528076171875,-0.945831298828125,-0.3393707275390625,-0.03271484375
1738772130548519000,2.450518798828125,-0.946319580078125,-0.3387603759765625,-0.0337371826171875
1738772130558510000,2.460510009765625,-0.9449615478515625,-0.33966064453125,-0.03448486328125
1738772130568502000,2.470501953125,-0.944793701171875,-0.338409423828125,-0.0335235595703125
1738772130578493000,2.480492919921875,-0.9449920654296875,-0.3392486572265625,-0.032745361328125
1738772130588484000,2.490484130859375,-0.94696044921875,-0.338531494140625,-0.0339508056640625
1738772130598475000,2.50047509765625,-0.9464874267578125,-0.3386383056640625,-0.034332275390625
1738772130608466000,2.5104658203125,-0.9451446533203125,-0.338958740234375,-0.03363037109375
1738772130618457000,2.52045703125,-0.9445343017578125,-0.338104248046875,-0.033233642578125
1738772130628448000,2.530447998046875,-0.9453125,-0.338165283203125,-0.0332489013671875
1738772130638440000,2.54043994140625,-0.94549560546875,-0.3375091552734375,-0.033721923828125
1738772130648431000,2.55043115234375,-0.9461517333984375,-0.3372039794921875,-0.033966064453125
1738772130658422000,2.560422119140625,-0.94464111328125,-0.3383331298828125,-0.0324249267578125
1738772130668413000,2.570412841796875,-0.944366455078125,-0.33807373046875,-0.0327606201171875
1738772130678404000,2.580404052734375,-0.9449462890625,-0.339111328125,-0.0324249267578125
1738772130688395000,2.59039501953125,-0.945159912109375,-0.340576171875,-0.0338134765625
1738772130698386000,2.600385986328125,-0.9449615478515625,-0.3391876220703125,-0.0331268310546875
1738772130708378000,2.610378173828125,-0.944732666015625,-0.3393402099609375,-0.0333099365234375
1738772130718369000,2.620369140625,-0.942901611328125,-0.3396453857421875,-0.0335693359375
1738772130728360000,2.63035986328125,-0.9450531005859375,-0.3378753662109375,-0.034088134765625
1738772130738351000,2.64035107421875,-0.94622802734375,-0.33917236328125,-0.0335540771484375
1738772130748342000,2.650342041015625,-0.9444580078125,-0.3393402099609375,-0.0333251953125
1738772130758333000,2.6603330078125,-0.945465087890625,-0.3385467529296875,-0.033111572265625
1738772130768323800,2.67032373046875,-0.946563720703125,-0.337738037109375,-0.0325164794921875
1738772130778316000,2.68031591796875,-0.945343017578125,-0.338470458984375,-0.0329437255859375
1738772130788307000,2.690306884765625,-0.946014404296875,-0.337554931640625,-0.0326690673828125
1738772130798297900,2.7002978515625,-0.9431304931640625,-0.337493896484375,-0.033843994140625
1738772130808289000,2.7102890625,-0.9458465576171875,-0.338775634765625,-0.0330047607421875
1738772130818280000,2.720280029296875,-0.9463348388671875,-0.3386077880859375,-0.0339508056640625
1738772130828270800,2.730270751953125,-0.9449920654296875,-0.3375091552734375,-0.0334930419921875
1738772130838262000,2.740261962890625,-0.944091796875,-0.3388214111328125,-0.03424072265625
1738772130848254000,2.75025390625,-0.9444427490234375,-0.3388824462890625,-0.033966064453125
1738772130858244900,2.760244873046875,-0.9458770751953125,-0.3363494873046875,-0.0330810546875
1738772130868236000,2.770236083984375,-0.945648193359375,-0.3389434814453125,-0.0340423583984375
1738772130878227000,2.78022705078125,-0.9446258544921875,-0.3388214111328125,-0.0350341796875
1738772130888217900,2.7902177734375,-0.9452667236328125,-0.3391876220703125,-0.032989501953125
1738772130898209000,2.800208984375,-0.9461517333984375,-0.3387451171875,-0.0337066650390625
1738772130908200000,2.810199951171875,-0.9455108642578125,-0.3386688232421875,-0.034454345703125
1738772130918191900,2.82019189453125,-0.945648193359375,-0.339263916015625,-0.0339508056640625
1738772130928183000,2.83018310546875,-0.9456939697265625,-0.3374176025390625,-0.03350830078125
1738772130938174000,2.840174072265625,-0.9455413818359375,-0.33782958984375,-0.0334625244140625
1738772130948164900,2.850164794921875,-0.9457244873046875,-0.3381805419921875,-0.034942626953125
1738772130958156000,2.860156005859375,-0.9456787109375,-0.33746337890625,-0.0340576171875
1738772130968147000,2.87014697265625,-0.9454803466796875,-0.337249755859375,-0.0340576171875
1738772130978137900,2.880137939453125,-0.9454193115234375,-0.338958740234375,-0.033294677734375
1738772130988130000,2.890130126953125,-0.946044921875,-0.3384857177734375,-0.0333251953125
1738772130998121200,2.900121337890625,-0.945220947265625,-0.338592529296875,-0.0333709716796875
1738772131008112000,2.910112060546875,-0.9470977783203125,-0.3388519287109375,-0.033599853515625
1738772131018103000,2.92010302734375,-0.946441650390625,-0.338653564453125,-0.0329132080078125
1738772131028094200,2.93009423828125,-0.9444732666015625,-0.339202880859375,-0.033966064453125
1738772131038085000,2.940085205078125,-0.94476318359375,-0.3376617431640625,-0.03369140625
1738772131048076000,2.950075927734375,-0.9470367431640625,-0.3377838134765625,-0.03375244140625
1738772131058068200,2.960068115234375,-0.944854736328125,-0.3388824462890625,-0.0322723388671875
1738772131068059100,2.97005908203125,-0.943817138671875,-0.339752197265625,-0.0330810546875
1738772131078050000,2.980050048828125,-0.945556640625,-0.338653564453125,-0.0326995849609375
1738772131088041200,2.990041259765625,-0.9462890625,-0.338287353515625,-0.0319976806640625
1738772131098032000,3.0000322265625,-0.9455413818359375,-0.339080810546875,-0.033355712890625
1738772131108023000,3.01002294921875,-0.946380615234375,-0.3376312255859375,-0.033355712890625
1738772131118015200,3.02001513671875,-0.94580078125,-0.337554931640625,-0.0326385498046875
1738772131128006100,3.030006103515625,-0.9447479248046875,-0.3380584716796875,-0.032989501953125
1738772131137997000,3.0399970703125,-0.94512939453125,-0.338348388671875,-0.032501220703125
1738772131147988200,3.04998828125,-0.94677734375,-0.3386993408203125,-0.0331573486328125
1738772131157979100,3.059979248046875,-0.9460296630859375,-0.3383636474609375,-0.0332794189453125
1738772131167970300,3.06997021484375,-0.94390869140625,-0.33880615234375,-0.0340576171875
1738772131177961200,3.079961181640625,-0.9469146728515625,-0.3388824462890625,-0.0337371826171875
1738772131187952400,3.089952392578125,-0.946136474609375,-0.3383941650390625,-0.0326080322265625
1738772131197944000,3.099944091796875,-0.9453582763671875,-0.3386993408203125,-0.034149169921875
1738772131207935000,3.10993505859375,-0.944366455078125,-0.3377227783203125,-0.03289794921875
1738772131217926100,3.119926025390625,-0.9457550048828125,-0.3386383056640625,-0.0342254638671875
1738772131227917300,3.129917236328125,-0.94598388671875,-0.3393096923828125,-0.03265380859375
1738772131237908200,3.139908203125,-0.94512939453125,-0.3380279541015625,-0.034027099609375
1738772131247899400,3.1498994140625,-0.944793701171875,-0.338836669921875,-0.0342864990234375
1738772131257890300,3.159890380859375,-0.9456329345703125,-0.33660888671875,-0.032989501953125
1738772131267882000,3.169882080078125,-0.9449310302734375,-0.3379058837890625,-0.0348052978515625
1738772131277873200,3.179873046875,-0.946319580078125,-0.3383331298828125,-0.03314208984375
1738772131287864300,3.1898642578125,-0.9451904296875,-0.33746337890625,-0.034271240234375
1738772131297855200,3.199855224609375,-0.9464263916015625,-0.33929443359375,-0.0350189208984375
1738772131307846400,3.209846435546875,-0.9480133056640625,-0.3396759033203125,-0.0335540771484375
1738772131317837300,3.21983740234375,-0.9449615478515625,-0.338958740234375,-0.032928466796875
1738772131327828200,3.229828125,-0.9454193115234375,-0.3384552001953125,-0.0339202880859375
1738772131337820400,3.2398203125,-0.9458465576171875,-0.339080810546875,-0.033111572265625
1738772131347811300,3.249811279296875,-0.9471435546875,-0.3372650146484375,-0.033355712890625
1738772131357802200,3.25980224609375,-0.94580078125,-0.3383331298828125,-0.0340728759765625
1738772131367793200,3.269793212890625,-0.945892333984375,-0.3392486572265625,-0.0347747802734375
1738772131377784300,3.279784423828125,-0.9452056884765625,-0.3397064208984375,-0.0324554443359375
1738772131387775200,3.289775146484375,-0.9452056884765625,-0.3380126953125,-0.03338623046875
1738772131397766100,3.29976611328125,-0.946807861328125,-0.3391265869140625,-0.03399658203125
1738772131407758300,3.30975830078125,-0.9442901611328125,-0.338592529296875,-0.033416748046875
1738772131417749200,3.319749267578125,-0.9443511962890625,-0.338775634765625,-0.0336456298828125
1738772131427740200,3.329740234375,-0.9454803466796875,-0.3393096923828125,-0.0343170166015625
1738772131437731300,3.3397314453125,-0.9453277587890625,-0.3374176025390625,-0.0341339111328125
1738772131447722200,3.34972216796875,-0.946685791015625,-0.3385162353515625,-0.034088134765625
1738772131457713200,3.359713134765625,-0.94622802734375,-0.3389434814453125,-0.033477783203125
1738772131467704300,3.369704345703125,-0.9441375732421875,-0.33941650390625,-0.0319671630859375
1738772131477696300,3.3796962890625,-0.946044921875,-0.3396148681640625,-0.03546142578125
1738772131487687200,3.389687255859375,-0.9463043212890625,-0.338226318359375,-0.0340728759765625
1738772131497678300,3.39967822265625,-0.945465087890625,-0.3387451171875,-0.0338134765625
1738772131507669200,3.409669189453125,-0.945281982421875,-0.3396453857421875,-0.0331878662109375
1738772131517660200,3.41966015625,-0.9462890625,-0.3387451171875,-0.0328216552734375
1738772131527651300,3.4296513671875,-0.94482421875,-0.337646484375,-0.0338592529296875
1738772131537642200,3.439642333984375,-0.9436492919921875,-0.338409423828125,-0.0323486328125
1738772131547634200,3.44963427734375,-0.946075439453125,-0.337982177734375,-0.03375244140625
1738772131557625300,3.459625244140625,-0.9458770751953125,-0.339599609375,-0.032745361328125
1738772131567616300,3.4696162109375,-0.945159912109375,-0.3379364013671875,-0.0328369140625
1738772131577607200,3.479607177734375,-0.9469146728515625,-0.3382720947265625,-0.03338623046875
1738772131587598000,3.48959814453125,-0.944610595703125,-0.3372650146484375,-0.0321044921875
1738772131597589200,3.49958935546875,-0.9462738037109375,-0.33819580078125,-0.0337677001953125
1738772131607580200,3.509580078125,-0.946502685546875,-0.33819580078125,-0.034454345703125
1738772131617572400,3.519572265625,-0.9443511962890625,-0.3387908935546875,-0.033111572265625
1738772131627563300,3.529563232421875,-0.9447784423828125,-0.3383331298828125,-0.03265380859375
1738772131637554200,3.53955419921875,-0.94549560546875,-0.3387451171875,-0.03253173828125
1738772131647545000,3.549545166015625,-0.94561767578125,-0.3379974365234375,-0.033355712890625
1738772131657536300,3.559536376953125,-0.945404052734375,-0.3374786376953125,-0.033233642578125
1738772131667527200,3.569527099609375,-0.9440765380859375,-0.3383331298828125,-0.0334320068359375
1738772131677518000,3.57951806640625,-0.9459075927734375,-0.33892822265625,-0.033447265625
1738772131687510300,3.58951025390625,-0.945953369140625,-0.3380889892578125,-0.03350830078125
1738772131697501200,3.599501220703125,-0.94573974609375,-0.3384246826171875,-0.0333099365234375
1738772131707492000,3.6094921875,-0.9449005126953125,-0.33819580078125,-0.0319976806640625
1738772131717483300,3.619483154296875,-0.9449310302734375,-0.3374786376953125,-0.032806396484375
1738772131727474200,3.62947412109375,-0.945098876953125,-0.3373565673828125,-0.03369140625
1738772131737465000,3.639465087890625,-0.9463653564453125,-0.3383026123046875,-0.0344390869140625
1738772131747456300,3.649456298828125,-0.94635009765625,-0.3378753662109375,-0.0345916748046875
1738772131757448200,3.6594482421875,-0.9459381103515625,-0.3369903564453125,-0.0335540771484375
1738772131767439000,3.669439208984375,-0.9451751708984375,-0.338592529296875,-0.0329742431640625
1738772131777430300,3.67943017578125,-0.9459991455078125,-0.3389434814453125,-0.0329437255859375
1738772131787421200,3.689421142578125,-0.9457244873046875,-0.3383636474609375,-0.0339813232421875
1738772131797412000,3.699412109375,-0.94464111328125,-0.338134765625,-0.0337982177734375
1738772131807403000,3.709403076171875,-0.945220947265625,-0.3383941650390625,-0.033660888671875
1738772131817394200,3.719394287109375,-0.947296142578125,-0.337982177734375,-0.0340576171875
1738772131827385000,3.729385009765625,-0.94683837890625,-0.3384552001953125,-0.0329132080078125
1738772131837377300,3.739377197265625,-0.945037841796875,-0.3392486572265625,-0.033294677734375
1738772131847368200,3.7493681640625,-0.946258544921875,-0.3383636474609375,-0.035064697265625
1738772131857359000,3.759359130859375,-0.9458770751953125,-0.3384857177734375,-0.032745361328125
1738772131867350000,3.76935009765625,-0.9448394775390625,-0.3383636474609375,-0.033355712890625
1738772131877341200,3.779341064453125,-0.9434967041015625,-0.3381805419921875,-0.03326416015625
1738772131887332000,3.78933203125,-0.946929931640625,-0.337493896484375,-0.032989501953125
1738772131897323000,3.799322998046875,-0.9470977783203125,-0.3382415771484375,-0.0338592529296875
1738772131907315200,3.809315185546875,-0.9461669921875,-0.3388214111328125,-0.0339202880859375
1738772131917306000,3.81930615234375,-0.9451141357421875,-0.337432861328125,-0.033721923828125
1738772131927297000,3.829297119140625,-0.9459381103515625,-0.3388671875,-0.0330352783203125
1738772131937288200,3.8392880859375,-0.9458465576171875,-0.338592529296875,-0.03338623046875
1738772131947279000,3.849279052734375,-0.945343017578125,-0.3373565673828125,-0.03375244140625
1738772131957270300,3.859270263671875,-0.9459686279296875,-0.33905029296875,-0.0334320068359375
1738772131967261400,3.869261474609375,-0.9456634521484375,-0.3384246826171875,-0.0330963134765625
1738772131977253000,3.879253173828125,-0.9467315673828125,-0.3380584716796875,-0.033416748046875
1738772131987244000,3.889244140625,-0.9455718994140625,-0.338623046875,-0.0321502685546875
1738772131997235000,3.89923486328125,-0.9435272216796875,-0.3366546630859375,-0.033447265625
1738772132007226000,3.90922607421875,-0.944366455078125,-0.3390655517578125,-0.0336456298828125
1738772132017217000,3.919217041015625,-0.9468994140625,-0.3388824462890625,-0.0329742431640625
1738772132027208200,3.929208251953125,-0.9454345703125,-0.3384246826171875,-0.033477783203125
1738772132037199000,3.93919921875,-0.9434051513671875,-0.3394775390625,-0.0343017578125
1738772132047190800,3.949190673828125,-0.9448394775390625,-0.3394622802734375,-0.033538818359375
1738772132057182000,3.959181884765625,-0.944732666015625,-0.338714599609375,-0.0330810546875
1738772132067173000,3.969173095703125,-0.9467010498046875,-0.3389739990234375,-0.03350830078125
1738772132077164000,3.9791640625,-0.945831298828125,-0.3385467529296875,-0.03265380859375
1738772132087155200,3.9891552734375,-0.94482421875,-0.3384246826171875,-0.03253173828125
1738772132097147000,3.99914697265625,-0.9458465576171875,-0.337860107421875,-0.0328216552734375
1738772132107137800,4.0091376953125,-0.9451141357421875,-0.3378753662109375,-0.03436279296875
1738772132117129000,4.01912890625,-0.9459228515625,-0.3395843505859375,-0.031982421875
1738772132127120100,4.0291201171875,-0.9462432861328125,-0.3387451171875,-0.0341796875
1738772132137111000,4.039111083984375,-0.944915771484375,-0.3384246826171875,-0.0338897705078125
1738772132147102000,4.04910205078125,-0.943450927734375,-0.3381805419921875,-0.03363037109375
1738772132157093000,4.059093017578125,-0.945770263671875,-0.338348388671875,-0.032196044921875
1738772132167084000,4.069083984375,-0.9457550048828125,-0.3383331298828125,-0.0330810546875
1738772132177076200,4.079076171875,-0.9449310302734375,-0.3383331298828125,-0.0337982177734375
1738772132187067100,4.089067138671875,-0.9443206787109375,-0.337646484375,-0.0334625244140625
1738772132197058000,4.09905810546875,-0.9448089599609375,-0.3392333984375,-0.03253173828125
1738772132207049000,4.109049072265625,-0.946044921875,-0.3385467529296875,-0.0330810546875
1738772132217040100,4.1190400390625,-0.9462432861328125,-0.3379974365234375,-0.0336456298828125
1738772132227031000,4.129031005859375,-0.945892333984375,-0.3385772705078125,-0.033447265625
1738772132237022000,4.13902197265625,-0.9453887939453125,-0.3392181396484375,-0.033050537109375
1738772132247014100,4.14901416015625,-0.9449615478515625,-0.339752197265625,-0.03350830078125
1738772132257005000,4.159005126953125,-0.9449615478515625,-0.3375091552734375,-0.03277587890625
1738772132266996000,4.168995849609375,-0.9458770751953125,-0.3379058837890625,-0.0340423583984375
1738772132276987100,4.178987060546875,-0.946075439453125,-0.33880615234375,-0.033355712890625
1738772132286978000,4.18897802734375,-0.9453277587890625,-0.337982177734375,-0.034088134765625
1738772132296969000,4.198968994140625,-0.945404052734375,-0.3395233154296875,-0.0331573486328125
1738772132306960100,4.208960205078125,-0.946014404296875,-0.3380126953125,-0.0319976806640625
1738772132316952000,4.2189521484375,-0.9454803466796875,-0.3380889892578125,-0.034027099609375
1738772132326943000,4.22894287109375,-0.9454345703125,-0.3375396728515625,-0.034149169921875
1738772132336934100,4.23893408203125,-0.94549560546875,-0.339752197265625,-0.032958984375
1738772132346925000,4.248925048828125,-0.945556640625,-0.3388214111328125,-0.0323028564453125
1738772132356916000,4.258916015625,-0.9443511962890625,-0.336761474609375,-0.03326416015625
1738772132366907000,4.268906982421875,-0.945709228515625,-0.33941650390625,-0.03363037109375
1738772132376898000,4.27889794921875,-0.9461822509765625,-0.3389129638671875,-0.0344390869140625
1738772132386889000,4.288888916015625,-0.94677734375,-0.3389434814453125,-0.0325469970703125
1738772132396881200,4.298881103515625,-0.94512939453125,-0.3376312255859375,-0.0338134765625
1738772132406872000,4.3088720703125,-0.9435882568359375,-0.338165283203125,-0.033843994140625
1738772132416863000,4.318863037109375,-0.9447479248046875,-0.3377838134765625,-0.0330657958984375
1738772132426854000,4.32885400390625,-0.9466400146484375,-0.3385467529296875,-0.0338134765625
1738772132436845000,4.338844970703125,-0.945343017578125,-0.3383941650390625,-0.0350341796875
1738772132446836000,4.3488359375,-0.9469146728515625,-0.3377532958984375,-0.0334014892578125
1738772132456827000,4.358826904296875,-0.9455413818359375,-0.33892822265625,-0.03338623046875
1738772132466819000,4.368819091796875,-0.946319580078125,-0.339202880859375,-0.032958984375
1738772132476810000,4.37881005859375,-0.94635009765625,-0.33856201171875,-0.0336151123046875
1738772132486801000,4.38880078125,-0.945098876953125,-0.3397674560546875,-0.034210205078125
1738772132496792000,4.3987919921875,-0.945953369140625,-0.3379669189453125,-0.033905029296875
1738772132506783000,4.408782958984375,-0.94561767578125,-0.338592529296875,-0.0331268310546875
1738772132516774000,4.41877392578125,-0.945037841796875,-0.3392486572265625,-0.0330963134765625
1738772132526765000,4.42876513671875,-0.9444122314453125,-0.338104248046875,-0.0337066650390625
1738772132536757000,4.438757080078125,-0.9468994140625,-0.3386688232421875,-0.0330963134765625
1738772132546748000,4.448747802734375,-0.9463653564453125,-0.339019775390625,-0.0333251953125
1738772132556739000,4.458739013671875,-0.945068359375,-0.3385467529296875,-0.034149169921875
1738772132566730000,4.46872998046875,-0.9460601806640625,-0.3390960693359375,-0.03460693359375
1738772132576721000,4.478720947265625,-0.94598388671875,-0.3388671875,-0.0346832275390625
1738772132586711800,4.4887119140625,-0.9454193115234375,-0.3386077880859375,-0.0334320068359375
1738772132596703000,4.498702880859375,-0.945556640625,-0.3379669189453125,-0.034454345703125
1738772132606694000,4.50869384765625,-0.946380615234375,-0.33740234375,-0.0332794189453125
1738772132616686000,4.51868603515625,-0.9469146728515625,-0.337982177734375,-0.0326995849609375
1738772132626677000,4.528677001953125,-0.94427490234375,-0.3388824462890625,-0.034576416015625
1738772132636668000,4.53866796875,-0.9461517333984375,-0.339752197265625,-0.0330352783203125
1738772132646658800,4.548658935546875,-0.9456939697265625,-0.3385772705078125,-0.0322723388671875
1738772132656650000,4.55864990234375,-0.9448394775390625,-0.3378143310546875,-0.0346221923828125
1738772132666641000,4.568640869140625,-0.944305419921875,-0.3375701904296875,-0.0330047607421875
1738772132676631800,4.5786318359375,-0.9454193115234375,-0.3392486572265625,-0.032318115234375
1738772132686624000,4.5886240234375,-0.946533203125,-0.3376312255859375,-0.0332183837890625
1738772132696615000,4.598614990234375,-0.944915771484375,-0.339019775390625,-0.03460693359375
1738772132706605800,4.608605712890625,-0.9457550048828125,-0.339508056640625,-0.03399658203125
1738772132716597000,4.618596923828125,-0.944671630859375,-0.3376312255859375,-0.0332794189453125
1738772132726588000,4.628587890625,-0.9459991455078125,-0.338348388671875,-0.0336456298828125
1738772132736578800,4.638578857421875,-0.945892333984375,-0.3383331298828125,-0.033599853515625
1738772132746570000,4.648570068359375,-0.9452972412109375,-0.3397369384765625,-0.03289794921875
1738772132756562000,4.65856201171875,-0.9455718994140625,-0.337432861328125,-0.0333709716796875
1738772132766552800,4.668552734375,-0.94683837890625,-0.3383026123046875,-0.033233642578125
1738772132776544000,4.6785439453125,-0.9462890625,-0.338287353515625,-0.0330352783203125
1738772132786535000,4.688534912109375,-0.9452362060546875,-0.337890625,-0.0337066650390625
1738772132796526000,4.698526123046875,-0.9452972412109375,-0.3380279541015625,-0.0340118408203125
1738772132806517000,4.70851708984375,-0.945709228515625,-0.33819580078125,-0.033843994140625
1738772132816508200,4.718508056640625,-0.946197509765625,-0.3375396728515625,-0.0345458984375
1738772132826499800,4.728499755859375,-0.9441986083984375,-0.337860107421875,-0.03411865234375
1738772132836491000,4.738490966796875,-0.94512939453125,-0.338226318359375,-0.0320587158203125
1738772132846482000,4.74848193359375,-0.9452056884765625,-0.337890625,-0.0340423583984375
1738772132856473000,4.75847314453125,-0.9453125,-0.3399658203125,-0.0335845947265625
1738772132866464000,4.768464111328125,-0.94647216796875,-0.3391876220703125,-0.03277587890625
1738772132876455200,4.778455078125,-0.94635009765625,-0.338623046875,-0.03424072265625
1738772132886446000,4.788446044921875,-0.9455108642578125,-0.3389434814453125,-0.032928466796875
1738772132896437800,4.798437744140625,-0.9449005126953125,-0.33831787109375,-0.0331268310546875
1738772132906429000,4.808428955078125,-0.9445343017578125,-0.3386993408203125,-0.0338287353515625
1738772132916420000,4.818420166015625,-0.9456787109375,-0.3388214111328125,-0.03253173828125
1738772132926411000,4.828410888671875,-0.945709228515625,-0.3392333984375,-0.034423828125
1738772132936402200,4.838402099609375,-0.946044921875,-0.3385162353515625,-0.0322418212890625
1738772132946393000,4.84839306640625,-0.94677734375,-0.3384552001953125,-0.03271484375
1738772132956384000,4.858384033203125,-0.9459991455078125,-0.3386688232421875,-0.0347137451171875
1738772132966376200,4.868376220703125,-0.945526123046875,-0.3386688232421875,-0.0334320068359375
1738772132976367000,4.8783671875,-0.9464263916015625,-0.33917236328125,-0.0335693359375
1738772132986358000,4.88835791015625,-0.9450531005859375,-0.33837890625,-0.033294677734375
1738772132996349000,4.898348876953125,-0.9456939697265625,-0.33953857421875,-0.033172607421875
1738772133006340000,4.908340087890625,-0.945953369140625,-0.3379058837890625,-0.0335540771484375
1738772133016331000,4.9183310546875,-0.9460906982421875,-0.3374481201171875,-0.033477783203125
1738772133026322000,4.928322021484375,-0.9456329345703125,-0.3394927978515625,-0.0332489013671875
1738772133036314000,4.938314208984375,-0.94598388671875,-0.3388519287109375,-0.0334320068359375
1738772133046305000,4.948304931640625,-0.945465087890625,-0.3389739990234375,-0.034088134765625
1738772133056296000,4.9582958984375,-0.9459075927734375,-0.338104248046875,-0.0343170166015625
1738772133066287000,4.968287109375,-0.9443359375,-0.3389739990234375,-0.034637451171875
1738772133076278000,4.978278076171875,-0.9444427490234375,-0.339263916015625,-0.032379150390625
1738772133086269000,4.98826904296875,-0.9470977783203125,-0.33782958984375,-0.0322723388671875
1738772133096259800,4.998259765625,-0.9447784423828125,-0.338623046875,-0.034027099609375
1738772133106252000,5.008251953125,-0.945892333984375,-0.338134765625,-0.033966064453125
1738772133116243000,5.018242919921875,-0.94708251953125,-0.33795166015625,-0.033721923828125
1738772133126234000,5.028234130859375,-0.946563720703125,-0.338043212890625,-0.0348663330078125
1738772133136225000,5.03822509765625,-0.9459686279296875,-0.338104248046875,-0.033203125
1738772133146216000,5.0482158203125,-0.94598388671875,-0.3394012451171875,-0.0331573486328125
1738772133156206800,5.058206787109375,-0.9466552734375,-0.337982177734375,-0.03289794921875
1738772133166198000,5.068197998046875,-0.9445648193359375,-0.338043212890625,-0.032867431640625
1738772133176190000,5.07818994140625,-0.9448699951171875,-0.337005615234375,-0.0335235595703125
1738772133186181000,5.08818115234375,-0.9466705322265625,-0.3380279541015625,-0.03363037109375
1738772133196172000,5.098172119140625,-0.94586181640625,-0.339569091796875,-0.0332794189453125
1738772133206163000,5.108162841796875,-0.945648193359375,-0.3390960693359375,-0.03448486328125
1738772133216153900,5.11815380859375,-0.945648193359375,-0.3392333984375,-0.033538818359375
1738772133226145000,5.12814501953125,-0.9456787109375,-0.3389129638671875,-0.0334014892578125
1738772133236136000,5.138135986328125,-0.945281982421875,-0.337982177734375,-0.0325164794921875
1738772133246126800,5.148126953125,-0.945465087890625,-0.338409423828125,-0.033233642578125
1738772133256119000,5.158119140625,-0.9448699951171875,-0.3388519287109375,-0.03131103515625
1738772133266110000,5.16810986328125,-0.94635009765625,-0.33758544921875,-0.0321044921875
1738772133276100900,5.178100830078125,-0.94659423828125,-0.3392486572265625,-0.0336456298828125
1738772133286092000,5.188092041015625,-0.94512939453125,-0.3386688232421875,-0.0331878662109375
1738772133296083000,5.1980830078125,-0.945465087890625,-0.3383636474609375,-0.034149169921875
1738772133306073900,5.208073974609375,-0.9458770751953125,-0.3383636474609375,-0.033447265625
1738772133316064800,5.218064697265625,-0.944854736328125,-0.3397216796875,-0.0327301025390625
1738772133326057000,5.228056884765625,-0.94598388671875,-0.338897705078125,-0.0341033935546875
1738772133336047900,5.2380478515625,-0.9463958740234375,-0.3371429443359375,-0.031982421875
1738772133346039000,5.2480390625,-0.9446868896484375,-0.338165283203125,-0.0339813232421875
1738772133356030000,5.258030029296875,-0.946075439453125,-0.3390655517578125,-0.032867431640625
1738772133366020900,5.268020751953125,-0.945953369140625,-0.33734130859375,-0.032623291015625
1738772133376011800,5.27801171875,-0.944610595703125,-0.3389892578125,-0.03265380859375
1738772133386003000,5.2880029296875,-0.9447784423828125,-0.338623046875,-0.0328216552734375
1738772133395995000,5.297994873046875,-0.944610595703125,-0.340576171875,-0.0333251953125
1738772133405985800,5.30798583984375,-0.945037841796875,-0.3387298583984375,-0.0332183837890625
1738772133415977000,5.31797705078125,-0.94683837890625,-0.33868408203125,-0.0328826904296875
1738772133425967900,5.3279677734375,-0.9440460205078125,-0.3382415771484375,-0.032867431640625
1738772133435958800,5.337958740234375,-0.9453277587890625,-0.3384246826171875,-0.0335540771484375
1738772133445950000,5.347949951171875,-0.946380615234375,-0.338470458984375,-0.0325164794921875
1738772133455940900,5.35794091796875,-0.945648193359375,-0.3373565673828125,-0.03448486328125
1738772133465931800,5.367931884765625,-0.9481964111328125,-0.3383331298828125,-0.034271240234375
1738772133475924000,5.377924072265625,-0.944671630859375,-0.3373870849609375,-0.0341033935546875
1738772133485915000,5.387914794921875,-0.944580078125,-0.3381805419921875,-0.03350830078125
1738772133495905800,5.39790576171875,-0.945098876953125,-0.3387603759765625,-0.0333709716796875
1738772133505897000,5.40789697265625,-0.9460296630859375,-0.3376312255859375,-0.0339813232421875
1738772133515887900,5.417887939453125,-0.945343017578125,-0.3383636474609375,-0.033905029296875
1738772133525878800,5.427878662109375,-0.9447021484375,-0.3389892578125,-0.033599853515625
1738772133535870000,5.437869873046875,-0.9449920654296875,-0.339874267578125,-0.03289794921875
1738772133545862000,5.44786181640625,-0.944671630859375,-0.3390960693359375,-0.03271484375
1738772133555852800,5.457852783203125,-0.9455718994140625,-0.338836669921875,-0.03424072265625
1738772133565844000,5.467843994140625,-0.94744873046875,-0.3387298583984375,-0.0335540771484375
1738772133575835000,5.4778349609375,-0.9439239501953125,-0.33795166015625,-0.0335235595703125
1738772133585826000,5.487825927734375,-0.94561767578125,-0.33905029296875,-0.0343475341796875
1738772133595817000,5.49781689453125,-0.944488525390625,-0.3378143310546875,-0.0329742431640625
1738772133605808000,5.50780810546875,-0.9443206787109375,-0.3388671875,-0.0341644287109375
1738772133615799800,5.5177998046875,-0.9451904296875,-0.33831787109375,-0.033172607421875
1738772133625790700,5.527790771484375,-0.946136474609375,-0.3382415771484375,-0.0345611572265625
1738772133635782000,5.537781982421875,-0.94525146484375,-0.338775634765625,-0.03302001953125
1738772133645773000,5.54777294921875,-0.94488525390625,-0.33795166015625,-0.0337982177734375
1738772133655764000,5.557763916015625,-0.9443511962890625,-0.338836669921875,-0.034759521484375
1738772133665755100,5.567755126953125,-0.94622802734375,-0.338226318359375,-0.034027099609375
1738772133675746000,5.57774609375,-0.94635009765625,-0.338531494140625,-0.03265380859375
1738772133685737700,5.58773779296875,-0.94537353515625,-0.3386383056640625,-0.0342864990234375
1738772133695729000,5.59772900390625,-0.944671630859375,-0.3391571044921875,-0.034332275390625
1738772133705720000,5.607719970703125,-0.945465087890625,-0.33807373046875,-0.032928466796875
1738772133715711000,5.6177109375,-0.9452972412109375,-0.339202880859375,-0.032928466796875
1738772133725702100,5.6277021484375,-0.9456939697265625,-0.339935302734375,-0.03350830078125
1738772133735693000,5.637693115234375,-0.9464263916015625,-0.33831787109375,-0.033233642578125
1738772133745684000,5.64768408203125,-0.944854736328125,-0.33734130859375,-0.0326995849609375
1738772133755675000,5.6576748046875,-0.9454345703125,-0.3377685546875,-0.0344390869140625
1738772133765667000,5.6676669921875,-0.9468231201171875,-0.33831787109375,-0.034423828125
1738772133775658000,5.677657958984375,-0.9469451904296875,-0.3383026123046875,-0.0339813232421875
1738772133785649200,5.687649169921875,-0.94549560546875,-0.3384552001953125,-0.0335693359375
1738772133795640000,5.69764013671875,-0.9452056884765625,-0.33831787109375,-0.0324554443359375
1738772133805631000,5.707630859375,-0.9451751708984375,-0.337982177734375,-0.03338623046875
1738772133815622000,5.717621826171875,-0.9466705322265625,-0.3393402099609375,-0.0334320068359375
1738772133825613000,5.727613037109375,-0.9463958740234375,-0.338653564453125,-0.032501220703125
1738772133835605000,5.73760498046875,-0.944366455078125,-0.338958740234375,-0.033660888671875
1738772133845596000,5.747595947265625,-0.9447021484375,-0.339630126953125,-0.0340728759765625
1738772133855587000,5.757587158203125,-0.945648193359375,-0.3383026123046875,-0.0343475341796875
1738772133865578000,5.767577880859375,-0.946044921875,-0.338165283203125,-0.03277587890625
1738772133875569000,5.77756884765625,-0.9454193115234375,-0.3387451171875,-0.0321044921875
1738772133885560000,5.78756005859375,-0.9467620849609375,-0.33843994140625,-0.0335845947265625
1738772133895551000,5.797551025390625,-0.9456939697265625,-0.3383636474609375,-0.033355712890625
1738772133905542000,5.8075419921875,-0.9450836181640625,-0.3383026123046875,-0.0337066650390625
1738772133915534000,5.8175341796875,-0.94482421875,-0.3388824462890625,-0.032440185546875
1738772133925525000,5.82752490234375,-0.9453887939453125,-0.338134765625,-0.032257080078125
1738772133935516000,5.837515869140625,-0.94561767578125,-0.3374481201171875,-0.0326385498046875
1738772133945507000,5.847507080078125,-0.946563720703125,-0.339019775390625,-0.032440185546875
1738772133955498000,5.857498046875,-0.946044921875,-0.3376922607421875,-0.034576416015625
1738772133965489000,5.867489013671875,-0.94451904296875,-0.33770751953125,-0.0325775146484375
1738772133975479800,5.877479736328125,-0.9464569091796875,-0.3392791748046875,-0.0334625244140625
1738772133985472000,5.887471923828125,-0.946075439453125,-0.3399505615234375,-0.0341949462890625
1738772133995463000,5.897462890625,-0.9453887939453125,-0.3375244140625,-0.034027099609375
1738772134005453800,5.907453857421875,-0.944091796875,-0.338592529296875,-0.034027099609375
1738772134015444700,5.91744482421875,-0.945465087890625,-0.338958740234375,-0.0327301025390625
1738772134025436000,5.927435791015625,-0.944305419921875,-0.3394622802734375,-0.0352630615234375
1738772134035426800,5.9374267578125,-0.9453277587890625,-0.33953857421875,-0.033843994140625
1738772134045417700,5.947417724609375,-0.9454803466796875,-0.3385772705078125,-0.032562255859375
1738772134055408600,5.95740869140625,-0.94500732421875,-0.338775634765625,-0.0334320068359375
1738772134065400800,5.96740087890625,-0.946563720703125,-0.3375244140625,-0.033477783203125
1738772134075391700,5.977391845703125,-0.9454193115234375,-0.3387451171875,-0.0330810546875
1738772134085383000,5.9873828125,-0.94415283203125,-0.3378143310546875,-0.032684326171875
1738772134095373800,5.997373779296875,-0.9454803466796875,-0.3379058837890625,-0.032928466796875
1738772134105364700,6.00736474609375,-0.947479248046875,-0.3386077880859375,-0.0339813232421875
1738772134115355600,6.017355712890625,-0.946868896484375,-0.3382720947265625,-0.0339202880859375
1738772134125346800,6.027346923828125,-0.94580078125,-0.3383636474609375,-0.0338897705078125
1738772134135338800,6.0373388671875,-0.945220947265625,-0.33807373046875,-0.0335235595703125
1738772134145329700,6.04732958984375,-0.9441986083984375,-0.3379669189453125,-0.032867431640625
1738772134155320800,6.05732080078125,-0.9466705322265625,-0.339019775390625,-0.0321044921875
1738772134165311700,6.067311767578125,-0.9447479248046875,-0.338134765625,-0.033538818359375
1738772134175302700,6.077302734375,-0.9427490234375,-0.3375396728515625,-0.0335235595703125
1738772134185293800,6.0872939453125,-0.94549560546875,-0.3390350341796875,-0.0332794189453125
1738772134195284700,6.09728466796875,-0.9466705322265625,-0.3393402099609375,-0.032806396484375
1738772134205275600,6.107275634765625,-0.9454803466796875,-0.339447021484375,-0.0333099365234375
1738772134215267800,6.117267822265625,-0.9460296630859375,-0.3384246826171875,-0.0323638916015625
1738772134225258800,6.1272587890625,-0.9459228515625,-0.3380279541015625,-0.032684326171875
1738772134235249700,6.137249755859375,-0.9449615478515625,-0.339141845703125,-0.03314208984375
1738772134245240800,6.14724072265625,-0.945587158203125,-0.339019775390625,-0.03509521484375
1738772134255231700,6.157231689453125,-0.944244384765625,-0.338226318359375,-0.0344696044921875
1738772134265223000,6.167222900390625,-0.9456939697265625,-0.3383026123046875,-0.0330047607421875
1738772134275213800,6.1772138671875,-0.9445343017578125,-0.337066650390625,-0.033843994140625
1738772134285205800,6.187205810546875,-0.944091796875,-0.3371124267578125,-0.0348052978515625
1738772134295196700,6.19719677734375,-0.9448699951171875,-0.3388824462890625,-0.0340576171875
1738772134305187800,6.207187744140625,-0.9446563720703125,-0.337860107421875,-0.032989501953125
1738772134315178800,6.2171787109375,-0.945831298828125,-0.3386383056640625,-0.033294677734375
1738772134325170000,6.227169921875,-0.9448699951171875,-0.3380279541015625,-0.03240966796875
1738772134335160800,6.237160888671875,-0.9462127685546875,-0.337615966796875,-0.0335693359375
1738772134345152000,6.247152099609375,-0.947357177734375,-0.3386688232421875,-0.03399658203125
1738772134355143000,6.257142822265625,-0.94683837890625,-0.33892822265625,-0.0339813232421875
1738772134365134600,6.267134521484375,-0.9452972412109375,-0.3381805419921875,-0.033660888671875
1738772134375125800,6.277125732421875,-0.9451751708984375,-0.3377227783203125,-0.03277587890625
1738772134385117000,6.287116943359375,-0.9463348388671875,-0.3375396728515625,-0.03350830078125
1738772134395107800,6.29710791015625,-0.94659423828125,-0.3383636474609375,-0.033477783203125
1738772134405099000,6.30709912109375,-0.945770263671875,-0.3376922607421875,-0.034210205078125
1738772134415090000,6.31708984375,-0.9458770751953125,-0.337310791015625,-0.0340576171875
1738772134425080800,6.327080810546875,-0.94635009765625,-0.3397674560546875,-0.033538818359375
1738772134435073000,6.337072998046875,-0.945526123046875,-0.3391876220703125,-0.03253173828125
1738772134445064000,6.34706396484375,-0.9465179443359375,-0.3375091552734375,-0.0329437255859375
1738772134455054800,6.357054931640625,-0.94464111328125,-0.3378753662109375,-0.034149169921875
1738772134465046000,6.3670458984375,-0.945465087890625,-0.3379974365234375,-0.0330963134765625
1738772134475037000,6.377036865234375,-0.9460296630859375,-0.3385162353515625,-0.0325927734375
1738772134485027800,6.38702783203125,-0.9459686279296875,-0.3385772705078125,-0.0336761474609375
1738772134495018800,6.397018798828125,-0.945526123046875,-0.337554931640625,-0.0339508056640625
1738772134505010000,6.407010009765625,-0.9453125,-0.338043212890625,-0.0340423583984375
1738772134515001900,6.417001953125,-0.946014404296875,-0.3372039794921875,-0.0346221923828125
1738772134524993000,6.426992919921875,-0.944549560546875,-0.3376617431640625,-0.03424072265625
1738772134534984000,6.43698388671875,-0.944610595703125,-0.338775634765625,-0.0333404541015625
1738772134544974800,6.446974853515625,-0.946075439453125,-0.339141845703125,-0.03240966796875
1738772134554965800,6.4569658203125,-0.945953369140625,-0.3394317626953125,-0.0337982177734375
1738772134564957000,6.46695703125,-0.946044921875,-0.3390960693359375,-0.033416748046875
1738772134574947800,6.47694775390625,-0.9451141357421875,-0.3376617431640625,-0.032684326171875
1738772134584939800,6.486939697265625,-0.946380615234375,-0.338897705078125,-0.0322265625
1738772134594931000,6.496930908203125,-0.9458770751953125,-0.3381500244140625,-0.034027099609375
1738772134604921900,6.506921875,-0.94512939453125,-0.338531494140625,-0.0333404541015625
1738772134614912800,6.516912841796875,-0.945343017578125,-0.338287353515625,-0.034332275390625
1738772134624904000,6.526904052734375,-0.9453125,-0.3382568359375,-0.0342254638671875
1738772134634894800,6.536894775390625,-0.9451141357421875,-0.3385162353515625,-0.0339813232421875
1738772134644885800,6.5468857421875,-0.9477386474609375,-0.3385162353515625,-0.0331268310546875
1738772134654876700,6.556876708984375,-0.9459381103515625,-0.33819580078125,-0.03302001953125
1738772134664868900,6.566868896484375,-0.9445037841796875,-0.338470458984375,-0.0340728759765625
1738772134674859800,6.57685986328125,-0.9468231201171875,-0.3385772705078125,-0.0341644287109375
1738772134684851000,6.586850830078125,-0.9465179443359375,-0.3380126953125,-0.0328369140625
1738772134694841900,6.596841796875,-0.9433441162109375,-0.337982177734375,-0.03411865234375
1738772134704832800,6.606832763671875,-0.9448699951171875,-0.33856201171875,-0.03289794921875
1738772134714823700,6.61682373046875,-0.9457855224609375,-0.3380279541015625,-0.03338623046875
1738772134724814800,6.62681494140625,-0.9471435546875,-0.3380889892578125,-0.033843994140625
1738772134734805800,6.6368056640625,-0.944854736328125,-0.3385467529296875,-0.033966064453125
1738772134744797700,6.646797607421875,-0.9450836181640625,-0.3378143310546875,-0.033477783203125
1738772134754788900,6.656788818359375,-0.9467926025390625,-0.338287353515625,-0.033111572265625
1738772134764779800,6.66677978515625,-0.9470672607421875,-0.336273193359375,-0.03338623046875
1738772134774770700,6.676770751953125,-0.947021484375,-0.337432861328125,-0.0334625244140625
1738772134784761900,6.686761962890625,-0.944305419921875,-0.3385162353515625,-0.03436279296875
1738772134794752800,6.696752685546875,-0.9470367431640625,-0.3389739990234375,-0.0315093994140625
1738772134804743700,6.70674365234375,-0.9456634521484375,-0.33868408203125,-0.0338897705078125
1738772134814736000,6.71673583984375,-0.945404052734375,-0.3378753662109375,-0.0330047607421875
1738772134824726800,6.726726806640625,-0.9461517333984375,-0.3376617431640625,-0.0345916748046875
1738772134834717700,6.7367177734375,-0.9447784423828125,-0.3383026123046875,-0.0339202880859375
1738772134844708900,6.746708984375,-0.9465484619140625,-0.338897705078125,-0.0334014892578125
1738772134854699800,6.75669970703125,-0.9463348388671875,-0.3385467529296875,-0.034423828125
1738772134864690700,6.766690673828125,-0.94403076171875,-0.337982177734375,-0.032501220703125
1738772134874681600,6.776681640625,-0.9437713623046875,-0.3386077880859375,-0.0322265625
1738772134884672800,6.7866728515625,-0.9454803466796875,-0.33837890625,-0.0331573486328125
1738772134894664700,6.796664794921875,-0.946136474609375,-0.33807373046875,-0.0330047607421875
1738772134904656000,6.80665576171875,-0.9460296630859375,-0.337646484375,-0.03436279296875
1738772134914646800,6.816646728515625,-0.9456939697265625,-0.339385986328125,-0.0340576171875
1738772134924637700,6.8266376953125,-0.9456024169921875,-0.3392486572265625,-0.0341644287109375
1738772134934628600,6.836628662109375,-0.94549560546875,-0.337646484375,-0.0342864990234375
1738772134944619800,6.846619873046875,-0.9443817138671875,-0.33758544921875,-0.0337371826171875
1738772134954611000,6.85661083984375,-0.9453582763671875,-0.3375244140625,-0.033203125
1738772134964601900,6.866601806640625,-0.945556640625,-0.337646484375,-0.033172607421875
1738772134974593800,6.87659375,-0.945587158203125,-0.338104248046875,-0.03277587890625
1738772134984584700,6.886584716796875,-0.9461212158203125,-0.33782958984375,-0.0335845947265625
1738772134994576100,6.896576171875,-0.94549560546875,-0.339019775390625,-0.03326416015625
1738772135004567000,6.906567138671875,-0.9445343017578125,-0.338714599609375,-0.03411865234375
1738772135014558200,6.91655810546875,-0.9459075927734375,-0.3389434814453125,-0.034027099609375
1738772135024549000,6.926549072265625,-0.9465484619140625,-0.3386993408203125,-0.0330352783203125
1738772135034540300,6.936540283203125,-0.9459381103515625,-0.3389739990234375,-0.0345458984375
1738772135044532200,6.9465322265625,-0.9445648193359375,-0.3385772705078125,-0.0340576171875
1738772135054523100,6.956523193359375,-0.9458465576171875,-0.3391265869140625,-0.0339202880859375
1738772135064514000,6.96651416015625,-0.9468536376953125,-0.3382720947265625,-0.033599853515625
1738772135074505200,6.976505126953125,-0.9454345703125,-0.338134765625,-0.0341949462890625
1738772135084496400,6.986496337890625,-0.945465087890625,-0.3369598388671875,-0.0335540771484375
1738772135094487300,6.9964873046875,-0.9454345703125,-0.3379669189453125,-0.03369140625
1738772135104478500,7.006478515625,-0.9454193115234375,-0.338134765625,-0.0343780517578125
1738772135114469400,7.016469482421875,-0.9446563720703125,-0.3377532958984375,-0.03466796875
1738772135124461000,7.0264609375,-0.944854736328125,-0.3378143310546875,-0.03363037109375
1738772135134452200,7.0364521484375,-0.944427490234375,-0.3380889892578125,-0.0337677001953125
1738772135144443400,7.046443359375,-0.9452056884765625,-0.338287353515625,-0.033447265625
1738772135154434300,7.056434326171875,-0.9448394775390625,-0.3381805419921875,-0.0343780517578125
1738772135164425200,7.06642529296875,-0.9451751708984375,-0.337249755859375,-0.0330963134765625
1738772135174416400,7.07641650390625,-0.9466705322265625,-0.3382110595703125,-0.0326080322265625
1738772135184407300,7.0864072265625,-0.9471588134765625,-0.33740234375,-0.0337371826171875
1738772135194399200,7.096399169921875,-0.945159912109375,-0.3382110595703125,-0.033843994140625
1738772135204390400,7.106390380859375,-0.9459075927734375,-0.3397369384765625,-0.033782958984375
1738772135214381300,7.11638134765625,-0.9455718994140625,-0.3391265869140625,-0.03314208984375
1738772135224372200,7.126372314453125,-0.9448699951171875,-0.3396148681640625,-0.03466796875
1738772135234363400,7.13636328125,-0.94464111328125,-0.3384246826171875,-0.0332489013671875
1738772135244354300,7.146354248046875,-0.9451751708984375,-0.33782958984375,-0.033660888671875
1738772135254345200,7.15634521484375,-0.9462127685546875,-0.3386383056640625,-0.0325469970703125
1738772135264336400,7.16633642578125,-0.945526123046875,-0.3381500244140625,-0.03302001953125
1738772135274328300,7.176328369140625,-0.9445953369140625,-0.3373260498046875,-0.0339813232421875
1738772135284319200,7.1863193359375,-0.9457244873046875,-0.3388824462890625,-0.0342559814453125
1738772135294310400,7.196310302734375,-0.9453277587890625,-0.3382415771484375,-0.0337066650390625
1738772135304301300,7.20630126953125,-0.9457244873046875,-0.3369140625,-0.0340728759765625
1738772135314292200,7.216292236328125,-0.946136474609375,-0.33868408203125,-0.033721923828125
1738772135324283100,7.226283203125,-0.9454345703125,-0.3378753662109375,-0.0332183837890625
1738772135334274300,7.2362744140625,-0.9468994140625,-0.33795166015625,-0.0344085693359375
1738772135344265200,7.24626513671875,-0.9443359375,-0.3377838134765625,-0.0336761474609375
1738772135354257400,7.25625732421875,-0.944671630859375,-0.3388824462890625,-0.03375244140625
1738772135364248300,7.266248291015625,-0.9450225830078125,-0.3388824462890625,-0.0333404541015625
1738772135374239200,7.2762392578125,-0.945220947265625,-0.338104248046875,-0.0340728759765625
1738772135384230100,7.286230224609375,-0.944976806640625,-0.33843994140625,-0.0329437255859375
1738772135394221300,7.29622119140625,-0.945343017578125,-0.3385772705078125,-0.0334930419921875
1738772135404212200,7.306212158203125,-0.9461212158203125,-0.3393402099609375,-0.033111572265625
1738772135414203100,7.316203125,-0.94659423828125,-0.339111328125,-0.0340576171875
1738772135424195300,7.3261953125,-0.9455108642578125,-0.3397216796875,-0.0346221923828125
1738772135434186200,7.336186279296875,-0.945526123046875,-0.33966064453125,-0.032196044921875
1738772135444177200,7.34617724609375,-0.9451751708984375,-0.3374176025390625,-0.0333404541015625
1738772135454168300,7.356168212890625,-0.9433746337890625,-0.3385162353515625,-0.03424072265625
1738772135464159200,7.3661591796875,-0.94537353515625,-0.337890625,-0.0322723388671875
1738772135474150100,7.376150146484375,-0.9467010498046875,-0.337249755859375,-0.0332489013671875
1738772135484141300,7.386141357421875,-0.9435577392578125,-0.33917236328125,-0.034454345703125
1738772135494132200,7.39613232421875,-0.9440155029296875,-0.340362548828125,-0.0337677001953125
1738772135504124200,7.406124267578125,-0.9453277587890625,-0.3391571044921875,-0.03271484375
1738772135514115300,7.416115234375,-0.9464874267578125,-0.3371429443359375,-0.0334930419921875
1738772135524106200,7.426106201171875,-0.94482421875,-0.337921142578125,-0.0343780517578125
1738772135534097200,7.43609716796875,-0.945159912109375,-0.3387603759765625,-0.033935546875
1738772135544088000,7.446088134765625,-0.946197509765625,-0.3381195068359375,-0.0320587158203125
1738772135554079200,7.456079345703125,-0.9450531005859375,-0.33880615234375,-0.0335235595703125
1738772135564070100,7.466070068359375,-0.9457244873046875,-0.339019775390625,-0.03338623046875
1738772135574062300,7.476062255859375,-0.9464111328125,-0.3390350341796875,-0.03399658203125
1738772135584053200,7.48605322265625,-0.945770263671875,-0.3377838134765625,-0.0341796875
1738772135594044200,7.496044189453125,-0.9466552734375,-0.338348388671875,-0.0352935791015625
1738772135604035000,7.50603515625,-0.9445648193359375,-0.3386383056640625,-0.0339813232421875
1738772135614026200,7.516026123046875,-0.9466400146484375,-0.3390960693359375,-0.032867431640625
1738772135624017200,7.52601708984375,-0.945068359375,-0.3386077880859375,-0.033416748046875
1738772135634008000,7.536008056640625,-0.9445343017578125,-0.33795166015625,-0.03314208984375
1738772135643999200,7.545999267578125,-0.94415283203125,-0.3386688232421875,-0.0325469970703125
1738772135653991200,7.5559912109375,-0.9459686279296875,-0.338043212890625,-0.033660888671875
1738772135663982000,7.565982177734375,-0.94677734375,-0.338775634765625,-0.0333709716796875
1738772135673973200,7.57597314453125,-0.9438018798828125,-0.3382110595703125,-0.0344696044921875
1738772135683964200,7.585964111328125,-0.94476318359375,-0.33856201171875,-0.0334625244140625
1738772135693955000,7.595955078125,-0.945892333984375,-0.3386077880859375,-0.0334320068359375
1738772135703946200,7.6059462890625,-0.945587158203125,-0.3387298583984375,-0.033721923828125
1738772135713937400,7.6159375,-0.946319580078125,-0.338134765625,-0.0343170166015625
1738772135723929000,7.62592919921875,-0.9463043212890625,-0.3378753662109375,-0.0342559814453125
1738772135733920300,7.635920166015625,-0.9445037841796875,-0.3377532958984375,-0.0338134765625
1738772135743911200,7.6459111328125,-0.945465087890625,-0.338531494140625,-0.034515380859375
1738772135753902000,7.655902099609375,-0.9464111328125,-0.33935546875,-0.0331573486328125
1738772135763893200,7.665893310546875,-0.94500732421875,-0.3388214111328125,-0.0342864990234375
1738772135773884400,7.675884521484375,-0.94427490234375,-0.338226318359375,-0.0348358154296875
1738772135783875300,7.685875244140625,-0.944091796875,-0.338623046875,-0.034271240234375
1738772135793866200,7.6958662109375,-0.9468994140625,-0.3382720947265625,-0.032928466796875
1738772135803858200,7.705858154296875,-0.943572998046875,-0.337799072265625,-0.03338623046875
1738772135813849000,7.71584912109375,-0.9445953369140625,-0.33837890625,-0.0340423583984375
1738772135823840300,7.72584033203125,-0.9466400146484375,-0.339202880859375,-0.033294677734375
1738772135833831400,7.73583154296875,-0.9465179443359375,-0.3377532958984375,-0.0340728759765625
1738772135843822300,7.745822265625,-0.945770263671875,-0.338592529296875,-0.0347442626953125
1738772135853813200,7.755813232421875,-0.9447784423828125,-0.33917236328125,-0.033172607421875
1738772135863804400,7.765804443359375,-0.9453125,-0.3385772705078125,-0.0341033935546875
1738772135873796400,7.77579638671875,-0.946441650390625,-0.337982177734375,-0.0322723388671875
1738772135883787300,7.785787353515625,-0.9460906982421875,-0.3380126953125,-0.0324249267578125
1738772135893778400,7.7957783203125,-0.9451751708984375,-0.3379974365234375,-0.0343017578125
1738772135903769300,7.805769287109375,-0.94390869140625,-0.33837890625,-0.03314208984375
1738772135913760300,7.81576025390625,-0.9459075927734375,-0.338836669921875,-0.0336761474609375
1738772135923751400,7.82575146484375,-0.94659423828125,-0.3385162353515625,-0.03338623046875
1738772135933742300,7.835742431640625,-0.9462432861328125,-0.3377532958984375,-0.033538818359375
1738772135943733200,7.845733154296875,-0.945404052734375,-0.337982177734375,-0.03399658203125
1738772135953725400,7.855725341796875,-0.9439544677734375,-0.3388824462890625,-0.0346527099609375
1738772135963716400,7.86571630859375,-0.9461822509765625,-0.3394012451171875,-0.033935546875
1738772135973707300,7.875707275390625,-0.9467620849609375,-0.3374786376953125,-0.03460693359375
1738772135983698200,7.8856982421875,-0.9464874267578125,-0.3379364013671875,-0.0336456298828125
1738772135993689300,7.895689453125,-0.945159912109375,-0.33868408203125,-0.033447265625
1738772136003680300,7.90568017578125,-0.9453277587890625,-0.33917236328125,-0.0332794189453125
1738772136013671200,7.915671142578125,-0.94500732421875,-0.3387298583984375,-0.0341644287109375
1738772136023663400,7.925663330078125,-0.945220947265625,-0.3378448486328125,-0.033966064453125
1738772136033654300,7.935654296875,-0.9463043212890625,-0.338592529296875,-0.0334320068359375
1738772136044894200,7.946894287109375,-0.946380615234375,-0.338714599609375,-0.03363037109375
1738772136054885000,7.956885009765625,-0.9447784423828125,-0.3380279541015625,-0.0346832275390625
1738772136064876300,7.966876220703125,-0.94378662109375,-0.337738037109375,-0.0336456298828125
1738772136074867200,7.9768671875,-0.9446868896484375,-0.33746337890625,-0.0339202880859375
1738772136084858000,7.986858154296875,-0.944976806640625,-0.33795166015625,-0.0322723388671875
1738772136094849000,7.99684912109375,-0.944793701171875,-0.33770751953125,-0.03448486328125
1738772136104841200,8.00684130859375,-0.944793701171875,-0.3376007080078125,-0.0321502685546875
1738772136114832100,8.01683203125,-0.945465087890625,-0.3392486572265625,-0.0317230224609375
1738772136124823000,8.026822998046875,-0.9433135986328125,-0.338226318359375,-0.0325164794921875
1738772136134814200,8.036814208984374,-0.9458465576171875,-0.3389434814453125,-0.0352783203125
1738772136144805000,8.04680517578125,-0.946014404296875,-0.338592529296875,-0.03411865234375
1738772136154796000,8.056796142578126,-0.9460906982421875,-0.3387298583984375,-0.03314208984375
1738772136164787200,8.066787109375,-0.9452667236328125,-0.3399658203125,-0.0331573486328125
1738772136174778000,8.076778076171875,-0.94573974609375,-0.3397369384765625,-0.0333404541015625
1738772136184770000,8.08677001953125,-0.944244384765625,-0.3378448486328125,-0.032806396484375
1738772136194761200,8.09676123046875,-0.9451751708984375,-0.338165283203125,-0.0340118408203125
1738772136204752100,8.106752197265624,-0.9459075927734375,-0.3391571044921875,-0.034698486328125
1738772136214743000,8.116742919921874,-0.9449615478515625,-0.3386688232421875,-0.0352020263671875
1738772136224734200,8.126734130859376,-0.9450225830078125,-0.3384246826171875,-0.035003662109375
1738772136234725000,8.13672509765625,-0.9454345703125,-0.3376922607421875,-0.0326995849609375
1738772136244716300,8.14671630859375,-0.94598388671875,-0.3382415771484375,-0.031463623046875
1738772136254707200,8.156707275390625,-0.9456787109375,-0.337860107421875,-0.034149169921875
1738772136264699100,8.16669921875,-0.945159912109375,-0.3382110595703125,-0.0342559814453125
1738772136274690000,8.17668994140625,-0.9462738037109375,-0.3381195068359375,-0.032806396484375
1738772136284681000,8.186680908203124,-0.9453582763671875,-0.337677001953125,-0.03399658203125
1738772136294672100,8.196672119140626,-0.945648193359375,-0.338470458984375,-0.0352325439453125
1738772136304663300,8.206663330078126,-0.945037841796875,-0.3378143310546875,-0.0326385498046875
1738772136314654200,8.216654296875,-0.9454345703125,-0.3373260498046875,-0.03314208984375
1738772136324645400,8.226645263671875,-0.9456329345703125,-0.337799072265625,-0.03369140625
1738772136334637000,8.236636962890625,-0.944061279296875,-0.3372344970703125,-0.03399658203125
1738772136344628000,8.2466279296875,-0.945281982421875,-0.3378448486328125,-0.033447265625
1738772136354619400,8.256619384765624,-0.9457550048828125,-0.33892822265625,-0.0339202880859375
1738772136364610300,8.2666103515625,-0.9460601806640625,-0.3383636474609375,-0.0325927734375
1738772136374601200,8.276601318359376,-0.9447174072265625,-0.3377685546875,-0.0339813232421875
1738772136384592400,8.28659228515625,-0.944427490234375,-0.3389739990234375,-0.0338134765625
1738772136394583300,8.296583251953125,-0.9452667236328125,-0.339630126953125,-0.0330963134765625
1738772136404574200,8.30657421875,-0.945343017578125,-0.3384246826171875,-0.0327911376953125
1738772136414565000,8.316565185546875,-0.945770263671875,-0.3382415771484375,-0.0331573486328125
1738772136424557300,8.326557373046874,-0.94561767578125,-0.3380584716796875,-0.0342864990234375
1738772136434548200,8.33654833984375,-0.94427490234375,-0.3377532958984375,-0.0334014892578125
1738772136444539400,8.346539306640626,-0.944854736328125,-0.3390045166015625,-0.031890869140625
1738772136454530300,8.3565302734375,-0.9442138671875,-0.33953857421875,-0.034088134765625
1738772136464521200,8.366521240234375,-0.9458465576171875,-0.33905029296875,-0.0339813232421875
1738772136474512100,8.37651220703125,-0.9460601806640625,-0.3381805419921875,-0.0325469970703125
1738772136484503300,8.38650341796875,-0.944793701171875,-0.337921142578125,-0.032806396484375
1738772136494494200,8.396494140625,-0.946014404296875,-0.3383331298828125,-0.033477783203125
1738772136504486100,8.406486083984374,-0.9462738037109375,-0.338043212890625,-0.03387451171875
1738772136514477300,8.416477294921876,-0.9462432861328125,-0.3390655517578125,-0.0333709716796875
1738772136524468200,8.42646826171875,-0.9454803466796875,-0.337738037109375,-0.0344696044921875
1738772136534459100,8.436459228515625,-0.946533203125,-0.338287353515625,-0.0329437255859375
1738772136544450300,8.4464501953125,-0.9459228515625,-0.33819580078125,-0.032989501953125
1738772136554441200,8.456441162109375,-0.9457244873046875,-0.338653564453125,-0.0346221923828125
1738772136564432100,8.46643212890625,-0.946197509765625,-0.339599609375,-0.0320281982421875
1738772136574424300,8.47642431640625,-0.9466094970703125,-0.3372039794921875,-0.0330963134765625
1738772136584415200,8.486415283203126,-0.945892333984375,-0.3383331298828125,-0.03375244140625
1738772136594406100,8.49640625,-0.9449005126953125,-0.338714599609375,-0.0330810546875
1738772136604397300,8.506397216796875,-0.947784423828125,-0.3378448486328125,-0.0341033935546875
1738772136614388200,8.51638818359375,-0.9463348388671875,-0.3381805419921875,-0.0339508056640625
1738772136624379100,8.526379150390625,-0.9449310302734375,-0.3376617431640625,-0.0340728759765625
1738772136634370000,8.5363701171875,-0.9459075927734375,-0.3382110595703125,-0.032928466796875
1738772136644361200,8.546361328125,-0.9462890625,-0.33868408203125,-0.03271484375
1738772136654353200,8.556353271484374,-0.9456024169921875,-0.3377532958984375,-0.0335693359375
1738772136664344300,8.56634423828125,-0.9459686279296875,-0.3379364013671875,-0.0340118408203125
1738772136674335200,8.576335205078125,-0.9459075927734375,-0.337493896484375,-0.034698486328125
1738772136684326100,8.586326171875,-0.9438934326171875,-0.33819580078125,-0.0333099365234375
1738772136694317000,8.596317138671875,-0.9466400146484375,-0.3379974365234375,-0.03326416015625
1738772136704308200,8.60630810546875,-0.946136474609375,-0.337860107421875,-0.0333099365234375
1738772136714299100,8.616299072265624,-0.9466094970703125,-0.3382720947265625,-0.0335235595703125
1738772136724291000,8.626291015625,-0.9448699951171875,-0.338409423828125,-0.0334625244140625
1738772136734282200,8.6362822265625,-0.9443206787109375,-0.338043212890625,-0.0329132080078125
1738772136744273200,8.646273193359375,-0.94427490234375,-0.33966064453125,-0.03314208984375
1738772136754264000,8.65626416015625,-0.9447784423828125,-0.3397369384765625,-0.0335540771484375
1738772136764255200,8.666255126953125,-0.9449615478515625,-0.33856201171875,-0.032562255859375
1738772136774246100,8.67624609375,-0.9445648193359375,-0.33953857421875,-0.0345306396484375
1738772136784237000,8.686237060546874,-0.946044921875,-0.338531494140625,-0.0334625244140625
1738772136794228200,8.696228271484374,-0.94677734375,-0.3380279541015625,-0.03302001953125
1738772136804220200,8.70622021484375,-0.943939208984375,-0.3379669189453125,-0.033905029296875
1738772136814211000,8.716211181640626,-0.9451141357421875,-0.33837890625,-0.0345916748046875
1738772136824202200,8.7262021484375,-0.9454345703125,-0.3372955322265625,-0.0324554443359375
1738772136834193200,8.736193115234375,-0.9471282958984375,-0.3383941650390625,-0.0329742431640625
1738772136844184000,8.74618408203125,-0.945526123046875,-0.3375701904296875,-0.0328521728515625
1738772136854175000,8.756175048828124,-0.944732666015625,-0.337982177734375,-0.033721923828125
1738772136864166100,8.766166259765624,-0.94635009765625,-0.338348388671875,-0.0324554443359375
1738772136874158000,8.776157958984374,-0.94683837890625,-0.338348388671875,-0.03350830078125
1738772136884149200,8.786149169921876,-0.9464874267578125,-0.3377685546875,-0.033966064453125
1738772136894140200,8.79614013671875,-0.94549560546875,-0.33978271484375,-0.033935546875
1738772136904131000,8.806131103515625,-0.9459228515625,-0.3392791748046875,-0.031646728515625
1738772136914122000,8.8161220703125,-0.946746826171875,-0.337646484375,-0.03271484375
1738772136924113200,8.826113037109375,-0.94635009765625,-0.339385986328125,-0.034271240234375
1738772136934104300,8.836104248046874,-0.94464111328125,-0.338165283203125,-0.0343475341796875
1738772136944096000,8.846095947265624,-0.9452362060546875,-0.3385772705078125,-0.0328521728515625
1738772136954087200,8.856087158203126,-0.9449005126953125,-0.3397216796875,-0.0333099365234375
1738772136964078000,8.866078125,-0.944488525390625,-0.33880615234375,-0.0331573486328125
1738772136974069000,8.876069091796875,-0.945343017578125,-0.337860107421875,-0.0345306396484375
1738772136984060200,8.88606005859375,-0.9457244873046875,-0.338409423828125,-0.0322113037109375
1738772136994051300,8.89605126953125,-0.9467010498046875,-0.3380279541015625,-0.0347442626953125
1738772137004041700,8.906041748046874,-0.946746826171875,-0.337615966796875,-0.0354461669921875
1738772137014032600,8.91603271484375,-0.9450225830078125,-0.339447021484375,-0.033355712890625
1738772137024024800,8.92602490234375,-0.9448394775390625,-0.338653564453125,-0.0343780517578125
1738772137034015700,8.936015625,-0.9470062255859375,-0.338134765625,-0.033355712890625
1738772137044006700,8.946006591796875,-0.9468536376953125,-0.3366851806640625,-0.0340728759765625
1738772137053997800,8.955997802734375,-0.9455718994140625,-0.3376312255859375,-0.0333709716796875
1738772137063988700,8.96598876953125,-0.94610595703125,-0.339202880859375,-0.033599853515625
1738772137073979600,8.975979736328124,-0.9456329345703125,-0.3398895263671875,-0.033447265625
1738772137083970800,8.985970703125,-0.9459686279296875,-0.337890625,-0.034210205078125
1738772137093962800,8.995962646484376,-0.9430389404296875,-0.3372650146484375,-0.0333709716796875
1738772137103953700,9.00595361328125,-0.944671630859375,-0.3387298583984375,-0.0344390869140625
1738772137113944800,9.01594482421875,-0.9462127685546875,-0.3379364013671875,-0.0337066650390625
1738772137123935700,9.025935791015625,-0.945404052734375,-0.339080810546875,-0.03326416015625
1738772137133926700,9.0359267578125,-0.9440155029296875,-0.3387603759765625,-0.034088134765625
1738772137143917800,9.045917724609374,-0.9447174072265625,-0.3396453857421875,-0.033172607421875
1738772137153908700,9.05590869140625,-0.9468841552734375,-0.3397674560546875,-0.0329742431640625
1738772137163899600,9.065899658203126,-0.9458465576171875,-0.3391876220703125,-0.033935546875
1738772137173891800,9.075891845703126,-0.9441070556640625,-0.3376617431640625,-0.033203125
1738772137183882800,9.0858828125,-0.94482421875,-0.3385772705078125,-0.03302001953125
1738772137193873700,9.095873779296875,-0.9461669921875,-0.3392333984375,-0.0327911376953125
1738772137203864800,9.10586474609375,-0.9453887939453125,-0.3392181396484375,-0.0330810546875
1738772137213855700,9.115855712890625,-0.9447479248046875,-0.338287353515625,-0.032958984375
1738772137223846700,9.1258466796875,-0.945037841796875,-0.3387298583984375,-0.0318603515625
1738772137233837600,9.135837646484376,-0.945709228515625,-0.3377532958984375,-0.03326416015625
1738772137243829800,9.145829833984376,-0.9472808837890625,-0.33929443359375,-0.03436279296875
1738772137253820700,9.155820556640625,-0.9444122314453125,-0.339630126953125,-0.033966064453125
1738772137263811600,9.1658115234375,-0.94512939453125,-0.3390655517578125,-0.03350830078125
1738772137273802800,9.175802734375,-0.945404052734375,-0.338592529296875,-0.03399658203125
1738772137283793700,9.185793701171875,-0.9466705322265625,-0.3383941650390625,-0.0332183837890625
1738772137293784600,9.19578466796875,-0.9445037841796875,-0.337982177734375,-0.0338287353515625
1738772137303775700,9.205775634765626,-0.9434967041015625,-0.339324951171875,-0.033111572265625
1738772137313766700,9.2157666015625,-0.9461517333984375,-0.3381805419921875,-0.0340576171875
1738772137323758600,9.225758544921876,-0.9484710693359375,-0.337188720703125,-0.034088134765625
1738772137333749800,9.235749755859375,-0.94537353515625,-0.3384246826171875,-0.0344085693359375
1738772137343740700,9.24574072265625,-0.9439544677734375,-0.3386688232421875,-0.0334014892578125
1738772137353731600,9.255731689453125,-0.944976806640625,-0.3391265869140625,-0.0335845947265625
1738772137363722800,9.26572265625,-0.946502685546875,-0.337921142578125,-0.03436279296875
1738772137373713700,9.275713623046874,-0.9463653564453125,-0.3384246826171875,-0.0338287353515625
1738772137383704600,9.28570458984375,-0.9439849853515625,-0.33837890625,-0.03424072265625
1738772137393696800,9.29569677734375,-0.944244384765625,-0.33746337890625,-0.0335845947265625
1738772137403687700,9.305687744140625,-0.9460296630859375,-0.3381500244140625,-0.032745361328125
1738772137413678600,9.3156787109375,-0.9473114013671875,-0.3385009765625,-0.0331573486328125
1738772137423669800,9.325669677734375,-0.9445037841796875,-0.339080810546875,-0.03363037109375
1738772137433660700,9.33566064453125,-0.9445343017578125,-0.33856201171875,-0.0329437255859375
1738772137443651600,9.345651611328124,-0.946807861328125,-0.339508056640625,-0.0328216552734375
1738772137453642500,9.355642578125,-0.9452056884765625,-0.3375396728515625,-0.03363037109375
1738772137463633700,9.365633544921875,-0.9443511962890625,-0.3383026123046875,-0.034088134765625
1738772137473625600,9.37562548828125,-0.943878173828125,-0.33917236328125,-0.0336761474609375
1738772137483616500,9.385616455078125,-0.9468841552734375,-0.3374481201171875,-0.03369140625
1738772137493607700,9.395607666015625,-0.9480133056640625,-0.3381500244140625,-0.0338134765625
1738772137503598600,9.4055986328125,-0.94720458984375,-0.3382568359375,-0.033477783203125
1738772137513589500,9.415589599609374,-0.945220947265625,-0.3374176025390625,-0.0333404541015625
1738772137523580700,9.42558056640625,-0.9453125,-0.3387908935546875,-0.033050537109375
1738772137533571800,9.43557177734375,-0.946441650390625,-0.338714599609375,-0.0349884033203125
1738772137543563500,9.4455634765625,-0.945098876953125,-0.3374176025390625,-0.03533935546875
1738772137553554700,9.4555546875,-0.944305419921875,-0.33843994140625,-0.0332183837890625
1738772137563545600,9.465545654296875,-0.94659423828125,-0.3386993408203125,-0.0346221923828125
1738772137573536500,9.47553662109375,-0.9459381103515625,-0.3389892578125,-0.03350830078125
1738772137583527700,9.485527587890624,-0.9466094970703125,-0.339324951171875,-0.0323486328125
1738772137593518800,9.495518798828124,-0.946258544921875,-0.3383636474609375,-0.033172607421875
1738772137603509800,9.505509765625,-0.944671630859375,-0.337677001953125,-0.0329437255859375
1738772137613500700,9.515500732421875,-0.9448699951171875,-0.3384857177734375,-0.034088134765625
1738772137623492600,9.52549267578125,-0.945709228515625,-0.3386077880859375,-0.0331268310546875
1738772137633483800,9.53548388671875,-0.94573974609375,-0.3385467529296875,-0.0347442626953125
1738772137643475000,9.545474853515625,-0.9450836181640625,-0.338104248046875,-0.03265380859375
1738772137653465900,9.5554658203125,-0.9458465576171875,-0.3383026123046875,-0.0340423583984375
1738772137663456800,9.565456787109374,-0.944549560546875,-0.3385009765625,-0.033905029296875
1738772137673447700,9.57544775390625,-0.9454345703125,-0.3390350341796875,-0.03302001953125
1738772137683438800,9.58543896484375,-0.945068359375,-0.33929443359375,-0.0340728759765625
1738772137693430800,9.5954306640625,-0.9449920654296875,-0.3379058837890625,-0.0337982177734375
1738772137703421700,9.605421630859375,-0.944671630859375,-0.3385162353515625,-0.033233642578125
1738772137713412900,9.615412841796875,-0.9456787109375,-0.33984375,-0.03369140625
1738772137723403800,9.62540380859375,-0.94708251953125,-0.33843994140625,-0.033782958984375
1738772137733394700,9.635394775390624,-0.944976806640625,-0.3383636474609375,-0.0334320068359375
1738772137743385900,9.6453857421875,-0.9444732666015625,-0.338134765625,-0.0346527099609375
1738772137753376800,9.655376708984376,-0.9463348388671875,-0.3383636474609375,-0.0338897705078125
1738772137763367700,9.66536767578125,-0.9465179443359375,-0.33880615234375,-0.032135009765625
1738772137773359900,9.67535986328125,-0.945556640625,-0.3384246826171875,-0.0332183837890625
1738772137783350800,9.685350830078125,-0.9445037841796875,-0.338165283203125,-0.0334625244140625
1738772137793341700,9.695341796875,-0.94683837890625,-0.3388671875,-0.0339202880859375
1738772137803332900,9.705332763671874,-0.946319580078125,-0.338653564453125,-0.0336456298828125
1738772137813323800,9.71532373046875,-0.9444427490234375,-0.338592529296875,-0.03363037109375
1738772137823314700,9.725314697265626,-0.94586181640625,-0.338958740234375,-0.0338134765625
1738772137833305600,9.7353056640625,-0.9467926025390625,-0.3378448486328125,-0.0331268310546875
1738772137843296800,9.745296875,-0.94512939453125,-0.33758544921875,-0.0334625244140625
1738772137853288700,9.755288818359375,-0.9454498291015625,-0.33819580078125,-0.0333099365234375
1738772137863279900,9.76527978515625,-0.9470977783203125,-0.3377685546875,-0.0343017578125
1738772137873270800,9.775270751953125,-0.9481353759765625,-0.33880615234375,-0.033721923828125
1738772137883261700,9.78526171875,-0.944976806640625,-0.33892822265625,-0.033599853515625
1738772137893252600,9.795252685546876,-0.9438323974609375,-0.3379974365234375,-0.0329437255859375
1738772137903243800,9.805243896484376,-0.9467010498046875,-0.3390045166015625,-0.0335693359375
1738772137913234700,9.815234619140625,-0.9467620849609375,-0.3370361328125,-0.032318115234375
1738772137923226600,9.8252265625,-0.944610595703125,-0.3372344970703125,-0.033416748046875
1738772137933217800,9.8352177734375,-0.944671630859375,-0.3386688232421875,-0.0344390869140625
1738772137943208700,9.845208740234375,-0.9463043212890625,-0.3387298583984375,-0.033172607421875
1738772137953199600,9.85519970703125,-0.946136474609375,-0.337646484375,-0.0352325439453125
1738772137963190800,9.865190673828126,-0.947021484375,-0.3386688232421875,-0.0342864990234375
1738772137973181700,9.875181640625,-0.9449462890625,-0.339630126953125,-0.03387451171875
1738772137983172600,9.885172607421875,-0.94427490234375,-0.33868408203125,-0.0346527099609375
1738772137993163500,9.89516357421875,-0.9445648193359375,-0.3380889892578125,-0.033355712890625
1738772138003155700,9.90515576171875,-0.9456939697265625,-0.3379669189453125,-0.033477783203125
1738772138013146600,9.915146728515625,-0.94573974609375,-0.3387603759765625,-0.032623291015625
1738772138023137800,9.9251376953125,-0.946014404296875,-0.3377838134765625,-0.0333709716796875
1738772138033128700,9.935128662109374,-0.9452362060546875,-0.3367919921875,-0.0340118408203125
1738772138043119600,9.94511962890625,-0.945465087890625,-0.33819580078125,-0.033966064453125
1738772138053110800,9.95511083984375,-0.944671630859375,-0.3385162353515625,-0.0335693359375
1738772138063101700,9.965101806640625,-0.9460296630859375,-0.3375244140625,-0.033416748046875
1738772138073093600,9.97509375,-0.9469451904296875,-0.3388519287109375,-0.03448486328125
1738772138083084800,9.985084716796875,-0.9469757080078125,-0.3387298583984375,-0.0332183837890625
1738772138093075700,9.99507568359375,-0.9443206787109375,-0.337066650390625,-0.0332489013671875
1738772138103066600,10.005066650390624,-0.9439239501953125,-0.3371124267578125,-0.0336151123046875
1738772138113057800,10.015057861328126,-0.9466400146484375,-0.339141845703125,-0.032989501953125
1738772138123048700,10.025048583984375,-0.9481201171875,-0.3382720947265625,-0.0342864990234375
1738772138133039600,10.03503955078125,-0.945098876953125,-0.337646484375,-0.0332183837890625
1738772138143030500,10.045030517578125,-0.9437255859375,-0.3371124267578125,-0.0320892333984375
1738772138153022700,10.055022705078125,-0.9456329345703125,-0.3391571044921875,-0.0321197509765625
1738772138163013600,10.065013671875,-0.94586181640625,-0.3381500244140625,-0.0337066650390625
1738772138173004500,10.075004638671874,-0.94622802734375,-0.3385772705078125,-0.033721923828125
1738772138182995700,10.08499560546875,-0.943603515625,-0.3382415771484375,-0.033447265625
1738772138192986600,10.094986572265626,-0.943023681640625,-0.3385162353515625,-0.0334014892578125
1738772138202977500,10.1049775390625,-0.946533203125,-0.3388214111328125,-0.0333099365234375
1738772138212968700,10.11496875,-0.947509765625,-0.3371124267578125,-0.0335693359375
1738772138222959900,10.1249599609375,-0.9455718994140625,-0.33905029296875,-0.0350494384765625
1738772138232951600,10.13495166015625,-0.9453582763671875,-0.3401641845703125,-0.0339813232421875
1738772138242942700,10.144942626953124,-0.944976806640625,-0.338165283203125,-0.033721923828125
1738772138252933600,10.15493359375,-0.9473876953125,-0.337615966796875,-0.03326416015625
1738772138262924500,10.164924560546876,-0.9463043212890625,-0.338043212890625,-0.03472900390625
1738772138272916000,10.174916015625,-0.9441375732421875,-0.340118408203125,-0.0350494384765625
1738772138282907000,10.184906982421875,-0.944793701171875,-0.3376007080078125,-0.0332794189453125
1738772138292897800,10.194897705078125,-0.9469451904296875,-0.3384857177734375,-0.0336151123046875
1738772138302888700,10.204888671875,-0.946746826171875,-0.3388824462890625,-0.033935546875
1738772138312880600,10.214880615234375,-0.944671630859375,-0.337738037109375,-0.035064697265625
1738772138322871800,10.224871826171874,-0.94512939453125,-0.33843994140625,-0.0346527099609375
1738772138332863000,10.234863037109376,-0.945556640625,-0.3388519287109375,-0.0340423583984375
1738772138342854000,10.24485400390625,-0.9462432861328125,-0.33770751953125,-0.033111572265625
1738772138352844800,10.2548447265625,-0.9447021484375,-0.338623046875,-0.033111572265625
1738772138362835700,10.264835693359375,-0.944183349609375,-0.339508056640625,-0.033447265625
1738772138372827000,10.274826904296875,-0.945098876953125,-0.3392181396484375,-0.0330352783203125
1738772138382817800,10.28481787109375,-0.946624755859375,-0.338348388671875,-0.0338287353515625
1738772138392809700,10.294809814453124,-0.9450836181640625,-0.3385162353515625,-0.0348968505859375
1738772138402801000,10.30480078125,-0.9459381103515625,-0.339385986328125,-0.0324554443359375
1738772138412791800,10.314791748046876,-0.943450927734375,-0.338775634765625,-0.0333099365234375
1738772138422782700,10.32478271484375,-0.945526123046875,-0.3382415771484375,-0.033447265625
1738772138432774000,10.33477392578125,-0.9460296630859375,-0.3382720947265625,-0.03350830078125
1738772138442764800,10.344764892578125,-0.9460296630859375,-0.3391265869140625,-0.0333251953125
1738772138452755700,10.354755615234374,-0.9443511962890625,-0.338287353515625,-0.03289794921875
1738772138462748000,10.364747802734374,-0.9451446533203125,-0.339202880859375,-0.032745361328125
1738772138472738800,10.37473876953125,-0.9456939697265625,-0.3389739990234375,-0.031982421875
1738772138482729700,10.384729736328126,-0.945404052734375,-0.3386383056640625,-0.0323486328125
1738772138492721000,10.394720947265625,-0.9447479248046875,-0.337615966796875,-0.0334320068359375
1738772138502711800,10.4047119140625,-0.9462738037109375,-0.3392486572265625,-0.0338897705078125
1738772138512702700,10.41470263671875,-0.9458160400390625,-0.33837890625,-0.0336456298828125
1738772138522693600,10.424693603515625,-0.9448699951171875,-0.3368377685546875,-0.0333709716796875
1738772138532684800,10.434684814453124,-0.9438934326171875,-0.3382110595703125,-0.0328369140625
1738772138542676700,10.4446767578125,-0.9441680908203125,-0.3375244140625,-0.0341796875
1738772138552668000,10.45466796875,-0.9442138671875,-0.3382568359375,-0.033935546875
1738772138562658800,10.464658935546876,-0.9451904296875,-0.337890625,-0.032867431640625
1738772138572649700,10.474649658203125,-0.9464569091796875,-0.337982177734375,-0.0323638916015625
1738772138582640600,10.484640625,-0.945281982421875,-0.3382415771484375,-0.0325927734375
1738772138592631800,10.4946318359375,-0.94488525390625,-0.339019775390625,-0.03338623046875
1738772138602622700,10.504622802734374,-0.9471435546875,-0.338653564453125,-0.033721923828125
1738772138612613600,10.514613525390626,-0.9452972412109375,-0.338592529296875,-0.03411865234375
1738772138622605800,10.524605712890626,-0.944244384765625,-0.3392791748046875,-0.032806396484375
1738772138632596700,10.5345966796875,-0.943450927734375,-0.3391876220703125,-0.03363037109375
1738772138642587600,10.544587646484375,-0.945770263671875,-0.3370361328125,-0.0348358154296875
1738772138652578800,10.554578857421875,-0.944976806640625,-0.337646484375,-0.032257080078125
1738772138662569700,10.56456982421875,-0.94476318359375,-0.3379364013671875,-0.033050537109375
1738772138672560600,10.574560546875,-0.945220947265625,-0.3385772705078125,-0.033172607421875
1738772138682551800,10.5845517578125,-0.9452667236328125,-0.3375396728515625,-0.0332489013671875
1738772138692542700,10.594542724609376,-0.9456939697265625,-0.339202880859375,-0.034210205078125
1738772138702534700,10.60453466796875,-0.9447784423828125,-0.3390045166015625,-0.0341949462890625
1738772138712525800,10.61452587890625,-0.9447174072265625,-0.3378448486328125,-0.0339813232421875
1738772138722516700,10.624516845703125,-0.9445343017578125,-0.338226318359375,-0.0331573486328125
1738772138732507600,10.634507568359375,-0.9461517333984375,-0.3375244140625,-0.0338897705078125
1738772138742498600,10.64449853515625,-0.9457855224609375,-0.3374176025390625,-0.0343170166015625
1738772138752489700,10.65448974609375,-0.9447784423828125,-0.3376007080078125,-0.03399658203125
1738772138762480600,10.664480712890626,-0.94573974609375,-0.338134765625,-0.0325927734375
1738772138772471600,10.674471435546875,-0.94549560546875,-0.33837890625,-0.03399658203125
1738772138782463700,10.684463623046875,-0.9459075927734375,-0.3387451171875,-0.0343017578125
1738772138792454700,10.69445458984375,-0.9438934326171875,-0.339508056640625,-0.0331268310546875
1738772138802445600,10.704445556640625,-0.9449462890625,-0.337921142578125,-0.0336151123046875
1738772138812436700,10.714436767578125,-0.94635009765625,-0.3391571044921875,-0.0337982177734375
1738772138822427600,10.724427734375,-0.9448699951171875,-0.3390960693359375,-0.0332794189453125
1738772138832418600,10.73441845703125,-0.9441375732421875,-0.3381195068359375,-0.0337982177734375
1738772138842409700,10.74440966796875,-0.9461517333984375,-0.338836669921875,-0.0343017578125
1738772138852401000,10.75440087890625,-0.94549560546875,-0.338714599609375,-0.0341796875
1738772138862392600,10.764392578125,-0.9461669921875,-0.3370208740234375,-0.0333709716796875
1738772138872383700,10.7743837890625,-0.9464569091796875,-0.3379058837890625,-0.0335845947265625
1738772138882374700,10.784374755859375,-0.9448089599609375,-0.3383941650390625,-0.03399658203125
1738772138892365600,10.794365478515624,-0.9455413818359375,-0.3385009765625,-0.0344390869140625
1738772138902356700,10.804356689453124,-0.946014404296875,-0.33892822265625,-0.0331573486328125
1738772138912348000,10.814347900390626,-0.9450836181640625,-0.3389434814453125,-0.03460693359375
1738772138922338800,10.8243388671875,-0.94293212890625,-0.3377685546875,-0.0332794189453125
1738772138932329700,10.834329833984375,-0.9433746337890625,-0.3394012451171875,-0.033203125
1738772138942321700,10.84432177734375,-0.9468841552734375,-0.338287353515625,-0.0342864990234375
1738772138952312800,10.854312744140625,-0.946014404296875,-0.3378143310546875,-0.0344390869140625
1738772138962303700,10.8643037109375,-0.9455413818359375,-0.339385986328125,-0.0337066650390625
1738772138972295000,10.874294921875,-0.9462738037109375,-0.3390045166015625,-0.0344696044921875
1738772138982285800,10.884285888671876,-0.9461212158203125,-0.3381805419921875,-0.034393310546875
1738772138992276700,10.89427685546875,-0.9454345703125,-0.3383026123046875,-0.0347900390625
1738772139002268400,10.904268310546875,-0.9463348388671875,-0.3387603759765625,-0.0327911376953125
1738772139012260000,10.914260009765625,-0.9470062255859375,-0.3379364013671875,-0.032806396484375
1738772139022251000,10.9242509765625,-0.9471282958984375,-0.337677001953125,-0.0339202880859375
1738772139032242200,10.9342421875,-0.94354248046875,-0.337799072265625,-0.03424072265625
1738772139042233300,10.9442333984375,-0.943389892578125,-0.337982177734375,-0.033538818359375
1738772139052224300,10.954224365234374,-0.9461669921875,-0.3387298583984375,-0.0325927734375
1738772139062215200,10.964215087890626,-0.9479827880859375,-0.3384552001953125,-0.03289794921875
1738772139072206300,10.974206298828125,-0.9455413818359375,-0.337646484375,-0.0335235595703125
1738772139082197200,10.984197265625,-0.9426422119140625,-0.336883544921875,-0.033203125
1738772139092189200,10.994189208984375,-0.9474334716796875,-0.3381500244140625,-0.0334014892578125
1738772139102180400,11.004180419921875,-0.9471893310546875,-0.3393402099609375,-0.033782958984375
1738772139112171300,11.014171142578125,-0.945159912109375,-0.3388519287109375,-0.0321044921875
1738772139122162200,11.024162109375,-0.943389892578125,-0.338104248046875,-0.03369140625
1738772139132153300,11.0341533203125,-0.9456329345703125,-0.3384246826171875,-0.03338623046875
1738772139142144300,11.044144287109376,-0.9473419189453125,-0.3378143310546875,-0.0340118408203125
1738772139152135200,11.05413525390625,-0.9460906982421875,-0.3378753662109375,-0.0330810546875
1738772139162126300,11.064126220703125,-0.944671630859375,-0.337921142578125,-0.0344390869140625
1738772139172118300,11.0741181640625,-0.9443511962890625,-0.3378143310546875,-0.0333404541015625
1738772139182109200,11.084109130859375,-0.94793701171875,-0.33935546875,-0.0338897705078125
1738772139192100400,11.094100341796874,-0.947662353515625,-0.3388519287109375,-0.0338592529296875
1738772139202091300,11.10409130859375,-0.9440460205078125,-0.3378448486328125,-0.0347442626953125
1738772139212082200,11.114082275390626,-0.943572998046875,-0.339111328125,-0.0319671630859375
1738772139222073300,11.1240732421875,-0.947509765625,-0.337890625,-0.03192138671875
1738772139232064300,11.134064208984375,-0.9476318359375,-0.3369903564453125,-0.033447265625
1738772139242056200,11.14405615234375,-0.9458160400390625,-0.3382110595703125,-0.0343475341796875
1738772139252047400,11.15404736328125,-0.9441986083984375,-0.3389434814453125,-0.03338623046875
1738772139262038300,11.164038330078125,-0.945068359375,-0.3391265869140625,-0.0325164794921875
1738772139272029200,11.174029296875,-0.9463653564453125,-0.337310791015625,-0.033905029296875
1738772139282020000,11.18402001953125,-0.9459228515625,-0.338653564453125,-0.0341796875
1738772139292011300,11.19401123046875,-0.9458160400390625,-0.338104248046875,-0.03228759765625
1738772139302002200,11.204002197265625,-0.94647216796875,-0.3390045166015625,-0.0339813232421875
1738772139311993000,11.2139931640625,-0.9456787109375,-0.3390045166015625,-0.0341033935546875
1738772139321985300,11.2239853515625,-0.9441375732421875,-0.3386688232421875,-0.0339813232421875
1738772139331976200,11.23397607421875,-0.9444580078125,-0.33905029296875,-0.0331573486328125
1738772139341967000,11.243967041015624,-0.9460296630859375,-0.346893310546875,-0.0298614501953125
1738772139351958300,11.253958251953126,-0.9420928955078125,-0.3317718505859375,-0.0374603271484375
1738772139361949200,11.26394921875,-0.95220947265625,-0.340301513671875,-0.0303497314453125
1738772139371940000,11.273940185546875,-0.9449615478515625,-0.3387451171875,-0.0345458984375
1738772139381931300,11.28393115234375,-0.94110107421875,-0.3387908935546875,-0.0338897705078125
1738772139391923200,11.293923095703125,-0.9441680908203125,-0.3366546630859375,-0.03363037109375
1738772139401914000,11.3039140625,-0.95208740234375,-0.3408660888671875,-0.0294342041015625
1738772139411905300,11.3139052734375,-0.945892333984375,-0.337310791015625,-0.0367889404296875
1738772139421896200,11.323896240234374,-0.9383544921875,-0.33966064453125,-0.03228759765625
1738772139431887000,11.33388720703125,-0.943634033203125,-0.3390960693359375,-0.0324554443359375
1738772139441878300,11.343878173828125,-0.94696044921875,-0.3386383056640625,-0.032684326171875
1738772139451869200,11.353869140625,-0.9471435546875,-0.3394012451171875,-0.0365753173828125
1738772139461860000,11.363860107421875,-0.946502685546875,-0.33966064453125,-0.031768798828125
1738772139471852300,11.373852294921875,-0.94537353515625,-0.33856201171875,-0.0342559814453125
1738772139481843200,11.38384326171875,-0.9448699951171875,-0.3383331298828125,-0.0322723388671875
1738772139491834000,11.393834228515624,-0.9484710693359375,-0.338897705078125,-0.0352783203125
1738772139501825000,11.403824951171876,-0.9460906982421875,-0.3387908935546875,-0.033447265625
1738772139511816200,11.413816162109375,-0.9438323974609375,-0.337921142578125,-0.0335540771484375
1738772139521807000,11.42380712890625,-0.94354248046875,-0.3380584716796875,-0.0340118408203125
1738772139531798000,11.433798095703125,-0.9453582763671875,-0.3385772705078125,-0.033447265625
1738772139541789200,11.4437890625,-0.94854736328125,-0.337310791015625,-0.033447265625
1738772139551781000,11.453781005859375,-0.94549560546875,-0.33721923828125,-0.03460693359375
1738772139561772000,11.46377197265625,-0.9435577392578125,-0.3383636474609375,-0.0332183837890625
1738772139571763200,11.47376318359375,-0.9446868896484375,-0.338409423828125,-0.033203125
1738772139581754000,11.483754150390626,-0.94647216796875,-0.3371124267578125,-0.0333099365234375
1738772139591745000,11.4937451171875,-0.9463653564453125,-0.3384246826171875,-0.0333709716796875
1738772139601736200,11.503736083984375,-0.944976806640625,-0.3385162353515625,-0.032958984375
1738772139611727400,11.513727294921875,-0.945465087890625,-0.3387908935546875,-0.0322418212890625
1738772139621719000,11.523718994140625,-0.9451751708984375,-0.338043212890625,-0.0336151123046875
1738772139631710200,11.533710205078124,-0.945556640625,-0.3390350341796875,-0.0354156494140625
1738772139641701000,11.543701171875,-0.945343017578125,-0.337432861328125,-0.033447265625
1738772139651692000,11.553692138671876,-0.944244384765625,-0.3369903564453125,-0.0328369140625
1738772139661683200,11.56368310546875,-0.9450531005859375,-0.3376312255859375,-0.0345001220703125
1738772139671674400,11.57367431640625,-0.9460296630859375,-0.3396453857421875,-0.0328826904296875
1738772139681665300,11.583665283203125,-0.9472808837890625,-0.3390655517578125,-0.0325927734375
1738772139691657200,11.5936572265625,-0.94488525390625,-0.33843994140625,-0.033721923828125
1738772139701648100,11.603648193359374,-0.943450927734375,-0.33856201171875,-0.0327606201171875
1738772139711639000,11.61363916015625,-0.945220947265625,-0.3388519287109375,-0.03228759765625
1738772139721630200,11.623630126953126,-0.946380615234375,-0.337982177734375,-0.033477783203125
1738772139731621400,11.633621337890625,-0.9456939697265625,-0.338104248046875,-0.0328216552734375
1738772139741612300,11.6436123046875,-0.9444427490234375,-0.3383026123046875,-0.0351715087890625
1738772139751603200,11.653603271484375,-0.9451446533203125,-0.3390350341796875,-0.03448486328125
1738772139761594400,11.663594482421875,-0.9455718994140625,-0.3377532958984375,-0.033172607421875
1738772139771586300,11.67358642578125,-0.9462432861328125,-0.339447021484375,-0.033203125
1738772139781577200,11.6835771484375,-0.9469146728515625,-0.3393402099609375,-0.033599853515625
1738772139791568400,11.693568359375,-0.94512939453125,-0.337432861328125,-0.03399658203125
1738772139801559300,11.703559326171876,-0.944091796875,-0.338958740234375,-0.03424072265625
1738772139811550200,11.71355029296875,-0.9445037841796875,-0.3382568359375,-0.0333099365234375
1738772139821541400,11.723541259765625,-0.9453277587890625,-0.3386688232421875,-0.0334625244140625
1738772139831532300,11.7335322265625,-0.9449920654296875,-0.339111328125,-0.033416748046875
1738772139841524200,11.743524169921875,-0.945648193359375,-0.3378143310546875,-0.0336151123046875
1738772139851515400,11.753515380859374,-0.9443817138671875,-0.3383026123046875,-0.03448486328125
1738772139861506300,11.76350634765625,-0.9444732666015625,-0.338226318359375,-0.0337677001953125
1738772139871497200,11.773497314453126,-0.9461822509765625,-0.338836669921875,-0.032440185546875
1738772139881488100,11.783488037109375,-0.945831298828125,-0.3378753662109375,-0.0333099365234375
1738772139891479300,11.793479248046875,-0.945159912109375,-0.338043212890625,-0.0344085693359375
1738772139901470200,11.80347021484375,-0.945098876953125,-0.338470458984375,-0.032684326171875
1738772139911461000,11.813461181640625,-0.9464111328125,-0.338836669921875,-0.0334320068359375
1738772139921453300,11.823453369140625,-0.9468536376953125,-0.3383636474609375,-0.0340118408203125
1738772139931444200,11.8334443359375,-0.9465179443359375,-0.33856201171875,-0.0342254638671875
1738772139941435100,11.84343505859375,-0.943450927734375,-0.3383941650390625,-0.0349884033203125
1738772139951426300,11.85342626953125,-0.9454193115234375,-0.3388671875,-0.033660888671875
1738772139961417200,11.863417236328125,-0.94573974609375,-0.3380889892578125,-0.0327301025390625
1738772139971408100,11.873408203125,-0.9446868896484375,-0.337554931640625,-0.0330810546875
1738772139981399300,11.8833994140625,-0.9443359375,-0.3382415771484375,-0.033660888671875
1738772139991390200,11.89339013671875,-0.9442901611328125,-0.338836669921875,-0.032440185546875
1738772140001382400,11.90338232421875,-0.9456329345703125,-0.338470458984375,-0.0341033935546875
1738772140011373300,11.913373291015626,-0.9458770751953125,-0.338531494140625,-0.03515625
1738772140021364200,11.9233642578125,-0.946044921875,-0.3378753662109375,-0.032989501953125
1738772140031355400,11.93335546875,-0.9463653564453125,-0.337127685546875,-0.033111572265625
1738772140041346300,11.94334619140625,-0.9438629150390625,-0.33642578125,-0.0340728759765625
1738772140051337200,11.953337158203125,-0.946197509765625,-0.3392486572265625,-0.0340118408203125
1738772140061328400,11.963328369140624,-0.9468841552734375,-0.3397064208984375,-0.0336456298828125
1738772140071320300,11.9733203125,-0.9457244873046875,-0.3393707275390625,-0.033233642578125
1738772140081311200,11.983311279296874,-0.9452972412109375,-0.3381805419921875,-0.0338897705078125
1738772140091302400,11.993302490234376,-0.9457244873046875,-0.3373565673828125,-0.034393310546875
1738772140101293300,12.003293212890625,-0.9480743408203125,-0.33831787109375,-0.0341949462890625
1738772140111284200,12.0132841796875,-0.945892333984375,-0.3365325927734375,-0.03375244140625
1738772140121275400,12.023275390625,-0.9447174072265625,-0.3391876220703125,-0.0343475341796875
1738772140131266300,12.033266357421875,-0.94525146484375,-0.33843994140625,-0.034881591796875
1738772140141257200,12.04325732421875,-0.9457855224609375,-0.338226318359375,-0.0333251953125
1738772140151249400,12.05324951171875,-0.9442596435546875,-0.3378448486328125,-0.0346527099609375
1738772140161240300,12.063240234375,-0.9461669921875,-0.3390045166015625,-0.0344390869140625
1738772140171231200,12.073231201171875,-0.946380615234375,-0.3392333984375,-0.0330810546875
1738772140181222400,12.083222412109375,-0.9456329345703125,-0.339263916015625,-0.0318450927734375
1738772140191213300,12.09321337890625,-0.945831298828125,-0.337310791015625,-0.0341339111328125
1738772140201204200,12.103204345703125,-0.9441680908203125,-0.3393096923828125,-0.0337066650390625
1738772140211195100,12.113195068359374,-0.9450836181640625,-0.337921142578125,-0.0331878662109375
1738772140221186300,12.123186279296876,-0.94696044921875,-0.3382110595703125,-0.0330963134765625
1738772140231178200,12.13317822265625,-0.9467010498046875,-0.33892822265625,-0.03369140625
1738772140241169200,12.143169189453126,-0.945953369140625,-0.3384246826171875,-0.03436279296875
1738772140251160300,12.153160400390625,-0.946746826171875,-0.338409423828125,-0.03289794921875
1738772140261151200,12.163151123046875,-0.945404052734375,-0.3388214111328125,-0.0337982177734375
1738772140271142100,12.17314208984375,-0.9462432861328125,-0.3383026123046875,-0.03302001953125
1738772140281133300,12.18313330078125,-0.9456024169921875,-0.338714599609375,-0.0327301025390625
1738772140291124200,12.193124267578124,-0.9443359375,-0.3370361328125,-0.033355712890625
1738772140301115400,12.203115478515626,-0.9455413818359375,-0.3375091552734375,-0.0342864990234375
1738772140311107300,12.213107421875,-0.9453277587890625,-0.3375244140625,-0.0337066650390625
1738772140321098200,12.22309814453125,-0.94580078125,-0.3390655517578125,-0.0333099365234375
1738772140331089200,12.233089111328125,-0.9455718994140625,-0.3392791748046875,-0.034027099609375
1738772140341080300,12.243080322265625,-0.9439849853515625,-0.33966064453125,-0.033843994140625
1738772140351071200,12.2530712890625,-0.9447784423828125,-0.3379669189453125,-0.0332794189453125
1738772140361062400,12.2630625,-0.945526123046875,-0.33905029296875,-0.033935546875
1738772140371053300,12.27305322265625,-0.945770263671875,-0.3382415771484375,-0.0338592529296875
1738772140381044500,12.28304443359375,-0.946044921875,-0.337677001953125,-0.0340118408203125
1738772140391036200,12.2930361328125,-0.9439697265625,-0.33770751953125,-0.0328826904296875
1738772140401027300,12.30302734375,-0.9447174072265625,-0.3383026123046875,-0.0323944091796875
1738772140411018500,12.3130185546875,-0.9461822509765625,-0.3394775390625,-0.034149169921875
1738772140421009400,12.323009521484375,-0.946563720703125,-0.3378143310546875,-0.0347137451171875
1738772140431000300,12.333000244140624,-0.9457244873046875,-0.3387908935546875,-0.0340576171875
1738772140440991500,12.342991455078124,-0.944244384765625,-0.339752197265625,-0.033172607421875
1738772140450982400,12.352982421875,-0.9453582763671875,-0.3386688232421875,-0.0339202880859375
1738772140460973300,12.362973388671875,-0.9454193115234375,-0.3388519287109375,-0.033447265625
1738772140470964500,12.372964599609375,-0.9442901611328125,-0.338623046875,-0.0340423583984375
1738772140480956400,12.382956298828125,-0.94464111328125,-0.3374481201171875,-0.0333709716796875
1738772140490947300,12.392947265625,-0.9437408447265625,-0.338897705078125,-0.0322113037109375
1738772140500938500,12.4029384765625,-0.94439697265625,-0.338836669921875,-0.034027099609375
1738772140510929400,12.412929443359374,-0.945098876953125,-0.3384857177734375,-0.032562255859375
1738772140520920300,12.42292041015625,-0.9455718994140625,-0.3396759033203125,-0.034271240234375
1738772140530911200,12.4329111328125,-0.94573974609375,-0.338531494140625,-0.03326416015625
1738772140540902400,12.44290234375,-0.9457244873046875,-0.3392791748046875,-0.033599853515625
1738772140550893300,12.452893310546875,-0.9460296630859375,-0.3390655517578125,-0.0328521728515625
1738772140560885500,12.462885498046875,-0.9451446533203125,-0.3381195068359375,-0.0343170166015625
1738772140570876400,12.47287646484375,-0.9446563720703125,-0.3383636474609375,-0.033538818359375
1738772140580867300,12.482867431640624,-0.94671630859375,-0.3377227783203125,-0.03363037109375
1738772140590858200,12.492858154296876,-0.9451141357421875,-0.33770751953125,-0.0337982177734375
1738772140600849400,12.502849365234376,-0.9449310302734375,-0.3389129638671875,-0.0357513427734375
1738772140610840300,12.51284033203125,-0.9473419189453125,-0.3384246826171875,-0.033447265625
1738772140620831200,12.522831298828125,-0.946868896484375,-0.338592529296875,-0.032867431640625
1738772140630822400,12.532822509765625,-0.9460601806640625,-0.3386688232421875,-0.035186767578125
1738772140640814300,12.542814453125,-0.9438018798828125,-0.33819580078125,-0.034637451171875
1738772140650805200,12.55280517578125,-0.9440765380859375,-0.3394012451171875,-0.0335540771484375
1738772140660796400,12.56279638671875,-0.94775390625,-0.3380126953125,-0.033599853515625
1738772140670787300,12.572787353515626,-0.946624755859375,-0.33892822265625,-0.034698486328125
1738772140680778200,12.5827783203125,-0.9443206787109375,-0.3391571044921875,-0.0326385498046875
1738772140690769400,12.592769287109375,-0.9459686279296875,-0.3377685546875,-0.0339202880859375
1738772140700760300,12.60276025390625,-0.945068359375,-0.33868408203125,-0.0348968505859375
1738772140710751200,12.612751220703124,-0.9462432861328125,-0.3388519287109375,-0.03399658203125
1738772140720743400,12.622743408203124,-0.94537353515625,-0.338134765625,-0.033721923828125
1738772140730734300,12.632734375,-0.946075439453125,-0.338409423828125,-0.034332275390625
1738772140740725200,12.642725341796876,-0.9467010498046875,-0.33868408203125,-0.0336456298828125
1738772140750716200,12.652716064453125,-0.9454345703125,-0.3392486572265625,-0.03509521484375
1738772140760707300,12.662707275390625,-0.9462432861328125,-0.3385162353515625,-0.0337371826171875
1738772140770698200,12.6726982421875,-0.9443817138671875,-0.3376617431640625,-0.0326690673828125
1738772140780689200,12.682689208984375,-0.9456939697265625,-0.3399810791015625,-0.03314208984375
1738772140790680300,12.692680419921874,-0.947021484375,-0.33837890625,-0.0339202880859375
1738772140800672300,12.70267236328125,-0.9454498291015625,-0.3389892578125,-0.033660888671875
1738772140810663200,12.7126630859375,-0.94537353515625,-0.33758544921875,-0.034393310546875
1738772140820654300,12.722654296875,-0.94415283203125,-0.3396453857421875,-0.033447265625
