time,seconds_elapsed,z,y,x
1738772128128164400,0.030164306640625,-0.002713350611925125,-0.0067018357262015335,0.007798398791253566
1738772128138155500,0.040155517578125,-0.08756371716260909,-0.014297405421733855,-0.008252974158339203
1738772128148146400,0.050146484375,-0.09228490046560764,-0.020316227319836615,0.017430808076635003
1738772128158138400,0.060138427734375,-0.03960954133272171,-0.01673193909227848,0.0356696446005255
1738772128168129500,0.070129638671875,-0.019507249024510384,-0.00493044213950634,0.013205226270854473
1738772128178120400,0.080120361328125,-0.053107905331254,-0.011262567770481109,0.007894917968288064
1738772128188111400,0.090111328125,-0.0688455726891756,-0.008618483002483844,0.010922302965447305
1738772128198102500,0.1001025390625,-0.057016603207588196,-0.013114917638897895,0.013025887648575008
1738772128208093400,0.110093505859375,-0.028742694881558416,-0.0069826984941959375,0.02058196558393538
1738772128218084400,0.12008447265625,-0.037709260669350625,-0.008075462166965008,0.024150325589999556
1738772128228076500,0.13007666015625,-0.03649754679203033,-0.008707330329716205,0.01030650915466249
1738772128238067500,0.1400673828125,-0.0546112956315279,-0.007325520582497119,0.015273191651329397
1738772128248058400,0.150058349609375,-0.06587269435822964,-0.007811842794716358,0.00848674638159573
1738772128258049300,0.16004931640625,-0.040862756264209744,-0.01131137534826994,0.01313756786212325
1738772128268040400,0.17004052734375,-0.03669160805940628,-0.0022837270230054853,0.019752857816033063
1738772128278031400,0.18003125,-0.04927987147569656,-0.0058253451526165,0.008989544804580508
1738772128288022300,0.190022216796875,-0.05210194315910339,0.0005491583153605461,0.002732347573339939
1738772128298014500,0.200014404296875,-0.04100830221474171,-0.009537059152126312,0.02115950974356383
1738772128308005400,0.21000537109375,-0.040537762093544004,-0.015731822139024732,0.01994914757311344
1738772128317996300,0.219996337890625,-0.06113046826720237,-0.0015188801303505897,0.017940949555858968
1738772128327987500,0.229987548828125,-0.05484335082173347,-0.011240648199617863,0.01633935957811773
1738772128337978400,0.239978271484375,-0.03331774771213531,0.0008028408154845237,0.014141886066459119
1738772128347969300,0.24996923828125,-0.038381460842490195,-0.0016565350353717804,0.016961911923252044
1738772128357960400,0.25996044921875,-0.05167407313585281,-0.008619359785318375,0.02499200057853013
1738772128367951400,0.269951416015625,-0.057060442349314684,-0.011312836652994155,0.007164411736652255
1738772128377943300,0.279943359375,-0.055419104883074756,-0.004542904126644134,0.01247172436453402
1738772128387934500,0.2899345703125,-0.05182838691473007,-0.005428162528574467,0.01116900773551315
1738772128397925400,0.29992529296875,-0.045510289809107776,-0.006110007312893867,0.030226101839728653
1738772128407916300,0.309916259765625,-0.05701952581703663,-0.008090659736096859,0.015103059248812495
1738772128417907500,0.319907470703125,-0.060599137869477265,-0.001381225225329399,0.008158756536245346
1738772128427898400,0.3298984375,-0.043515316599607466,-0.004574760569632053,0.01993044287264347
1738772128437889300,0.33988916015625,-0.040780338677763935,-0.004831365679204463,0.018944098716415465
1738772128447881500,0.349881591796875,-0.03940554319322109,-0.010148761309683322,0.020020788037218153
1738772128457872400,0.359872314453125,-0.05870937860012054,-0.004311141197383403,0.021819836815819144
1738772128467863300,0.36986328125,-0.049583822858333584,-0.011174889487028121,0.007772424099780619
1738772128477854200,0.379854248046875,-0.05900573119819164,-0.001449029764533043,0.015101890205033122
1738772128487845400,0.389845458984375,-0.05821311951577663,-0.006961363445222377,0.005393310410901904
1738772128497836300,0.399836181640625,-0.040701428222656245,-0.01595423271805048,0.003187215201370418
1738772128507828500,0.409828369140625,-0.046669396716356275,-0.008814590096473693,0.01435151022914797
1738772128517819400,0.4198193359375,-0.0560837062716484,-0.004653086502850056,0.01412252377886325
1738772128527810300,0.429810302734375,-0.0602840805709362,0.007950666743516922,0.0006121040163561701
1738772128537801200,0.43980126953125,-0.04346738580465317,-0.011049217280745505,0.009606946050561964
1738772128547792400,0.44979248046875,-0.05253916553258896,-0.021671149060130117,0.016695589137263597
1738772128557783300,0.459783203125,-0.06043371817469596,-0.009504618187248706,0.010886099140904843
1738772128567774200,0.469774169921875,-0.053821022036671634,-0.00794423700273037,0.0113887514334172
1738772128577765400,0.479765380859375,-0.04976385560035705,-0.006499298891425132,0.012485533694177865
1738772128587757300,0.48975732421875,-0.04466214854717254,-0.014008067086338996,0.006387070688605308
1738772128597748200,0.499748291015625,-0.052363224443793294,-0.02559942841976881,0.019952033649943766
1738772128607739400,0.509739501953125,-0.04603402142226696,-0.014051613967120647,0.022806290569901466
1738772128617730300,0.519730224609375,-0.04978548291027546,-0.0035328503012657165,0.0207171362709254
1738772128627721200,0.52972119140625,-0.047239890080690385,-0.0027718028008937834,0.023969342999905347
1738772128637712400,0.53971240234375,-0.03957563906311989,-0.0043485505983233445,0.009363456150889396
1738772128647703300,0.549703369140625,-0.051395840716361996,-0.013175415654480457,0.00824694627635181
1738772128657695200,0.5596953125,-0.0441805025100708,-0.0032338673546910284,0.020468203011155126
1738772128667686400,0.569686279296875,-0.04492927505075931,-0.0006757073044776916,0.008362097088620067
1738772128677677300,0.57967724609375,-0.043729251611232756,-0.0241620890930295,0.0053689796872437
1738772128687668200,0.589668212890625,-0.05091887085437774,-0.012756897981464862,0.02156198959723115
1738772128697659100,0.5996591796875,-0.04644260222315788,-0.011211714366078375,0.0016646818092092871
1738772128707650300,0.609650390625,-0.04342179309725761,-0.0018488427370786666,0.014551014856621622
1738772128717641500,0.619641357421875,-0.05490355657637119,-0.004051028956472873,0.019592479622550306
1738772128727633400,0.62963330078125,-0.056258478316664695,-0.0020808979272842407,0.014625614462792872
1738772128737624300,0.639624267578125,-0.04551204337477684,-0.017551146520674226,0.010138605241850018
1738772128747615200,0.649615234375,-0.05476151775717735,-0.012383096233010291,0.013342661980167031
1738772128757606100,0.659606201171875,-0.0369651643037796,-0.0154980133831501,0.02279182365313172
1738772128767597300,0.669597412109375,-0.027979309293627738,-0.0008475567400455475,0.010306911013461649
1738772128777588500,0.67958837890625,-0.04037760309576988,-0.004938917706906795,0.005414060937985778
1738772128787579400,0.689579345703125,-0.06355798767507076,-0.01992518217563629,0.0012276786314323544
1738772128797571300,0.6995712890625,-0.04068389256596565,-0.0186567696750164,0.009768712483532727
1738772128807562200,0.709562255859375,-0.04934709149301052,-0.01016454340070486,0.007014299208857119
1738772128817553400,0.719553466796875,-0.03707213180959224,-0.007781447656452656,0.01732197740729898
1738772128827544600,0.729544677734375,-0.04632277523577213,-0.021769640998542308,0.008902706771343945
1738772128837535500,0.739535400390625,-0.045885552862286565,-0.012149871999025345,0.0025192528119310736
1738772128847526400,0.7495263671875,-0.05832184058725833,-0.0038619361251592634,0.013178959318436682
1738772128857518300,0.759518310546875,-0.055925885361433024,-0.009404372683167458,0.02484886578079313
1738772128867509200,0.76950927734375,-0.0369043740272522,-0.0022708675414323805,0.007344809804856777
1738772128877500400,0.77950048828125,-0.039757425370812415,-0.008827157317101954,0.005107369608990848
1738772128887491600,0.78949169921875,-0.060388125467300414,-0.02503244218677282,0.004401997818611562
1738772128897482500,0.799482421875,-0.0631686960965395,-0.007829378451406955,-0.004615823232382536
1738772128907473400,0.809473388671875,-0.04521861338615417,-0.015590952363610267,0.012140410050936043
1738772128917464300,0.81946435546875,-0.035465281134843825,-0.016271628104150296,0.01234473698399961
1738772128927455500,0.82945556640625,-0.04277122023403644,-0.008709668417274951,-0.001152019579336047
1738772128937447400,0.839447509765625,-0.04918868606090546,-0.006492284628748893,0.010024696538597345
1738772128947438600,0.8494384765625,-0.05353869796395302,-0.006908756475150585,0.008938727932795881
1738772128957429500,0.859429443359375,-0.059254153001308436,-0.007872340810298918,0.0029357977235689755
1738772128967420400,0.86942041015625,-0.04502922829389572,-0.010590952119231223,0.017146072851121425
1738772128977411300,0.879411376953125,-0.029111528193950652,-0.00790975021123886,0.0007345248196274042
1738772128987402500,0.889402587890625,-0.043650341156125066,-0.00963818143904209,0.024980492803826925
1738772128997395500,0.8993955078125,-0.05129881008267402,-0.013182137656211852,0.011355141424760221
1738772129007386400,0.909386474609375,-0.054603112325072284,-0.01628390306383371,0.0039653234343975784
1738772129017377300,0.919377197265625,-0.04332885411679745,-0.0011614449948072433,0.008265395248495042
1738772129027368400,0.929368408203125,-0.03356032429635525,-0.0021788053438067433,0.008433847150579094
1738772129037359400,0.939359375,-0.06018178924024105,-0.01149082356840372,0.004659625841490924
1738772129047350500,0.9493505859375,-0.05646130741238594,-0.000037701661884784696,0.0023271643059328195
1738772129057341400,0.959341552734375,-0.034468086791038514,-0.010781798516213893,0.013807758741267025
1738772129067332600,0.96933251953125,-0.049395606809854505,-0.015367665001749992,0.006568235941790044
1738772129077324300,0.97932421875,-0.05133388139605522,-0.01899286976158619,0.01973298407178372
1738772129087315500,0.9893154296875,-0.03761164551377296,-0.018120178580284117,0.013442286429740487
1738772129097306400,0.999306396484375,-0.03701777127385139,-0.007477204012870788,-0.0005265446247532964
1738772129107297500,1.009297607421875,-0.03487608307003975,-0.001768178716301918,0.0078067282281816
1738772129117288400,1.019288330078125,-0.05640928496420383,-0.014981588293612003,0.006821699246205389
1738772129127279600,1.029279541015625,-0.06554185496866703,0.005990472586452961,0.00611515841204673
1738772129137270500,1.0392705078125,-0.03863689690828323,0.001903203272819519,0.014007117238268255
1738772129147262200,1.04926220703125,-0.026054478710889815,-0.005020750771462917,0.016447021203674375
1738772129157253400,1.05925341796875,-0.05688391673862934,-0.01205459493100643,0.018510164278559386
1738772129167244500,1.06924462890625,-0.05032441209256649,-0.012126198862493038,0.004213051117770374
1738772129177235500,1.0792353515625,-0.054043724876642225,-0.0061906713336706155,0.009936214537546038
1738772129187226600,1.0892265625,-0.0350134457141161,-0.025275018770992756,0.016444317789934576
1738772129197217500,1.099217529296875,-0.05264554851651192,-0.01443184545636177,-0.0011162906788289547
1738772129207209500,1.10920947265625,-0.05532733494639396,-0.009824059399962424,0.0009632920742034911
1738772129217200600,1.11920068359375,-0.04333119220435619,-0.007776479220390319,-0.003310001330822706
1738772129227191600,1.129191650390625,-0.030143209329247474,-0.015607903498411178,0.007862769264355302
1738772129237182500,1.139182373046875,-0.04177461041212081,-0.004497311419248581,0.011302351791597902
1738772129247173600,1.149173583984375,-0.05253975005447864,-0.002113338892161846,-0.0007956073570996522
1738772129257164500,1.15916455078125,-0.04625087904334068,-0.005999824936687946,0.00967482365500182
1738772129267155500,1.169155517578125,-0.03442190956175327,-0.016038403870165346,0.0008945376869291066
1738772129277147600,1.179147705078125,-0.04711947857141494,-0.005931728136539459,0.007126454346440732
1738772129287138600,1.189138671875,-0.048014381584525104,-0.011928922724723815,0.004457125539332628
1738772129297129500,1.19912939453125,-0.05937397998869419,-0.00492430465966463,0.007680727228336036
1738772129307120600,1.20912060546875,-0.04950082074999809,0.0016696867778897284,0.011093312150798737
1738772129317111600,1.219111572265625,-0.03974631945490837,-0.0069482117027044295,0.002827332380414009
1738772129327102500,1.2291025390625,-0.05186404275000095,-0.009959376217424869,0.008775025271065533
1738772129337093400,1.23909326171875,-0.04302314916849136,-0.014026479525864123,0.016923808402568102
1738772129347085600,1.24908544921875,-0.047369069418311115,-0.010869769060611724,0.014412994625419378
1738772129357076500,1.259076416015625,-0.05632686737775802,-0.0068920976012945175,0.007747070462815463
1738772129367067400,1.2690673828125,-0.05257774397730827,-0.012601999680697917,0.019578414564579726
1738772129377058600,1.27905859375,-0.04345452632308006,-0.01469020413160324,0.012892032135836779
1738772129387049500,1.289049560546875,-0.05854512794911861,-0.02073474499285221,0.017632358530722557
1738772129397040400,1.299040283203125,-0.043413609790802,-0.00941518633812666,0.002403006021119654
1738772129407031600,1.309031494140625,-0.05567921712398529,-0.013920973324775696,0.011269874294102191
1738772129417022500,1.3190224609375,-0.03189560595452785,-0.008205518287420272,0.009565481529012322
1738772129427014400,1.329014404296875,-0.031007132682204244,-0.009222878636419773,0.007137742925435305
1738772129437005600,1.339005615234375,-0.04206628683507442,-0.0032785832792520523,0.008357749707065522
1738772129446996500,1.34899658203125,-0.041291795331239695,-0.013367723356187343,0.011993512393534182
1738772129456987400,1.3589873046875,-0.050256023031473154,-0.019093115265667437,0.007503470965288579
1738772129466978600,1.368978515625,-0.05743745896816253,-0.003073708356916904,0.0049982101460918785
1738772129476969500,1.378969482421875,-0.038269817161560055,-0.00878857887238264,0.006239917302876711
1738772129486960400,1.38896044921875,-0.039899464190006256,-0.002695522694289684,0.01174034135006368
1738772129496952600,1.39895263671875,-0.04616963050067425,-0.021442016479372977,0.011153992829471826
1738772129506943500,1.408943603515625,-0.04856324763894081,-0.010519055926799773,0.014131693466007709
1738772129516934400,1.418934326171875,-0.04003565779030323,-0.007807751141488552,0.01175619650632143
1738772129526925600,1.428925537109375,-0.04900163905620575,-0.008429097910225392,0.020032332344539463
1738772129536916500,1.43891650390625,-0.055284080326557156,-0.013537234704196452,-0.0024360680405050516
1738772129546907400,1.448907470703125,-0.05122691389024257,-0.009694295540452003,-0.004363821232691407
1738772129556898300,1.458898193359375,-0.04144552458822727,-0.012830547739565372,0.004967267018556595
1738772129566890500,1.468890380859375,-0.04709259056448936,-0.0018652093499898909,0.004494169614091516
1738772129576881400,1.47888134765625,-0.055474049940705296,-0.010388999806344508,0.006439677658677101
1738772129586872300,1.488872314453125,-0.042868835389614106,-0.010033025975525378,0.003841550924256444
1738772129596863500,1.498863525390625,-0.023521160840988157,-0.003553893089294433,0.013674853076599538
1738772129606854400,1.5088544921875,-0.02753741074502468,-0.00869885476231575,0.009233911487087607
1738772129616845300,1.51884521484375,-0.04592880748212337,-0.023864275190234183,0.0029170564904808997
1738772129626836500,1.52883642578125,-0.06540449232459068,-0.00405161347836256,0.009103416975215077
1738772129636828400,1.538828369140625,-0.041190088522434234,-0.012477788779139519,-0.00510718694590032
1738772129646819300,1.5488193359375,-0.029183424386382103,-0.02349047344177961,0.010509667043946683
1738772129656810500,1.558810546875,-0.046648938450217246,-0.015400690488517284,0.021953728861175477
1738772129666801400,1.568801513671875,-0.06207564016282558,-0.011030220319330692,0.007363806766271591
1738772129676792300,1.578792236328125,-0.05103869784176349,-0.01045563530176878,-0.004402838068827987
1738772129686783500,1.588783447265625,-0.0273883576631546,-0.005680091463029384,0.005097177008539438
1738772129696774400,1.5987744140625,-0.04297755646109581,-0.01969341924637556,0.018930545115098354
1738772129706766300,1.608766357421875,-0.06153729550242424,-0.007119768877327442,0.005409932752139866
1738772129716757500,1.618757568359375,-0.04014496338367462,0.007587678650021553,-0.011009177531301975
1738772129726748400,1.62874853515625,-0.042238720792531964,-0.005415595307946205,-0.010157346474938093
1738772129736739300,1.6387392578125,-0.048965983220934865,-0.024294775561988353,-0.0005076207285746932
1738772129746730500,1.64873046875,-0.058225394475460046,-0.008636895442008971,0.018691548727452753
1738772129756721400,1.658721435546875,-0.05915653784573078,-0.0074836337536573405,0.005374971036612987
1738772129766712300,1.66871240234375,-0.029236031356453893,0.0015326163947582245,0.0014529387546703219
1738772129776704500,1.67870458984375,-0.03697042500078678,-0.011174012704193591,0.012900105844438075
1738772129786695400,1.6886953125,-0.05955459725260734,-0.019001929850876332,0.015003836658038198
1738772129796686300,1.698686279296875,-0.06212474000155925,-0.00964168857038021,-0.006042348904162645
1738772129806677200,1.70867724609375,-0.03596270926296711,-0.001169043779373169,-0.004343984021060169
1738772129816668400,1.71866845703125,-0.03594517360627651,-0.008116378699243068,0.013465959566272794
1738772129826659300,1.728659423828125,-0.06567103430628776,-0.022198095543682572,0.01950034435968846
1738772129836650500,1.738650390625,-0.059978960144519804,-0.008140636357665062,0.0094174878930673
1738772129846641700,1.7486416015625,-0.05099778130948543,-0.007840484367311001,-0.00594692570567131
1738772129856633300,1.75863330078125,-0.026108839246630666,-0.009771160168945789,0.01004025943391025
1738772129866624300,1.768624267578125,-0.05794950014352798,-0.017212708346545695,0.021923662516474724
1738772129876615400,1.778615478515625,-0.0646931291848421,-0.014629413855075836,-0.011564400261268018
1738772129886606300,1.7886064453125,-0.038186230531334873,-0.0029848610296845436,0.002934847875498235
1738772129896597500,1.798597412109375,-0.054335985821485515,-0.014391221185028552,0.011334756223857403
1738772129906588700,1.808588623046875,-0.05329436781406402,-0.008558861769735812,0.013618958170898258
1738772129916579600,1.81857958984375,-0.05568155521154403,-0.007974339880049228,0.0023449556909501553
1738772129926571300,1.8285712890625,-0.04011573728919029,-0.011850889052450657,-0.00014302519988268613
1738772129936562400,1.8385625,-0.022145196312665937,-0.010245499682426452,0.01410652249213308
1738772129946553300,1.84855322265625,-0.0456616809785366,-0.009591711948812007,0.007160721942223608
1738772129956544500,1.85854443359375,-0.062439212778210636,-0.006101824006438255,0.001944302468188107
1738772129966535700,1.86853564453125,-0.05044365455806255,-0.006449030008912086,-0.0022961481131613254
1738772129976526600,1.878526611328125,-0.0373790058016777,0.009739011465013027,0.013199819443374871
1738772129986517500,1.888517578125,-0.0512561399847269,-0.0047474867880344385,0.022296477884240447
1738772129996509200,1.89850927734375,-0.0581622661113739,-0.005882628297805786,-0.004625942767597735
1738772130006500000,1.9085,-0.04230418724417686,0.0004348842859268188,-0.008888166789337992
1738772130016491000,1.918490966796875,-0.034060090512037275,-0.020397768123447894,0.0027151772428303956
1738772130026482200,1.928482177734375,-0.03388941012024879,-0.014628537072241305,0.0017498393420130012
1738772130036473000,1.93847314453125,-0.055412675142288204,-0.016041618740558622,0.0023340689707547426
1738772130046464000,1.948464111328125,-0.06184124688506126,-0.003779518538713455,0.007182751110941171
1738772130056456200,1.958456298828125,-0.042371991783380504,-0.0074032619938254355,0.005403904870152473
1738772130066447000,1.968447021484375,-0.02767944956421852,-0.01421966401040554,0.0060636474205181
1738772130076438000,1.97843798828125,-0.04905892220139503,-0.011896481759846209,0.01716185494214296
1738772130086429000,1.988428955078125,-0.06564122368991375,-0.014667700038850307,0.010594057391770183
1738772130096420000,1.998420166015625,-0.05264379495084286,-0.005317687891423702,0.012101320149563253
1738772130106411000,2.008410888671875,-0.028989363119006156,-0.013127192598581314,0.00023143413569778204
1738772130116402000,2.01840185546875,-0.04619008876681328,-0.02273760924786329,0.0069567968679592005
1738772130126394000,2.02839404296875,-0.07188567103743553,-0.016422434751689433,0.0020163813237100837
1738772130136385000,2.038385009765625,-0.04884323362410068,-0.014308219076693057,0.001722732139378786
1738772130146376000,2.0483759765625,-0.032818566018342966,0.001817278555035591,0.005151720207370817
1738772130156367000,2.0583671875,-0.04280103085041046,-0.012963818730413914,0.0036147929636761544
1738772130166358000,2.06835791015625,-0.06118073714971542,-0.012280512641370296,0.00324818814098835
1738772130176349000,2.078348876953125,-0.06027063656747341,-0.01140636015534401,-0.002542560622282326
1738772130186340000,2.088340087890625,-0.051726680105924606,-0.006059153908491134,0.0011847162725403904
1738772130196332000,2.09833203125,-0.029121465066075325,-0.005188508553802967,0.0005891615321859717
1738772130206323000,2.108322998046875,-0.049291561913490295,-0.01246726738512516,0.00022953443955630063
1738772130216314000,2.118314208984375,-0.0546896215647459,-0.010937573599815368,-0.0033773674786090847
1738772130226305000,2.128304931640625,-0.03460661847889423,-0.01579085884988308,-0.007367423495464026
1738772130236296000,2.1382958984375,-0.042509354427456854,-0.010625438910722733,0.0175691936340183
1738772130246287000,2.148287109375,-0.052360886356234544,-0.0017266776621341704,0.0015143500857055187
1738772130256278000,2.158278076171875,-0.052207741621136665,-0.009821429051458835,0.0021570319034159183
1738772130266270000,2.16827001953125,-0.04383095842003822,0.0003638648763298988,0.0009371712522581219
1738772130276261000,2.17826123046875,-0.043513563033938406,-0.004775543838739395,-0.002490501641482115
1738772130286252000,2.188251953125,-0.05219195953011512,-0.016165829642117022,0.011290880549512803
1738772130296243000,2.198242919921875,-0.054907648229598996,-0.015209259569644928,-0.007376958508789539
1738772130306233900,2.20823388671875,-0.04624620286822319,-0.019042554122209548,0.007347842012159526
1738772130316225000,2.21822509765625,-0.046082536739110946,-0.021617957568168637,0.0029305370265617966
1738772130326216000,2.2282158203125,-0.042134091374278065,-0.003083352968096733,0.012151698629930615
1738772130336208100,2.2382080078125,-0.060228550991415976,-0.00026858780831098556,0.0037303821673616766
1738772130346199000,2.248198974609375,-0.057221185868978494,-0.009423661905527115,0.0006106427116319537
1738772130356190000,2.25818994140625,-0.035792613393068315,-0.017737316742539404,-0.003296959186159074
1738772130366180900,2.268180908203125,-0.022268530431389807,-0.01775017622411251,0.003464643903262913
1738772130376172000,2.278172119140625,-0.05619418090879917,-0.021012685151398182,0.006052431906759739
1738772130386163000,2.288162841796875,-0.05859598135352134,-0.017537410256266595,0.0012847060482949018
1738772130396155000,2.29815478515625,-0.04198854542374611,-0.0019549334600567816,0.0023433117231354116
1738772130406146000,2.30814599609375,-0.03583352992534637,-0.012633271601796149,0.00696205756496638
1738772130416137000,2.318136962890625,-0.04971767837107181,-0.01945551883727312,0.0032153087846934795
1738772130426128000,2.3281279296875,-0.05631400789618492,-0.0020566402688622473,-0.0004347016228362918
1738772130436119000,2.338119140625,-0.05438391661643981,-0.007540332376956939,0.0015431377887725828
1738772130446110000,2.34810986328125,-0.0416664738625288,-0.01950081928372383,-0.0010522855319082735
1738772130456100900,2.358100830078125,-0.050307460957765573,-0.01691314087808132,0.004471154064685106
1738772130466092000,2.368092041015625,-0.04732523027658462,-0.02122106720507145,0.007905475894920527
1738772130476084000,2.378083984375,-0.047184945023059845,-0.019839257457852363,-0.0023576690420508382
1738772130486075000,2.388074951171875,-0.04105681753158569,-0.019239245738089085,-0.0023341055033728477
1738772130496066000,2.398066162109375,-0.04149988512396812,-0.027191666047275066,0.008486600251123308
1738772130506057000,2.408056884765625,-0.036249124988913535,-0.013761398848891257,0.005194901761971414
1738772130516048000,2.4180478515625,-0.04586451007425785,-0.004218202216923236,0.00017137451153248547
1738772130526038800,2.428038818359375,-0.04424889157116413,-0.01670446656346321,0.0027310689317062496
1738772130536031000,2.438031005859375,-0.03612579087018966,-0.03059212214052677,0.006190927061997354
1738772130546022000,2.44802197265625,-0.05584171420931816,-0.022157179011404512,0.004474953456968069
1738772130556013000,2.458012939453125,-0.047749008646607395,-0.010813947220146655,-0.009190072345361113
1738772130566004000,2.46800390625,-0.03699263683259487,-0.02467617609500885,-0.007129230825416743
1738772130575995000,2.477994873046875,-0.03160860570669174,-0.009857084886729716,0.006357990724593401
1738772130585985800,2.48798583984375,-0.04358136757314205,-0.02123889512270689,0.007709405333548784
1738772130595977000,2.49797705078125,-0.06061784256994724,-0.019649580104649067,-0.0022339330645278093
1738772130605969000,2.507968994140625,-0.050744098809361454,-0.00512041175365448,-0.0009633286068215966
1738772130615959800,2.517959716796875,-0.035189386802911754,-0.018716390907764432,0.0060734016295522445
1738772130625951000,2.527950927734375,-0.03771802849769592,-0.004987725284695625,-0.0016008593253791332
1738772130635942000,2.53794189453125,-0.04640636186599731,-0.011831892091035842,0.007092040620185434
1738772130645932800,2.547932861328125,-0.045998950108885765,0.0005640636235475539,-0.003935841611586511
1738772130655924000,2.557924072265625,-0.050348962011933326,-0.009575637596845626,-0.0020457170160487295
1738772130665915100,2.5679150390625,-0.026098902374505996,-0.016477672070264817,0.009873414967022836
1738772130675906800,2.57790673828125,-0.0431435606777668,-0.0030526655688881874,0.01662906323969364
1738772130685898000,2.58789794921875,-0.04117430643141269,-0.02630611538439989,0.008924772472679615
1738772130695889000,2.597888916015625,-0.04417348824739456,-0.027038813573122024,0.0017661694223061204
1738772130705879800,2.6078798828125,-0.04432780202627182,-0.009515139581263064,0.009367693934589624
1738772130715871000,2.61787109375,-0.03129530197381973,-0.03064823624193668,0.0021441724218428135
1738772130725862100,2.627862060546875,-0.019592004698514937,-0.0225128605812788,-0.004980747554637491
1738772130735853000,2.63785302734375,-0.05565116007328033,-0.011002163268625735,0.004161941985040903
1738772130745845000,2.647844970703125,-0.047591772258281706,-0.02514846978187561,0.0037588776094838973
1738772130755836000,2.6578359375,-0.038896424627304076,-0.0190469380363822,0.0030353491079062223
1738772130765826800,2.667826904296875,-0.05670154590904712,-0.006934767699241637,0.007406549929454922
1738772130775818000,2.67781787109375,-0.05175181454718113,-0.011602174988389015,0.013521671808883548
1738772130785809200,2.68780908203125,-0.054281040763854975,-0.0026668811216950415,0.012944675638526677
1738772130795800000,2.697800048828125,-0.04190729688107967,-0.007766250087320804,-0.0006262786721810698
1738772130805791000,2.707791015625,-0.026818448820710182,-0.008135083399713038,0.0015067878337576984
1738772130815783000,2.717782958984375,-0.051067339414358134,-0.009916413858532905,-0.004263246935047209
1738772130825774000,2.727774169921875,-0.053174540826678274,-0.008678688757121562,0.00255001327637583
1738772130835765000,2.737764892578125,-0.03675298285782337,-0.003616144670546055,-0.002844648841395974
1738772130845756200,2.747756103515625,-0.03194119866192341,-0.023871581713855266,-0.007894443044252693
1738772130855747000,2.7577470703125,-0.04163374063670635,-0.0006318681627511978,-0.00840600929558277
1738772130865738000,2.767738037109375,-0.051043958538770674,-0.0009764438167214393,-0.0007908946493640542
1738772130875729200,2.777729248046875,-0.04357961400747299,-0.017070085005462168,-0.008463803897425532
1738772130885721000,2.78772119140625,-0.0325035087198019,-0.020210721118748186,-0.006315101430937648
1738772130895712000,2.7977119140625,-0.047886371290683745,-0.02792816362828016,0.000442446537874639
1738772130905703200,2.807703125,-0.056555999958515166,-0.010594459250569344,-0.0012104352356866002
1738772130915694000,2.817694091796875,-0.051310500520467754,-0.014646364989876747,-0.014493768244050442
1738772130925685000,2.82768505859375,-0.04335866473317146,-0.0069195701301097865,-0.006758022892847657
1738772130935676200,2.83767626953125,-0.037809798434376714,-0.007267652915418148,-0.0013844400957226752
1738772130945667000,2.8476669921875,-0.04646247596740723,-0.006602174744009971,0.003657828387804329
1738772130955659000,2.857658935546875,-0.052017187485098836,-0.008798515744507312,-0.010243307725340127
1738772130965650200,2.867650146484375,-0.048753801774978636,-0.010814239481091498,0.003391067210398614
1738772130975641000,2.87764111328125,-0.05402385113239288,-0.007126783140003681,-0.0010004092141985893
1738772130985632000,2.887632080078125,-0.04413783241212368,-0.01777677197009325,0.00721636111959815
1738772130995623200,2.897623046875,-0.04860182608366012,-0.02083937441110611,0.0024110431971028448
1738772131005614300,2.9076142578125,-0.045913025391101835,-0.016192425388097762,-0.0017312807720154522
1738772131015605200,2.917605224609375,-0.055963879284262656,-0.01686521008312702,-0.0010316080700606108
1738772131025597200,2.92759716796875,-0.04771452185511589,-0.02110211700052023,-0.0007930135412141681
1738772131035588400,2.93758837890625,-0.03439268346726894,-0.020968261487782,0.0005898921845480799
1738772131045579300,2.947579345703125,-0.05906009173393249,-0.011775193467736244,-0.00009936872124671936
1738772131055570200,2.957570068359375,-0.06220423497855663,-0.007734101383388042,0.0036800402196124193
1738772131065561300,2.967561279296875,-0.03901975874602794,-0.019958499923348427,0.006325038303062319
1738772131075552300,2.97755224609375,-0.03663315587043762,-0.02202887645661831,0.004656082177534699
1738772131085543200,2.987543212890625,-0.04948971483409405,-0.014136661902070045,0.007080094454064965
1738772131095535400,2.997535400390625,-0.0558615879535675,-0.014007774825394153,0.006149170279502869
1738772131105526300,3.0075263671875,-0.051959319818019864,-0.016273673930764197,0.005140285497903824
1738772131115517200,3.01751708984375,-0.04852233110666275,-0.00158726919144392,0.001452244634926319
1738772131125508400,3.02750830078125,-0.04328559949696064,-0.010405366419255734,0.006156257607415318
1738772131135499300,3.037499267578125,-0.038629882645606996,-0.015237316620349883,0.0071780749358236785
1738772131145490200,3.047490234375,-0.048370355415344235,-0.020877952855825423,0.006650690060853958
1738772131155481000,3.057481201171875,-0.057228784653544425,-0.01241407589316368,0.006952230290696025
1738772131165473300,3.067473388671875,-0.0449473952293396,-0.014240414537489414,0.001845773997157812
1738772131175464200,3.077464111328125,-0.03941606458723545,-0.02080313405394554,-0.0061451882241293785
1738772131185455000,3.087455078125,-0.06396013873517513,-0.018557693214714528,0.009345883961580693
1738772131195446300,3.0974462890625,-0.04808043255805969,-0.018007365855574605,0.006485526094399392
1738772131205437200,3.107437255859375,-0.040897243055701256,-0.009470131395757198,-0.004680412901192903
1738772131215428000,3.117427978515625,-0.04373217422068119,-0.011588730984926222,0.0029522008690983054
1738772131225420300,3.127420166015625,-0.04389934748113155,-0.01602466760575771,-0.007100260459259152
1738772131235411200,3.1374111328125,-0.051855274921655654,-0.01803776099383831,0.008782003001123665
1738772131245402000,3.147402099609375,-0.037221184891462325,-0.010465864434838294,-0.01716379117090255
1738772131255393300,3.157393310546875,-0.04349427381157875,-0.010654665005207061,0.0005604103617370129
1738772131265384200,3.16738427734375,-0.03871288475394249,-0.003158464030921459,0.004054280359484255
1738772131275375000,3.177375,-0.04214461276829243,-0.009916706119477748,-0.015713117438554764
1738772131285366300,3.1873662109375,-0.04575111282765865,-0.008670797711610794,0.003077946140617132
1738772131295357200,3.197357177734375,-0.05008943429291248,-0.0068760232493281365,-0.00982910090126097
1738772131305349000,3.20734912109375,-0.05953647707402706,-0.020286124442517758,-0.00894877440277487
1738772131315340300,3.21734033203125,-0.06150047062337398,-0.01977496004998684,0.005616342044435441
1738772131325331200,3.227331298828125,-0.03547755609452724,-0.018530805207788943,-0.0017934227554127573
1738772131335322000,3.237322021484375,-0.04222644583284855,-0.01699380489885807,-0.005973229190707206
1738772131345313300,3.247313232421875,-0.052069209933280944,-0.007964403007924557,0.0021657631991431115
1738772131355304200,3.25730419921875,-0.06524725593626499,-0.004799509236216545,-0.00242127233017236
1738772131365295000,3.267295166015625,-0.03818856861889362,-0.010116320344805717,-0.0034390345379710194
1738772131375287300,3.277287353515625,-0.0518009143859148,-0.017609890970587728,-0.008393442074954509
1738772131385278200,3.2872783203125,-0.040435470762848855,-0.012500292871892452,0.014927300823107361
1738772131395269000,3.29726904296875,-0.047642625662684436,-0.010180910013616085,-0.003545600184984505
1738772131405260000,3.307260009765625,-0.05467851564884185,-0.012409984239935874,-0.004072290940210223
1738772131415251200,3.317251220703125,-0.03221475490629673,-0.020235563299059865,0.00035864071194082495
1738772131425242000,3.3272421875,-0.0441980381667614,-0.015108137282729148,-0.0023900369416922328
1738772131435233000,3.33723291015625,-0.03865267899930477,-0.016937106275558472,-0.015765724408626555
1738772131445225200,3.34722509765625,-0.056144496548175805,-0.00440671052634716,-0.0064013549422845244
1738772131455216000,3.357216064453125,-0.04624503382444382,-0.018370061688125133,-0.006279262932576238
1738772131465207000,3.36720703125,-0.04697860879600048,-0.017206278605759143,0.012495032174885273
1738772131475198200,3.3771982421875,-0.03769581666588783,-0.022913550336658952,0.0019387495102360843
1738772131485189000,3.387189208984375,-0.06374035850465297,-0.018853169029951093,-0.020201734094694255
1738772131495180000,3.397179931640625,-0.04596037166416645,-0.006797697316110134,-0.0071145081803202625
1738772131505171200,3.407171142578125,-0.04643091178536415,-0.02259644721150398,-0.005504259972088039
1738772131515163100,3.4171630859375,-0.04433423176705837,-0.014238660971820354,0.008282821307331323
1738772131525154000,3.427154052734375,-0.046458968836069106,-0.008925941516458988,0.005070215936377644
1738772131535145200,3.437145263671875,-0.030012276425957676,-0.007682955718040466,-0.003545125260949135
1738772131545136000,3.44713623046875,-0.033435821133852,-0.008344049975275993,0.004963431093655526
1738772131555127000,3.457126953125,-0.04718026884794235,-0.013648293863236903,0.0003722673784941435
1738772131565118200,3.4671181640625,-0.03985270243883133,-0.015283786110579966,0.011173172453977167
1738772131575109000,3.477109130859375,-0.04647416640520095,-0.0011135141998529433,-0.0009427972754463553
1738772131585101000,3.48710107421875,-0.051856443965435026,-0.003964227455854416,0.0021488851295784115
1738772131595092200,3.49709228515625,-0.035219781941175456,-0.010479308438301086,0.004436119283922017
1738772131605083100,3.507083251953125,-0.054663318079710005,-0.020394260992109774,-0.003064465604536235
1738772131615074000,3.517073974609375,-0.05135901583731174,-0.006799743142724037,-0.010663688561879098
1738772131625065200,3.527065185546875,-0.032951252487301824,-0.012637070994079113,-0.002787731022387743
1738772131635056400,3.537056396484375,-0.04014379433989525,-0.007985445795953273,0.0118862891593948
1738772131645047300,3.54704736328125,-0.048073418295383454,-0.008897299943864345,0.008541910634934901
1738772131655039200,3.557039306640625,-0.049427755513787267,-0.006031389118731021,-0.0026879239097237586
1738772131665030100,3.567030029296875,-0.042678865775465966,-0.008313947097957134,0.004609941480867565
1738772131675021000,3.57702099609375,-0.03327332404851913,-0.014997954906523227,0.001258877487294376
1738772131685012200,3.58701220703125,-0.053643327382206916,-0.018537234948575496,-0.0017182020947337149
1738772131695003400,3.59700341796875,-0.04737900629043579,-0.014139584511518477,0.004409267809614539
1738772131704994300,3.606994384765625,-0.04619885659515857,-0.006159399412572384,0.0014030717309564352
1738772131714985200,3.616985107421875,-0.037511692270636554,-0.013661445605754852,0.01035666843932122
1738772131724977200,3.62697705078125,-0.04946399587094784,-0.007133212880790233,0.0036537002019584176
1738772131734968000,3.636968017578125,-0.04510638518333435,0.0016436755537986754,-0.0021779285609722135
1738772131744959200,3.646959228515625,-0.05658464153110981,-0.012530980271100996,-0.010242942399159074
1738772131754950400,3.656950439453125,-0.04354629625976086,-0.0099035543769598,-0.00684533585011959
1738772131764941300,3.66694140625,-0.05178747038245201,-0.00928746830523014,0.0042152065422385926
1738772131774932200,3.67693212890625,-0.0353442851036787,-0.012229074715077877,0.0011891367193311451
1738772131784923400,3.68692333984375,-0.05031038356721401,-0.007718903814256191,-0.003593457914702594
1738772131794914300,3.696914306640625,-0.039221418797969816,-0.008661445361375808,-0.010609949080646037
1738772131804906200,3.70690625,-0.03980243355631828,-0.017690554991364477,0.0004646218370646238
1738772131814897400,3.7168974609375,-0.049966684696078296,-0.007547346639633178,-0.006691898854076862
1738772131824888300,3.726888427734375,-0.05866144780516624,-0.005098492182791233,-0.005458740329928696
1738772131834879200,3.736879150390625,-0.0522410593688488,-0.022117723783850667,0.014434621935337781
1738772131844870100,3.7468701171875,-0.04415010737180709,-0.020957155571877956,-0.020954525223374366
1738772131854861300,3.756861328125,-0.05596446380615234,-0.01215045652091503,-0.009707191554643214
1738772131864852200,3.766852294921875,-0.050530163797736165,-0.012125029818713664,0.002196779391914606
1738772131874844400,3.776844482421875,-0.0316582900673151,-0.017560791131854055,-0.003359466495737433
1738772131884835300,3.78683544921875,-0.03555179037451744,-0.012471066777408122,-0.0011969912322238087
1738772131894826200,3.796826171875,-0.06759060419201851,-0.005097615399956703,0.010215469870343804
1738772131904817200,3.806817138671875,-0.059954410225152965,-0.013634265337884425,-0.003466507066786289
1738772131914808300,3.816808349609375,-0.04616436980366707,-0.010702595800161361,-0.007695011482015251
1738772131924799200,3.82679931640625,-0.044045477953553194,-0.012413783632218837,0.001134264726936817
1738772131934790100,3.8367900390625,-0.05214812038838863,-0.017002864988148212,0.00587901156861335
1738772131944782300,3.8467822265625,-0.04902151280045509,-0.007979308316111565,-0.008943477173149585
1738772131954773200,3.856773193359375,-0.04795417582988739,-0.006677285806834697,-0.002756495633907616
1738772131964764200,3.86676416015625,-0.051097150030732154,-0.020891396859288213,0.003072247052192688
1738772131974755300,3.87675537109375,-0.045565819388628005,-0.016391455091536045,-0.00288249663375318
1738772131984746200,3.886746337890625,-0.05740881739556789,-0.016627309674024583,0.008333090189844369
1738772131994737000,3.89673681640625,-0.04319616764783859,-0.006152385149896145,0.006307977570407092
1738772132004728000,3.90672802734375,-0.023436405166983604,-0.0033308979883790012,0.0024131620889529582
1738772132014720000,3.916719970703125,-0.04379121093153953,-0.017837562246620656,-0.002195537282899022
1738772132024711000,3.9267109375,-0.051744800284504885,-0.00087707509547472,-0.001618431514687836
1738772132034702000,3.9367021484375,-0.030329671812057493,-0.020225918687880037,-0.008512319214269518
1738772132044693000,3.94669287109375,-0.035275311520695685,-0.026197978834807872,-0.005000475168414413
1738772132054684000,3.956683837890625,-0.03633621875047684,-0.01912994014471769,0.001764013997837901
1738772132064675000,3.966675048828125,-0.04218260669112205,-0.018496610677242276,0.004837868485227227
1738772132074666000,3.976666015625,-0.05174947645962238,-0.020460896487534044,0.005499328068643808
1738772132084658000,3.986657958984375,-0.03963292220830917,-0.009832827228307724,0.010822020928747952
1738772132094649000,3.996649169921875,-0.042191374519467355,-0.012636486472189425,0.010835464932210742
1738772132104640000,4.006639892578125,-0.040675124737620354,-0.01359481011033058,0.0035607612214982507
1738772132114631000,4.016630859375,-0.03423310899138451,-0.009124678958952427,0.000235160462744534
1738772132124622000,4.0266220703125,-0.05459434449672699,-0.024957915645837783,0.010720241054706274
1738772132134613000,4.036613037109375,-0.04756371520757675,-0.008344926758110523,-0.0070470324346795675
1738772132144604000,4.04660400390625,-0.029059505745768547,-0.024957915645837783,-0.009328604033216833
1738772132154596000,4.05659619140625,-0.03444470591545105,-0.012093757897615432,0.002477824822999537
1738772132164587000,4.0665869140625,-0.05461772537231445,-0.02010258456915617,0.0072647303059697145
1738772132174578000,4.076577880859375,-0.03828735281825065,-0.01312251642346382,-0.005772263258509338
1738772132184568800,4.08656884765625,-0.04322364017665386,-0.015969722548127174,-0.004443718068487942
1738772132194560000,4.09656005859375,-0.035271804389357564,-0.00629851562231779,0.0007600611196830868
1738772132204551000,4.106551025390625,-0.04438917682468891,-0.020242869822680948,0.00794032801259309
1738772132214541800,4.116541748046875,-0.051714405146241184,-0.002759527841210365,0.002293992688693106
1738772132224534000,4.126533935546875,-0.05035539175271988,-0.009225801245868205,-0.0025102657878771422
1738772132234525000,4.13652490234375,-0.050500937703251834,-0.022842530927062035,0.0024621888624504207
1738772132244515800,4.146515869140625,-0.04271685969829559,-0.020158990931510926,-0.0026246859477832914
1738772132254507000,4.156507080078125,-0.03507774312198162,-0.024064181676506993,0.005552300364896655
1738772132264498000,4.166497802734375,-0.04973287594020366,-0.008383212941884995,-0.006518149722367524
1738772132274488800,4.17648876953125,-0.06037175885438919,-0.019122341360151767,-0.003474069318734109
1738772132284480000,4.18647998046875,-0.04796937339901924,-0.004255903878808021,-0.0032010975962504743
1738772132294472000,4.196471923828125,-0.040486908689141274,-0.02265577618330717,-0.009413688500784338
1738772132304462800,4.206462890625,-0.04451367998719215,-0.02060001269727945,0.010798713118396698
1738772132314454000,4.2164541015625,-0.04692191017270088,-0.006041325990855694,0.006867109290510416
1738772132324445000,4.22644482421875,-0.04844342065155506,-0.006121990011632442,-0.011386376813240348
1738772132334435800,4.236435791015625,-0.04709259056448936,-0.017351240034401416,-0.00648267655018717
1738772132344427000,4.246427001953125,-0.04825812721252441,-0.026272797636687755,-0.00016848843470215795
1738772132354418000,4.25641796875,-0.0375274743616581,-0.005352759204804897,0.006432772993855178
1738772132364409000,4.2664091796875,-0.041427404409646984,0.0008148235142230987,-0.0020035949073731896
1738772132374401000,4.276401123046875,-0.05487783761322498,-0.017503507986664772,-0.0073969783835113045
1738772132384392000,4.286391845703125,-0.04498597367405891,-0.00991495255380869,-0.005311879205144941
1738772132394382800,4.2963828125,-0.0569336010992527,-0.01820288842767477,0.0062844505643472074
1738772132404373800,4.306373779296875,-0.029400282007455824,-0.009822598095238208,-0.013330131292156874
1738772132414365000,4.316364990234375,-0.027745500537753105,-0.00819996532946825,0.004620207146555185
1738772132424356000,4.326356201171875,-0.05082710091769695,-0.011545184104144573,0.004258205433748662
1738772132434347000,4.336346923828125,-0.04871463880836963,-0.016681085687875748,-0.01056494089514017
1738772132444338200,4.346338134765625,-0.051232759109139436,-0.011511866356432436,-0.018392858041822908
1738772132454329000,4.3563291015625,-0.05820668977499008,-0.01452595348060131,-0.0014195479417219757
1738772132464321000,4.366321044921875,-0.04124912523329258,-0.014212357486784457,0.004879113811068237
1738772132474312200,4.376312255859375,-0.058303135886788364,-0.019461364056169987,-0.0020358897417783735
1738772132484303000,4.38630322265625,-0.04497954393327236,-0.014085808497667312,0.003913593247160316
1738772132494294000,4.3962939453125,-0.03868775031268597,-0.028922727623581886,-0.006678418317995965
1738772132504285200,4.40628515625,-0.05244038133323192,-0.010261866295337676,-0.00005472586192190647
1738772132514276000,4.416276123046875,-0.05407412001490593,-0.0203168118417263,0.007385762869752943
1738772132524267000,4.42626708984375,-0.030707857474684713,-0.011694529446959494,0.0001191694002598524
1738772132534259200,4.43625927734375,-0.042353871604800225,-0.01087473749667406,0.004383402715995907
1738772132544250000,4.44625,-0.0622317075073719,-0.019473346754908562,0.003958930226229131
1738772132554241000,4.456240966796875,-0.04978723647594452,-0.0174456403195858,-0.007288403442502022
1738772132564232200,4.466232177734375,-0.046185412591695785,-0.015977905854582787,-0.004307049544155598
1738772132574223000,4.47622314453125,-0.03901215996146202,-0.020443360830843447,-0.015049538963288069
1738772132584214000,4.486214111328125,-0.056795069411396976,-0.016163199293613432,-0.01003141854032874
1738772132594205000,4.496204833984375,-0.04644552483260631,-0.016822247724235056,-0.00233607826475054
1738772132604196000,4.506196044921875,-0.04613806631863117,-0.012663666740059852,-0.005533705262281001
1738772132614188000,4.51618798828125,-0.06649111851751804,-0.001884206311404705,-0.003290529445372522
1738772132624179000,4.526178955078125,-0.0415267731308937,-0.00779956783503294,0.0002959872718900442
1738772132634170000,4.536170166015625,-0.039003976655006406,-0.021376842288672922,-0.00998436452820897
1738772132644161000,4.5461611328125,-0.053503042128682135,-0.02473404376208782,0.017310871491394937
1738772132654152000,4.55615185546875,-0.039305005428195,-0.013309271167218684,0.0045639469146728515
1738772132664143000,4.56614306640625,-0.03645136956274509,-0.007643500490486621,-0.006291574424877763
1738772132674134000,4.576134033203125,-0.03898001125752926,-0.012626549600064754,0.007193710896372794
1738772132684126000,4.5861259765625,-0.04571428794860839,-0.022811551266908644,0.005519238345511258
1738772132694117000,4.5961171875,-0.060652913883328434,-0.011952595861256122,-0.00007617050874978304
1738772132704108000,4.60610791015625,-0.035031565892696376,-0.02311491812765598,-0.011182817065156996
1738772132714099000,4.616098876953125,-0.05165186130404472,-0.014416355626285075,-0.004959047179482877
1738772132724090000,4.626090087890625,-0.036242110726237294,-0.010967676477134227,0.003123758043721318
1738772132734081000,4.6360810546875,-0.05268704957067966,-0.009353811539709567,-0.0029626491978764534
1738772132744072000,4.646072021484375,-0.03561725682616233,-0.017014847686886787,0.004353190240822732
1738772132754064100,4.656064208984375,-0.046237435039877886,-0.012841361394524574,0.003956957464851439
1738772132764055000,4.666054931640625,-0.04637772029340267,-0.002236380749940872,-0.0011863237077370285
1738772132774046000,4.6760458984375,-0.06239069746136665,-0.020777999612689016,0.0009595292145386338
1738772132784036900,4.686036865234375,-0.047864159458875656,-0.011834230178594588,0.0030664383659139275
1738772132794028000,4.696028076171875,-0.04398410315513611,-0.006574117693305015,-0.009271284355409443
1738772132804019000,4.70601904296875,-0.037383681976795195,-0.00947042365670204,0.0003657280398532748
1738772132814009900,4.716009765625,-0.0520054970473051,-0.016164952859282492,-0.002996551467478275
1738772132824002000,4.726001953125,-0.041215807485580444,-0.0016872224345803259,-0.010863302787207067
1738772132833993000,4.735992919921875,-0.034599019694328305,-0.004319909025728702,0.007819843438081443
1738772132843984000,4.74598388671875,-0.05372282235920429,-0.012948328900337218,0.002442972705326974
1738772132853975000,4.75597509765625,-0.04401099116206169,-0.01995002435594797,-0.0019474077407270669
1738772132863966000,4.765966064453125,-0.05297112720906734,-0.030178572903573512,0.005999350012652576
1738772132873956900,4.775956787109375,-0.05685644420981407,-0.0203147660151124,-0.0013481266733258962
1738772132883948000,4.785947998046875,-0.04847323126792907,-0.026756781761348245,-0.0030202976692467924
1738772132893940000,4.79593994140625,-0.04189560644328594,-0.01835924803316593,-0.0006232464648783207
1738772132903931000,4.805930908203125,-0.03680792791545391,-0.0206023507848382,-0.0016821444006636737
1738772132913922000,4.815922119140625,-0.04146422928869724,-0.01426496445685625,0.0048608840346336364
1738772132923913000,4.825912841796875,-0.05163432564735412,-0.018012626552581786,0.004642017119564116
1738772132933904000,4.83590380859375,-0.042809214156866074,-0.025337854874134064,-0.0035702231695875523
1738772132943895000,4.84589501953125,-0.05237316131591797,-0.009671206925809382,0.021065438251942396
1738772132953886000,4.855885986328125,-0.04770984567999839,-0.02216477779597044,-0.004776639817282557
1738772132963878000,4.8658779296875,-0.05292845711112022,-0.012780278857052326,-0.00515369296874851
1738772132973869000,4.875869140625,-0.04422667973935604,-0.016440262669324874,-0.001373041918873787
1738772132983860000,4.88585986328125,-0.047210079464316365,-0.021112346133589744,0.008867306664399803
1738772132993851000,4.895850830078125,-0.04137538196146488,-0.013776888678967952,0.006032850423455238
1738772133003841800,4.905841796875,-0.04647358188331127,-0.026463059511780736,0.005397511661984026
1738772133013833000,4.9158330078125,-0.04693126252293586,-0.005637421365082264,0.00043557840567082164
1738772133023824000,4.925823974609375,-0.04797814122736454,-0.010713409455120563,-0.0004493877353146672
1738772133033815800,4.93581591796875,-0.04125438593029976,-0.02937865469753742,0.00004497165288776159
1738772133043807000,4.945806884765625,-0.048587797558307645,-0.02264350122362375,-0.008327244970947504
1738772133053798000,4.9557978515625,-0.044860301467776295,-0.02005932994931936,-0.0047498614082112905
1738772133063788800,4.965788818359375,-0.04228548254370689,-0.00637304216325283,-0.01558090589363128
1738772133073780000,4.975780029296875,-0.029858547168970108,-0.018958090709149836,-0.008746968220360576
1738772133083771000,4.98577099609375,-0.04764613279402256,-0.014068272840976715,0.008552139768004417
1738772133093762000,4.995761962890625,-0.05198094712793827,-0.010779460428655147,0.0015622808806598186
1738772133103754000,5.00575390625,-0.03852876035869121,-0.012975509168207645,-0.009567746551334858
1738772133113745000,5.015744873046875,-0.048854924061894414,-0.015959201154112816,0.002657528771460056
1738772133123735800,5.02573583984375,-0.060980830663442606,-0.018192367033660412,-0.016766060557588933
1738772133133726700,5.035726806640625,-0.049636429828405375,-0.01645867510885,-0.01207881605681032
1738772133143718000,5.0457177734375,-0.043508302336931225,-0.02316810961961746,-0.000001790098287165165
1738772133153709000,5.055708984375,-0.051613867381215095,-0.013970949946343897,0.005994491174444556
1738772133163700000,5.065699951171875,-0.04760112460851669,-0.012391279539465904,-0.002910882478021085
1738772133173692000,5.07569189453125,-0.030528409254550932,-0.005691197378933429,0.006763356655091047
1738772133183682800,5.085682861328125,-0.04489771086871624,-0.004788111059367656,-0.002603898888081312
1738772133193673700,5.095673828125,-0.048940848779678345,-0.011070260068774223,-0.004044233889505267
1738772133203665000,5.105664794921875,-0.04878711952269077,-0.022451193521916865,0.0016107596648856997
1738772133213656000,5.115656005859375,-0.043099137014150614,-0.01647124232947826,-0.01364577311258763
1738772133223647000,5.12564697265625,-0.043106151276826855,-0.01930178958028555,0.0025946196030825373
1738772133233638100,5.13563818359375,-0.045347792723774906,-0.01496551394164562,0.003298895414918661
1738772133243629000,5.145629150390625,-0.05149637848138809,-0.013277414724230765,-0.0013991262082010507
1738772133253620700,5.155620849609375,-0.03669745327830314,-0.027143150730431078,0.0033098552003502845
1738772133263612000,5.16561181640625,-0.04474398161172866,-0.004792787234485149,0.025625549241714177
1738772133273603000,5.17560302734375,-0.05010463186204433,-0.013707038313150404,0.0031347543617710467
1738772133283594000,5.185593994140625,-0.05220306544601917,-0.01728314323425293,-0.003952683148533105
1738772133293585200,5.195585205078125,-0.04589198260307312,-0.011212591148912905,0.0029914369009435174
1738772133303576000,5.205576171875,-0.03944762876927852,-0.015729484051465986,-0.006732705788500606
1738772133313567000,5.21556689453125,-0.04050093721449375,-0.017966157062351704,-0.0008118643721565604
1738772133323559200,5.22555908203125,-0.04617079954445362,-0.017708090648055074,0.00692296766359359
1738772133333550000,5.235550048828125,-0.043159342768788335,-0.011619710645079611,-0.0054000324126333
1738772133343541000,5.245541015625,-0.04737725272476673,-0.0027019524350762364,0.010803133565187454
1738772133353532000,5.255531982421875,-0.03477262269556522,-0.01476297710686922,-0.010834442018903791
1738772133363523000,5.265523193359375,-0.052095513418316836,-0.011857318793237209,0.0043333164965733886
1738772133373514000,5.275513916015625,-0.042084991535544396,-0.006722293992340565,0.014759469975531101
1738772133383505000,5.2855048828125,-0.03385375428497791,-0.015693828216195107,-0.00046725218556821344
1738772133393497000,5.2954970703125,-0.04131868333816528,-0.0197767136156559,0.005471380615793168
1738772133403488000,5.305488037109375,-0.03545534426271915,-0.027039105834066865,-0.008856164215877652
1738772133413479000,5.31547900390625,-0.04805529811680317,-0.01543137788772583,-0.0010825710723176597
1738772133423470000,5.325469970703125,-0.049720016458630556,-0.01642564962208271,0.008036445330828429
1738772133433461000,5.3354609375,-0.033984687188267707,-0.00213145907074213,0.0007573577059432864
1738772133443452000,5.345451904296875,-0.04624386478066444,-0.012345979093015193,0.0033922362541779875
1738772133453443000,5.355443115234375,-0.03951309522092342,-0.009798924958705902,0.004928177117183804
1738772133463434000,5.36543408203125,-0.054936874324083326,-0.0036257892817258834,-0.013249248075671493
1738772133473426000,5.375426025390625,-0.06796762081086635,-0.014511340433359145,-0.007436798937246203
1738772133483417000,5.3854169921875,-0.032359131813049315,-0.0005845218896865845,-0.014283267298527061
1738772133493408000,5.395407958984375,-0.029929274317622184,-0.01834405046403408,0.0016010785210877655
1738772133503399000,5.40539892578125,-0.04742284543216228,-0.015834113469719885,-0.003692607440240681
1738772133513390000,5.41539013671875,-0.04341127170324325,-0.00991495255380869,-0.001775814033485949
1738772133523381000,5.425381103515625,-0.04444879805743694,-0.013536065660417079,0.0009376461762934923
1738772133533372000,5.435371826171875,-0.03952186304926872,-0.03251403011381626,0.0011354337707161902
1738772133543364000,5.445364013671875,-0.04609247361123561,-0.024920213983953,0.0035327041707932947
1738772133553355000,5.45535498046875,-0.039947394984960555,-0.02000876880586147,0.004132277499139309
1738772133563346000,5.465345947265625,-0.05322071805596351,-0.017147241894900796,-0.014816022468358277
1738772133573336800,5.4753369140625,-0.04841068742573261,-0.00732289023399353,0.004097644577175379
1738772133583328000,5.485327880859375,-0.037333997616171836,-0.02019961520284414,-0.007142601763643324
1738772133593319000,5.49531884765625,-0.04854571198225021,-0.012903028453886509,-0.002901895453967154
1738772133603309800,5.505309814453125,-0.03673018650412559,-0.010647358481585979,-0.0035918139468878504
1738772133613302000,5.515302001953125,-0.03662789517343044,-0.022481588660180567,-0.0009463774720206856
1738772133623293000,5.52529296875,-0.045156069543957705,-0.010953355690836906,-0.0010494725203141569
1738772133633283800,5.535283935546875,-0.051149172478914255,-0.014078209713101386,-0.008490436176024376
1738772133643275000,5.54527490234375,-0.03947860842943191,-0.010492167919874191,0.004326156103424727
1738772133653266000,5.555265869140625,-0.043508886858820914,-0.014701894569396972,-0.006686309363506734
1738772133663256800,5.5652568359375,-0.040277649852633476,-0.01842763709425926,-0.01695654162839055
1738772133673248000,5.575248046875,-0.05540975253283977,-0.014638181683421134,0.002678206233307719
1738772133683240000,5.585239990234375,-0.049420741251111025,-0.02079056683331728,0.0030478067306801675
1738772133693230800,5.59523095703125,-0.03955225818753242,-0.016573241399228573,-0.020948168547824025
1738772133703222000,5.605221923828125,-0.0358060573965311,-0.022280513130128382,-0.0062201166238635775
1738772133713213000,5.615212890625,-0.042832595032453534,-0.013928572109341621,0.009877616218104958
1738772133723203800,5.625203857421875,-0.04822714755237102,-0.027366730353236196,-0.0020080884194001556
1738772133733195000,5.635195068359375,-0.04913783265650272,-0.030470833848416805,0.004239866059459745
1738772133743186000,5.64518603515625,-0.051990299478173255,-0.013985562993586062,0.0021651056120172143
1738772133753176800,5.6551767578125,-0.03896890534162521,-0.004565700480341911,-0.003229045049101114
1738772133763169000,5.6651689453125,-0.05288637153506279,-0.012047872929275035,-0.008597549812309443
1738772133773160000,5.675159912109375,-0.05748831237256526,-0.017083821269869803,-0.0077346859052777285
1738772133783150800,5.68515087890625,-0.06048632514476776,-0.018868074338138103,-0.005615063402801752
1738772133793141800,5.695141845703125,-0.04330255063176155,-0.016095979276299476,0.0008685995280742645
1738772133803133000,5.7051328125,-0.04089432044625282,-0.015990180814266203,0.008397351065091789
1738772133813123800,5.715123779296875,-0.04673895482122898,-0.007598492304980754,-0.003145860277675092
1738772133823114800,5.72511474609375,-0.057634442844986915,-0.015018120911717414,0.003395414591953158
1738772133833107000,5.73510693359375,-0.049241877552866936,-0.018638649496436118,0.00121664578076452
1738772133843097900,5.745097900390625,-0.03201777102947235,-0.027658699037134644,-0.006279043736867607
1738772133853088800,5.7550888671875,-0.0504196891605854,-0.02408873159587383,-0.010957118550501764
1738772133863080000,5.765079833984375,-0.048175125104188914,-0.009872282455861569,0.00011588146463036536
1738772133873070800,5.77507080078125,-0.04997779061198234,-0.017927286356687545,0.005585362384282052
1738772133883061800,5.785061767578125,-0.04847030865848064,-0.010929098032414913,0.007875263419747352
1738772133893053000,5.795052978515625,-0.056843000206351274,-0.021580840428173542,0.005107917598262429
1738772133903044000,5.805044189453125,-0.03888473418951034,-0.01545095937103033,0.00016984014157205818
1738772133913035800,5.815035888671875,-0.04144610911011696,-0.01315349608361721,-0.005398169249109923
1738772133923027000,5.82502685546875,-0.03907411928176879,-0.018329437416791914,0.016905286365188656
1738772133933017900,5.835017822265625,-0.035951603347063064,-0.013042144663631915,0.00796867732424289
1738772133943009000,5.845009033203125,-0.0488163456171751,-0.005425239919126033,0.010846022858843207
1738772133953000200,5.855000244140625,-0.0452303038239479,-0.01797930880486965,-0.001140731000341475
1738772133962991000,5.8649912109375,-0.04252513651847839,-0.0034989480316638946,-0.007084368770383298
1738772133972982000,5.87498193359375,-0.03353226724565029,-0.01056844802647829,0.0012528496053069828
1738772133982974000,5.884973876953125,-0.061518006280064576,-0.021177520324289798,-0.0026942440526559947
1738772133992964900,5.89496484375,-0.04820668928623199,-0.02279606143683195,-0.0029498993141576645
1738772134002956000,5.9049560546875,-0.037434535381197925,-0.006317512583732605,-0.005485263010673224
1738772134012947000,5.914947021484375,-0.039516017830371855,-0.01922755530029535,0.005331131894886493
1738772134022937900,5.924937744140625,-0.04473755187094211,-0.023470307436585423,0.0021223259162157773
1738772134032929000,5.934928955078125,-0.035005262407660484,-0.02378390343040228,-0.01704253941141069
1738772134042920000,5.944919921875,-0.04878244334757328,-0.018058803781867028,0.0033593203652650117
1738772134052910800,5.954910888671875,-0.035759295645356175,-0.023753800553083418,-0.0019170856676995753
1738772134062903000,5.964903076171875,-0.047884033203124995,-0.008933540301024914,-0.0026256723284721374
1738772134072894000,5.97489404296875,-0.051314007651805875,-0.011206453669071198,-0.008351977553404867
1738772134082884900,5.984884765625,-0.03483399749398231,-0.017244857050478457,-0.0007497589213773608
1738772134092875800,5.994875732421875,-0.0346995574593544,-0.011214344714581966,0.002974631896615028
1738772134102867000,6.004866943359375,-0.05206570280194282,-0.019425708220899104,0.00974551427103579
1738772134112857900,6.01485791015625,-0.06297580387294292,-0.016916940270364285,-0.0056780456364154816
1738772134122848800,6.024848876953125,-0.05148059639036655,-0.013101765896379947,-0.002383753331378102
1738772134132841000,6.034841064453125,-0.051067339414358134,-0.015843173559010028,-0.005999788404069841
1738772134142831900,6.044831787109375,-0.030840543943643568,-0.010835866791009903,-0.0011284195080399513
1738772134152822800,6.05482275390625,-0.043270401927828786,-0.011858487837016582,0.00399038481041789
1738772134162814000,6.06481396484375,-0.061385319811105725,-0.013778934505581856,0.0014424173606559633
1738772134172804900,6.074804931640625,-0.030125089150667188,-0.013880933575332164,-0.001327339613623917
1738772134182795800,6.084795654296875,-0.024157705178856848,-0.01683306137919426,-0.004976984694972634
1738772134192787000,6.094786865234375,-0.05513736533224582,-0.018474106584489343,-0.0014595876911655068
1738772134202777900,6.10477783203125,-0.04695815052986145,-0.02505786888897419,0.0016046952502802012
1738772134212769800,6.114769775390625,-0.05268880313634872,-0.012500000610947607,0.0023627470759674907
1738772134222761000,6.124760986328125,-0.04668459428548813,-0.016285948890447616,-0.0015962927481159568
1738772134232751900,6.134751953125,-0.050418520116806025,-0.0122737906396389,0.003869790638051927
1738772134242742800,6.14474267578125,-0.04084346704185009,-0.024536183102428912,-0.006627893707156181
1738772134252733700,6.154733642578125,-0.043513563033938406,-0.019202128598093986,-0.01588471114579588
1738772134262724900,6.164724853515625,-0.03348725906014442,-0.012765081287920475,-0.007694828818924725
1738772134272715800,6.1747158203125,-0.05399930121302604,-0.011095394510030747,0.00151314450930804
1738772134282708000,6.1847080078125,-0.03348725906014442,0.00039952071160078047,-0.0132013538133353
1738772134292699000,6.194698974609375,-0.03706511754691601,-0.015327917513251304,-0.014323233982734381
1738772134302689800,6.204689697265625,-0.03946925607919693,-0.015298983679711818,-0.0026543504336848855
1738772134312680700,6.2146806640625,-0.042004327514767646,-0.01263590195029974,-0.0030417788486927747
1738772134322671900,6.224671875,-0.041867549392580986,-0.016181027211248873,0.0028336159907281395
1738772134332662800,6.234662841796875,-0.038430560681223865,-0.0067293082550168035,0.0028667145427316424
1738772134342653700,6.24465380859375,-0.052042321926355356,-0.01572510013729334,-0.0003983516678214073
1738772134352644900,6.254644775390625,-0.06732230864465236,-0.011788929732143879,-0.009363456150889396
1738772134362636800,6.26463671875,-0.05087327814698219,-0.014585282452404499,-0.005475289605930448
1738772134372627700,6.274627685546875,-0.03771627493202686,-0.001975099465250969,0.005806128995493054
1738772134382619000,6.284618896484375,-0.04102233074009418,-0.01091477724611759,0.0016114537846297025
1738772134392609800,6.29460986328125,-0.054340077474713325,-0.008678104235231876,-0.008481120358407496
1738772134402600700,6.3046005859375,-0.0583715249478817,-0.020220950251817704,-0.002669876796379685
1738772134412591900,6.314591796875,-0.04686930320262909,0.0051315176695585244,-0.0026125571185722945
1738772134422582800,6.324582763671875,-0.046258477827906604,-0.007617489266395569,-0.012384046081081032
1738772134432574700,6.33457470703125,-0.05041618202924728,-0.02897299650609493,-0.0015863193433731794
1738772134442566000,6.34456591796875,-0.051719665843248365,-0.01653320164978504,0.002842603014782071
1738772134452556800,6.354556884765625,-0.05173720149993896,-0.011830430786311626,-0.011825608480721712
1738772134462547700,6.364547607421875,-0.03062076371312141,-0.01006955859363079,0.0032896526625379916
1738772134472538600,6.37453857421875,-0.052609892681241034,-0.01893178722411394,0.005507584440335631
1738772134482529800,6.38452978515625,-0.04886953710913658,-0.012648761431872844,0.003463547924719751
1738772134492520700,6.394520751953125,-0.05948737723529338,-0.01685030477494001,-0.00887059460002929
1738772134502511600,6.40451171875,-0.04507891265451908,-0.012773849116265773,-0.0049193727562204
1738772134512503800,6.41450390625,-0.03954758201241493,-0.007233166123926639,-0.014228614501841366
1738772134522494700,6.42449462890625,-0.04760521626174449,-0.005654372499883174,-0.010168013999424875
1738772134532485600,6.434485595703125,-0.03455518055260181,-0.0075283496782183644,-0.006355725702270865
1738772134542476800,6.444476806640625,-0.046993806365132326,-0.0252773568585515,0.0061416445601731534
1738772134552467700,6.4544677734375,-0.053444005417823785,-0.023883856673538685,0.0010246668726205826
1738772134562459000,6.464458984375,-0.04222644583284855,-0.021613281393051145,-0.005061046249233186
1738772134572450000,6.474449951171875,-0.05167816478908062,-0.01315524964928627,0.0020274141743779183
1738772134582441700,6.484441650390625,-0.046292964619398115,-0.005663432589173316,0.012129304135031998
1738772134592432600,6.4944326171875,-0.049157706400752066,-0.0156309921130538,0.00018708353731781242
1738772134602423800,6.504423828125,-0.0419669181138277,-0.01684738216549158,-0.0005968333819881081
1738772134612414700,6.514414794921875,-0.04063245463967323,-0.015316227075457572,-0.003901902809366584
1738772134622406000,6.524406005859375,-0.045313890454173084,-0.011905249588191509,-0.00538633268084377
1738772134632397000,6.53439697265625,-0.034247722038626666,-0.01832037732750177,-0.014515285956114529
1738772134642388000,6.544387939453125,-0.050395139241218564,-0.021946751131117343,-0.0003219254307448864
1738772134652379000,6.55437890625,-0.05669920782148838,-0.012004326048493384,0.003153751323185861
1738772134662370800,6.564370849609375,-0.036166122880578036,-0.016872516606748104,-0.0020611703135073184
1738772134672361700,6.57436181640625,-0.0443938529998064,-0.009546411502361298,-0.005953172783367335
1738772134682353000,6.584352783203125,-0.06145780052542686,-0.013566460798680782,-0.002857435257732868
1738772134692343800,6.59434375,-0.04065525099337101,-0.0072714523077011105,-0.005746178969182073
1738772134702335000,6.6043349609375,-0.02688040814101696,-0.010427870512008667,-0.00553147677257657
1738772134712326000,6.614325927734375,-0.039134325036406514,-0.010931436119973659,0.004279248221777379
1738772134722316800,6.62431689453125,-0.05319675265848636,-0.0063046531021595,-0.0043689723318442696
1738772134732308000,6.634307861328125,-0.05993921265602112,-0.006721417209506034,-0.01314202484153211
1738772134742300000,6.6442998046875,-0.038832711741328234,-0.013007657872140407,-0.010948642983101308
1738772134752290800,6.654290771484375,-0.04629004200994968,-0.0156309921130538,-0.0017116992887109517
1738772134762282000,6.664281982421875,-0.04915887544453144,-0.00838642781227827,0.006629026218317449
1738772134772273000,6.67427294921875,-0.06385843192636967,0.0032499417066574094,-0.0025158552784472705
1738772134782263800,6.684263916015625,-0.045184711116552354,-0.014601649065315723,-0.017226481143571434
1738772134792255000,6.6942548828125,-0.03992635219693184,-0.024090777422487733,0.010203742899931968
1738772134802246000,6.704245849609375,-0.056985623547434805,-0.016921616445481777,0.009149557671882212
1738772134812237800,6.71423779296875,-0.0384685546040535,-0.014125555986166,-0.0038170010048896074
1738772134822229000,6.72422900390625,-0.0456616809785366,-0.007357961547374725,-0.0008709010830149054
1738772134832220000,6.734219970703125,-0.04984919579625129,-0.00033989947885274885,-0.010969430042803287
1738772134842210800,6.7442109375,-0.04131692977249622,-0.017717150737345217,0.0008231164185330272
1738772134852202000,6.754201904296875,-0.0536047489374876,-0.0166220489770174,-0.006666399086639285
1738772134862193000,6.76419287109375,-0.050935821989178655,-0.011906418631970882,-0.002704765446670353
1738772134872183800,6.774183837890625,-0.024613632252812385,-0.016354630212485788,0.0076001362727954975
1738772134882174700,6.7841748046875,-0.03913198694884777,-0.02009820065498352,0.0050389805478975175
1738772134892167000,6.7941669921875,-0.04391863670349121,-0.01488017374575138,-0.0015384250810369848
1738772134902157800,6.80415771484375,-0.055907765182852745,-0.016922200967371463,0.0020192674005404115
1738772134912148700,6.814148681640625,-0.039596097329258916,-0.006447860965132713,-0.010884893564507364
1738772134922140000,6.824139892578125,-0.04256079235374927,-0.025973814690113065,-0.01153835250455886
1738772134932130800,6.834130859375,-0.04596855497062206,-0.01649316190034151,-0.006573131312616169
1738772134942121700,6.844121826171875,-0.04284545451402664,-0.008505085755884647,-0.007359861243516206
1738772134952113000,6.85411279296875,-0.036304070046544075,-0.010021920059621334,0.0012258520005270837
1738772134962103800,6.864103759765625,-0.04916705875098705,-0.0057023032948374745,-0.0020475801795721052
1738772134972095700,6.874095703125,-0.04270809186995029,-0.01266162091344595,0.003280008051358163
1738772134982087000,6.8840869140625,-0.049154199269413945,-0.011281856992840766,-0.009155512488633393
1738772134992078300,6.894078369140625,-0.04875321725308895,-0.012491525043547154,-0.006629501142352819
1738772135002069200,6.9040693359375,-0.03827800046801567,-0.02252279745340347,-0.0073408277494832865
1738772135012060200,6.91406005859375,-0.040839959910511967,-0.01934650550484657,-0.012563165507651864
1738772135022051300,6.92405126953125,-0.05056231250166893,-0.014122633376717566,-0.008052994606830179
1738772135032042200,6.934042236328125,-0.05562310302257537,-0.014183715914189815,-0.0026631547946482895
1738772135042034200,6.9440341796875,-0.05054828397631645,-0.01473813492655754,-0.007821122079715132
1738772135052025300,6.954025390625,-0.03962883055508137,-0.012038520579040049,-0.008078019450232387
1738772135062016300,6.964016357421875,-0.04966331783533096,-0.016512451122701166,-0.002297536352649331
1738772135072007200,6.974007080078125,-0.05672609582841396,-0.009695172323286533,-0.005290324960462748
1738772135081998300,6.983998291015625,-0.03580781096220016,-0.011557751324772833,-0.005397986586019397
1738772135091989200,6.9939892578125,-0.04615326388776302,-0.005669862329959869,0.005270232020504772
1738772135101980200,7.003980224609375,-0.04600304176211357,-0.008962766395509242,-0.007165032791160046
1738772135111971000,7.01397119140625,-0.045237318086624144,-0.011099193902313708,-0.01156852844711393
1738772135121963300,7.02396337890625,-0.0401502240806818,-0.01184504383355379,-0.012781813227012754
1738772135131954200,7.0339541015625,-0.03864391117095947,-0.00798603031784296,0.00117046855147928
1738772135141945000,7.043945068359375,-0.04137538196146488,-0.0137225281432271,-0.0011534808840602635
1738772135151936300,7.053936279296875,-0.03823766845762729,-0.017594401140511036,-0.001495572319999337
1738772135161927200,7.06392724609375,-0.04046937303245068,-0.009553425765037536,-0.011344108574092387
1738772135171918000,7.07391796875,-0.04358078305125236,-0.0024608371555805207,0.00006681815851479768
1738772135181909200,7.0839091796875,-0.05631517693996429,-0.016475626243650912,0.00252071411665529
1738772135191901200,7.093901123046875,-0.051525604575872415,-0.008245558036863804,-0.004398198426328599
1738772135201892000,7.10389208984375,-0.04271802874207496,-0.01627835010588169,-0.008926197244785725
1738772135211883300,7.11388330078125,-0.04123977288305759,-0.02804886739850044,-0.0015967311395332217
1738772135221874200,7.123874267578125,-0.03663666300177574,-0.030031857909262178,-0.001856952978298068
1738772135231865000,7.133864990234375,-0.03993862715661525,-0.02446224108338356,-0.012845708776079117
1738772135241856300,7.143856201171875,-0.02558276954591274,-0.012471943560242652,-0.006343998731859028
1738772135251847200,7.15384716796875,-0.048775429084897036,-0.018308394628763196,-0.001429338683374226
1738772135261838000,7.163838134765625,-0.04788929390013218,-0.010034487280249594,-0.0015513210952281952
1738772135271830300,7.173830322265625,-0.03755962306559086,-0.006604805092513561,0.0032336116263642907
1738772135281821200,7.1838212890625,-0.04298281715810299,-0.009506079491972923,-0.011938859596848487
1738772135291812000,7.19381201171875,-0.04420037625432014,-0.022625965566933155,-0.002563238084129989
1738772135301803300,7.20380322265625,-0.05215922630429268,-0.00039396775364875793,-0.00443911495860666
1738772135311794200,7.213794189453125,-0.05186696535944938,0.00023205519020557403,-0.005109488500840961
1738772135321785000,7.22378515625,-0.04109773406386375,-0.01592149949222803,0.003464461240172386
1738772135331776300,7.2337763671875,-0.048259296256303784,-0.014036124137043951,-0.009091726537421345
1738772135341767400,7.243767333984375,-0.056490533506870264,-0.005504442635178566,-0.01415675484202802
1738772135351759000,7.253759033203125,-0.02699848156273365,-0.004178162467479705,0.0012390768082812427
1738772135361750000,7.26375,-0.04136310700178146,-0.019149813888967037,-0.004253565791249275
1738772135371741200,7.2737412109375,-0.04151742078065872,-0.0058364510685205455,-0.006619893063791096
1738772135381732400,7.283732421875,-0.0379150123745203,-0.011993804654479027,-0.007740311928465962
1738772135391723300,7.29372314453125,-0.043724575436115264,-0.015499182426929473,-0.0006614230507984757
1738772135401714400,7.30371435546875,-0.04717617719471454,-0.014428046064078806,-0.004367985951155424
1738772135411705300,7.313705322265625,-0.053908115798234936,-0.01803250029683113,-0.0006968231577426195
1738772135421697000,7.323697021484375,-0.04833996027708053,-0.021266075390577316,-0.008139065455086528
1738772135431688200,7.333688232421875,-0.0400672219723463,-0.024370471146702766,-0.0010316080700606108
1738772135441679400,7.343679443359375,-0.04184592208266258,-0.015739713184535504,0.0064535600535571575
1738772135451670300,7.353670166015625,-0.029266426494717595,-0.014131985726952552,-0.01020545993298292
1738772135461661400,7.363661376953125,-0.029672084686160085,-0.018742402131855487,-0.005991605097614228
1738772135471652400,7.37365234375,-0.05692249518334865,-0.004480944806337356,0.008525653619877994
1738772135481643300,7.383643310546875,-0.04467500802874565,-0.008897007682919502,-0.0015991057597100735
1738772135491634200,7.39363427734375,-0.02733575069308281,-0.022760990123450755,-0.007151515722461045
1738772135501626400,7.40362646484375,-0.03644727790951729,-0.02536152801066637,0.002541756904684007
1738772135511617300,7.4136171875,-0.05083996039927006,-0.007635024923086166,0.0012705313924700021
1738772135521608400,7.4236083984375,-0.04955518128573894,0.00033580782562494274,-0.0011306845303624869
1738772135531599400,7.433599365234375,-0.030233225700259207,-0.014385375966131686,-0.014271613393351435
1738772135541590300,7.44359033203125,-0.04488309782147407,-0.011459551647305487,0.002901457062549889
1738772135551581200,7.453581298828125,-0.05011573777794838,-0.004442950883507728,0.0089213018739596
1738772135561572400,7.463572265625,-0.039219665232300756,-0.01631926663815975,-0.0047239597819745535
1738772135571564300,7.473564208984375,-0.04956687172353268,-0.02179009926468134,-0.008210377125628292
1738772135581555200,7.48355517578125,-0.0488204372704029,-0.017013678643107412,-0.005932531854137778
1738772135591546400,7.49354638671875,-0.047051089510321616,-0.009468085569143294,-0.011378704963438213
1738772135601537300,7.503537353515625,-0.05375964723825454,-0.00893061769157648,-0.012949278748407959
1738772135611528200,7.513528076171875,-0.041620881155133245,-0.018713176037371156,-0.002577705000899732
1738772135621519400,7.523519287109375,-0.051076107242703436,-0.016252046620845794,-0.0045635450558736915
1738772135631510300,7.53351025390625,-0.034630583876371385,-0.008129530441761016,-0.00517773143146187
1738772135641501200,7.543501220703125,-0.028809914898872375,-0.010328209529817103,0.003168254772573709
1738772135651493400,7.553493408203125,-0.04344575849473476,-0.01491027662307024,-0.0035871743043884635
1738772135661484300,7.563484375,-0.057661915373802185,-0.00997545056939125,0.0017057079393416642
1738772135671475200,7.57347509765625,-0.05182137265205383,-0.024648411305248735,0.000171155315823853
1738772135681466400,7.58346630859375,-0.03295709770619869,-0.007622457702457904,-0.008021686153113841
1738772135691457300,7.593457275390625,-0.04599076680243015,-0.01716097815930843,-0.00378481576833874
1738772135701448200,7.6034482421875,-0.043436990666389466,-0.019447043269872663,-0.004102138089202344
1738772135711439000,7.613439208984375,-0.04942015672922134,-0.005978782148659229,-0.006561075548641384
1738772135721431300,7.623431396484375,-0.0542494765818119,-0.007801321400701999,-0.005902465509437025
1738772135731422200,7.633422119140625,-0.03888064253628254,-0.014561024793982505,-0.012649565149471163
1738772135741413400,7.643413330078125,-0.037515783923864364,-0.012517536267638206,-0.00456339892540127
1738772135751404300,7.653404296875,-0.045453006663918494,-0.019983634364604947,-0.006181830440089106
1738772135761395200,7.663395263671875,-0.04349544285535812,-0.018972411495447157,0.0001251972822472453
1738772135771386000,7.67338623046875,-0.04228606706559658,-0.010927344466745852,-0.011977474574185907
1738772135781377300,7.683377197265625,-0.03444762852489948,-0.011231295849382877,-0.013995390267856418
1738772135791368200,7.6933681640625,-0.038328853872418404,-0.00767798728197813,-0.007738046906143426
1738772135801360100,7.703360107421875,-0.05420856004953384,-0.009426584514975547,0.0018826354088261723
1738772135811351300,7.713351318359375,-0.019070611172914503,-0.0012611059769988059,-0.009289587197080253
1738772135821342200,7.72334228515625,-0.041372459352016444,-0.023397534461319446,-0.008188274891674518
1738772135831333000,7.7333330078125,-0.06263619665503502,-0.020077450127899646,0.004078647615760564
1738772135841324300,7.74332421875,-0.0490080687969923,-0.007678279542922974,-0.012772351278923452
1738772135851315200,7.753315185546875,-0.04588263025283813,-0.012408815196156501,-0.008244571656174957
1738772135861306000,7.76330615234375,-0.03193243083357811,-0.01864420245438814,-0.002492401337623596
1738772135871298300,7.77329833984375,-0.05001052383780479,-0.01395253750681877,0.002317300499044359
1738772135881289200,7.783289306640625,-0.046864627027511596,-0.008713760070502757,0.011031608558818698
1738772135891280100,7.793280029296875,-0.05090133519768714,-0.005421148265898228,0.005093852540291845
1738772135901271300,7.803271240234375,-0.03250467776358128,-0.016777531799674034,-0.0008131795464083552
1738772135911262200,7.81326220703125,-0.041780455631017684,-0.01080021095573902,0.004017382415197789
1738772135921253000,7.823253173828125,-0.058951955184340474,-0.019878712685406207,-0.008431399465166032
1738772135931244000,7.833244140625,-0.044756256571412086,-0.01726911470890045,-0.004041457410529256
1738772135941235200,7.843235107421875,-0.05316869560778141,-0.004460194279253483,-0.009712890643067658
1738772135951227100,7.85322705078125,-0.032032384076714514,-0.008469137659668922,-0.007477094415016472
1738772135961218300,7.86321826171875,-0.041889176702499385,-0.019598142178356648,-0.0097003599550575
1738772135971209200,7.873209228515625,-0.04813537761569023,-0.012814181126654148,-0.005592011320777237
1738772135981200100,7.8832001953125,-0.05318973839581012,-0.007216214989125728,-0.008329473460651934
1738772135991191000,7.89319091796875,-0.047339843323826784,-0.006955225965380668,-0.00011832915004342794
1738772136001182200,7.90318212890625,-0.0413701212644577,-0.019485621714591977,-0.0015710487090051172
1738772136011173400,7.91317333984375,-0.039996494823694224,-0.0246522106975317,-0.0021213760681450364
1738772136021165000,7.9231650390625,-0.042969957676529884,-0.017377835780382156,-0.007326726158894598
1738772136031156200,7.93315625,-0.045806642407178876,-0.00781564218699932,-0.007357230895012616
1738772136044894200,7.946894287109375,-0.04833353053629398,-0.015336685341596603,-0.00579867634139955
1738772136054885000,7.956885009765625,-0.045319735673069954,-0.01344546476751566,-0.006289820859208703
1738772136064876300,7.966876220703125,-0.02675824306607246,-0.008222761683166026,-0.005274798597767949
1738772136074867200,7.9768671875,-0.030498598638176916,-0.004776128360629081,-0.012975911027006804
1738772136084858000,7.986858154296875,-0.045292847666144366,-0.011713234147429466,-0.000724478349648416
1738772136094849000,7.99684912109375,-0.04709434413015842,-0.013187982875108717,0.005053739725612104
1738772136104841200,8.00684130859375,-0.02957037787735462,-0.002901274399459362,-0.009514664657227695
1738772136114832100,8.01683203125,-0.04272562752664089,-0.013112871812283992,0.010075623008236289
1738772136124823000,8.026822998046875,-0.039411972934007646,-0.023811960481107234,0.013520758493430911
1738772136134814200,8.036814208984374,-0.02622106744945049,-0.01834054333269596,-0.005166406319849192
1738772136144805000,8.04680517578125,-0.0480278255879879,-0.018138883280754088,-0.016693068386614322
1738772136154796000,8.056796142578126,-0.05280044681727886,-0.02117839710712433,-0.0026026567790657282
1738772136164787200,8.066787109375,-0.046676410979032516,-0.02056874077618122,-0.0018030308339744806
1738772136174778000,8.076778076171875,-0.04694762913584709,-0.027832594299316404,-0.0031190818686038253
1738772136184770000,8.08677001953125,-0.042726212048530575,-0.01997749688476324,-0.0008520137194544076
1738772136194761200,8.09676123046875,-0.03598316752910614,-0.013556523926556109,0.003959514748118818
1738772136204752100,8.106752197265624,-0.038543957927823065,-0.015462065286934374,-0.013766367284953594
1738772136214743000,8.116742919921874,-0.04589490521252155,-0.02124853973388672,-0.013736958527378737
1738772136224734200,8.126734130859376,-0.042291327762603755,-0.016343232035636902,-0.014355601882375776
1738772136234725000,8.13672509765625,-0.032572482302784915,-0.01782294919937849,-0.012073518827185034
1738772136244716300,8.14671630859375,-0.04799859949350357,-0.005820961238443851,0.006107523094862699
1738772136254707200,8.156707275390625,-0.05205693497359752,-0.009511632449924945,0.010297704793699085
1738772136264699100,8.16669921875,-0.04085632652342319,-0.012891922537982463,-0.015587299101799726
1738772136274690000,8.17668994140625,-0.04355681765377521,-0.016609774017333982,-0.010079824259318412
1738772136284681000,8.186680908203124,-0.05792027404904365,-0.007945406046509743,-0.0004088730618357658
1738772136294672100,8.196672119140626,-0.04325929601192474,-0.005245207177102565,-0.013554806893505154
1738772136304663300,8.206663330078126,-0.04670797516107559,-0.021378888115286827,-0.01959722886290401
1738772136314654200,8.216654296875,-0.045801381710171694,-0.004201543343067169,-0.0009893032982945442
1738772136324645400,8.226645263671875,-0.04880640874505043,-0.004331891724467277,-0.0009832388836890458
1738772136334637000,8.236636962890625,-0.04731178627312183,-0.008370645721256733,-0.0016886106740683316
1738772136344628000,8.2466279296875,-0.028611761978268622,-0.0037082068681716916,-0.009143639387749135
1738772136354619400,8.256619384765624,-0.04086158722043037,-0.01303980657607317,-0.00512669536396861
1738772136364610300,8.2666103515625,-0.05239946480095386,-0.014804185900092123,-0.005600596486032009
1738772136374601200,8.276601318359376,-0.04819909050166606,-0.017674188378453255,0.004100457588769495
1738772136384592400,8.28659228515625,-0.02724281171262264,-0.008259878823161124,-0.01167410771343857
1738772136394583300,8.296583251953125,-0.036787469649314876,-0.01344546476751566,0.005461589874140918
1738772136404574200,8.30657421875,-0.04856967737972736,-0.008624035960435867,0.008977123714424669
1738772136414565000,8.316565185546875,-0.04195581219792366,-0.014546996268630027,0.0003355886299163103
1738772136424557300,8.326557373046874,-0.042240474358201024,-0.006347030939161777,-0.005603299899771809
1738772136434548200,8.33654833984375,-0.03536591241359711,-0.008717267201840876,0.006672719229571521
1738772136444539400,8.346539306640626,-0.039428339546918864,-0.02377718142867088,0.002725881299935281
1738772136454530300,8.3565302734375,-0.035823008531332017,-0.01859013417959213,-0.003745068279840052
1738772136464521200,8.366521240234375,-0.05005436297953129,-0.018408055610954762,-0.003940956178121268
1738772136474512100,8.37651220703125,-0.04352466894984245,-0.006727554689347744,0.008875818764418363
1738772136484503300,8.38650341796875,-0.03409925347864628,-0.01450374164879322,-0.0017634294759482144
1738772136494494200,8.396494140625,-0.05009411046802997,-0.01934182932972908,0.0002193053064867854
1738772136504486100,8.406486083984374,-0.055775663235783576,-0.01307633919417858,-0.007039397117495536
1738772136514477300,8.416477294921876,-0.045779754400253295,-0.02211333986967802,-0.007411554898135364
1738772136524468200,8.42646826171875,-0.05297814147174358,-0.011430617813766001,-0.003521086798235774
1738772136534459100,8.436459228515625,-0.053875967094302174,-0.005605272661149501,0.000618131898343563
1738772136544450300,8.4464501953125,-0.0456225180119276,-0.012706336838006973,0.0017138912457972764
1738772136554441200,8.456441162109375,-0.051285366079211234,-0.026978607818484306,-0.006317366453260183
1738772136564432100,8.46643212890625,-0.05726677857637405,-0.01322100836187601,0.007423501064255833
1738772136574424300,8.47642431640625,-0.053960138246417044,-0.004736380872130394,0.0008776230847463011
1738772136584415200,8.486415283203126,-0.04722644607722759,-0.0189531222730875,-0.004203698767535388
1738772136594406100,8.49640625,-0.04287701869606971,-0.017487141373753547,-0.00357533773612231
1738772136604397300,8.506397216796875,-0.07233049219548701,-0.01487754339724779,-0.00582487022858113
1738772136614388200,8.51638818359375,-0.04301379681825637,-0.0054191024392843245,-0.010279475017264485
1738772136624379100,8.526379150390625,-0.04316869511902332,-0.008090951997041702,-0.010061302221938967
1738772136634370000,8.5363701171875,-0.04825462008118629,-0.01362842011898756,0.006068798519670963
1738772136644361200,8.546361328125,-0.047511108237504956,-0.02126490634679794,0.010737192189507186
1738772136654353200,8.556353271484374,-0.05080898073911667,-0.007182020458579063,-0.0030354587057605385
1738772136664344300,8.56634423828125,-0.046638417056202884,-0.004425999748706817,-0.00732025988548994
1738772136674335200,8.576335205078125,-0.05038812497854232,-0.0069333063945174215,-0.00892831613663584
1738772136684326100,8.586326171875,-0.034819968968629836,-0.015488076511025428,-0.00689191493820399
1738772136694317000,8.596317138671875,-0.05726502501070499,-0.010698504146933555,-0.002133906756155193
1738772136704308200,8.60630810546875,-0.04932137252986431,-0.013423545196652412,0.0030557343088090418
1738772136714299100,8.616299072265624,-0.052609892681241034,-0.007592647086083888,-0.0022325448250398038
1738772136724291000,8.626291015625,-0.037951837253570556,-0.012514613658189773,-0.002962539600022137
1738772136734282200,8.6362822265625,-0.03408464043140411,-0.013038053010404109,0.007576901527680456
1738772136744273200,8.646273193359375,-0.03137187434136867,-0.02775777549743652,-0.006637574850954115
1738772136754264000,8.65626416015625,-0.03867138369977474,-0.02470657123327255,0.0017443594492971895
1738772136764255200,8.666255126953125,-0.041671734559535975,-0.011210837583243847,0.005421294396370649
1738772136774246100,8.67624609375,-0.03837152397036552,-0.026343817046284673,-0.00554214429706335
1738772136784237000,8.686237060546874,-0.06436755049228668,-0.005812485671043395,-0.0048887218896299595
1738772136794228200,8.696228271484374,-0.056601592665910715,-0.014901216533780097,0.0026235534366220235
1738772136804220200,8.70622021484375,-0.03265782249867916,-0.01235270109474659,-0.012596483255364
1738772136814211000,8.716211181640626,-0.03998129725456238,-0.012522504703700543,-0.006048267188295721
1738772136824202200,8.7262021484375,-0.05257949754297733,-0.001679331389069557,-0.0013006708024069667
1738772136834193200,8.736193115234375,-0.06052724167704582,-0.015403613097965717,-0.0026024375833570957
1738772136844184000,8.74618408203125,-0.037947745600342746,-0.0020306290447711945,0.0010137801524251699
1738772136854175000,8.756175048828124,-0.038085108244419096,-0.006102408528327941,-0.005147044032253325
1738772136864166100,8.766166259765624,-0.05257482136785984,-0.012912673065066337,0.009435425408557057
1738772136874158000,8.776157958984374,-0.06035422319769859,-0.011873977667093276,-0.0036810996655374764
1738772136884149200,8.786149169921876,-0.048562078595161436,-0.008489011403918266,-0.0015622443480417132
1738772136894140200,8.79614013671875,-0.041648938205838204,-0.023373276802897452,-0.005591645994596183
1738772136904131000,8.806131103515625,-0.05178279420733452,-0.02139525472819805,0.020172617598064244
1738772136914122000,8.8161220703125,-0.049525370669364924,-0.016354922473430632,-0.0006751958478242159
1738772136924113200,8.826113037109375,-0.04548573988974094,-0.0155938749730587,-0.013056465449929236
1738772136934104300,8.836104248046874,-0.038918051937222475,-0.0034086393997073174,-0.008449410045892
1738772136944096000,8.846095947265624,-0.03737608319222927,-0.016405775877833366,0.006067666008509695
1738772136954087200,8.856087158203126,-0.04006488388478756,-0.02361643790900707,0.004565335154160857
1738772136964078000,8.866078125,-0.03634557110071182,-0.01457300749272108,-0.008943477173149585
1738772136974069000,8.876069091796875,-0.0468424151957035,-0.014511048172414302,-0.005506671124882996
1738772136984060200,8.88606005859375,-0.051337973049283024,-0.015388123267889022,0.0034463045289739964
1738772136994051300,8.89605126953125,-0.060924716562032695,-0.009231646464765072,-0.022672836915962398
1738772137004041700,8.906041748046874,-0.04643441891670227,-0.014402034839987754,-0.01681903285384178
1738772137014032600,8.91603271484375,-0.03716156365871429,-0.0218614109352231,-0.0038903585020452734
1738772137024024800,8.92602490234375,-0.04548807797729969,-0.008548340375721454,-0.00801573133636266
1738772137034015700,8.936015625,-0.05613572871983051,-0.009533259759843348,0.0017259835423901677
1738772137044006700,8.946006591796875,-0.05090016615390777,0.00035948096215724946,-0.011852240759320556
1738772137053997800,8.955997802734375,-0.043263387665152545,-0.013557985231280326,0.000735839993879199
1738772137063988700,8.96598876953125,-0.05161620546877384,-0.02246317622065544,-0.0035982071550562976
1738772137073979600,8.975979736328124,-0.04938450089395046,-0.02199263609945774,-0.007943177556805313
1738772137083970800,8.985970703125,-0.04102116169631481,-0.007136135490238666,-0.012243176305666565
1738772137093962800,8.995962646484376,-0.020071897169947624,-0.009367547804117202,0.0006277034442871809
1738772137103953700,9.00595361328125,-0.0433832146525383,-0.010652034656703472,-0.006411328347027301
1738772137113944800,9.01594482421875,-0.05071195010542869,-0.010514964273571967,0.002133139571174979
1738772137123935700,9.025935791015625,-0.04456920956671238,-0.028182430650293827,0.0023222324024885894
1738772137133926700,9.0359267578125,-0.031231589087843892,-0.014013912305235863,-0.005837839308008551
1738772137143917800,9.045917724609374,-0.04020341557264328,-0.02555968093127012,0.00019563216995447874
1738772137153908700,9.05590869140625,-0.0644406157284975,-0.03171791130006313,-0.007762450695037841
1738772137163899600,9.065899658203126,-0.04350362616181373,-0.011780746425688266,-0.000887377293780446
1738772137173891800,9.075891845703126,-0.03456570194661617,-0.006575578998029232,0.0005526289140805602
1738772137183882800,9.0858828125,-0.033519992285966874,-0.02228898869752884,0.005263217757828533
1738772137193873700,9.095873779296875,-0.048047699332237244,-0.02899959225207567,0.010041501542925834
1738772137203864800,9.10586474609375,-0.04610708665847778,-0.016260522188246248,-0.001408551623672247
1738772137213855700,9.115855712890625,-0.04104395805001258,-0.020063421602547166,0.001994900144264102
1738772137223846700,9.1258466796875,-0.037760698595643044,-0.020188509286940097,0.015455599013529718
1738772137233837600,9.135837646484376,-0.05567220286130905,-0.009856208103895188,-0.007581796898506582
1738772137243829800,9.145829833984376,-0.04935819740891456,-0.01652151121199131,-0.020149821244366466
1738772137253820700,9.155820556640625,-0.0376841262280941,-0.02473842767626047,-0.00837974234316498
1738772137263811600,9.1658115234375,-0.04381283824145794,-0.019495850847661495,-0.012787110456638037
1738772137273802800,9.175802734375,-0.037970541954040524,-0.019221417820453644,-0.002560059746354818
1738772137283793700,9.185793701171875,-0.051586394852399825,-0.014299451248347759,-0.009467902906052768
1738772137293784600,9.19578466796875,-0.028111995762586592,-0.017383388738334178,-0.010127207065001129
1738772137303775700,9.205775634765626,-0.0288391409933567,-0.023120763346552848,0.0007199848376214504
1738772137313766700,9.2157666015625,-0.06428571742773055,-0.011806173127889633,-0.009060856475122272
1738772137323758600,9.225758544921876,-0.07416939806044101,-0.006256430046260356,-0.006437193440645933
1738772137333749800,9.235749755859375,-0.031841829940676684,-0.019216157123446462,0.00011602759510278701
1738772137343740700,9.24574072265625,-0.029144845941662785,-0.008455985917150974,-0.0007420505389571189
1738772137353731600,9.255731689453125,-0.04320259738862514,-0.025694997748732566,-0.005751585796661675
1738772137363722800,9.26572265625,-0.059652212408185,-0.013317162212729453,-0.011307795151695608
1738772137373713700,9.275713623046874,-0.04230418724417686,-0.023456571172177792,-0.0061624681524932385
1738772137383704600,9.28570458984375,-0.030493922463059424,-0.007399754862487316,-0.011387472791783511
1738772137393696800,9.29569677734375,-0.030315643286705014,-0.00554302107989788,-0.0030779826732352375
1738772137403687700,9.305687744140625,-0.05659925457835197,-0.00808452225625515,-0.0015675050450488924
1738772137413678600,9.3156787109375,-0.053448097071051595,-0.027564298751950263,-0.003493139345385134
1738772137423669800,9.325669677734375,-0.03144610862135887,-0.0229354699075222,0.0019925620567053555
1738772137433660700,9.33566064453125,-0.03966039473712444,-0.015652327162027357,-0.0031981749868020414
1738772137443651600,9.345651611328124,-0.05236205540001392,-0.019458441446721552,0.006262859787046909
1738772137453642500,9.355642578125,-0.04055646679401397,-0.003101473146677017,-0.014875095711834728
1738772137463633700,9.365633544921875,-0.02604337279498577,-0.02030044522881508,-0.013126279283128678
1738772137473625600,9.37562548828125,-0.03218260620236397,-0.01744388675391674,0.0006281053030863404
1738772137483616500,9.385616455078125,-0.06359072090089321,-0.009261164820194245,-0.000825052647292614
1738772137493607700,9.395607666015625,-0.06781564511954784,-0.008871580980718136,-0.006149499073065817
1738772137503598600,9.4055986328125,-0.058684244158864016,-0.01141542024463415,0.0034769188629463314
1738772137513589500,9.415589599609374,-0.04431669611036777,-0.007086451129615306,-0.009950644921697676
1738772137523580700,9.42558056640625,-0.043079263269901275,-0.01708528257459402,0.0000364595528692007
1738772137533571800,9.43557177734375,-0.0526549008667469,-0.02068155350089073,-0.016863419984839857
1738772137543563500,9.4455634765625,-0.03304477598965168,-0.010811901393532752,-0.014166289855353533
1738772137553554700,9.4555546875,-0.03857552210986614,-0.012176760005950927,-0.007274009590968489
1738772137563545600,9.465545654296875,-0.05904547868669033,-0.023348726883530617,-0.010409567670337854
1738772137573536500,9.47553662109375,-0.05381868394911289,-0.018683657681941985,-0.000050743806548416615
1738772137583527700,9.485527587890624,-0.0502279659807682,-0.027057518273591992,0.008870448469556867
1738772137593518800,9.495518798828124,-0.04511866014301777,-0.005580722741782665,0.00029299159720540046
1738772137603509800,9.505509765625,-0.04586567911803722,-0.011720540671050548,0.00017093612011522054
1738772137613500700,9.515500732421875,-0.04225099575221538,-0.010142039307951926,-0.00953260217271745
1738772137623492600,9.52549267578125,-0.052857729962468146,-0.019016835159063338,-0.007621361723914742
1738772137633483800,9.53548388671875,-0.04103402117788792,-0.01692979975193739,-0.014789353657141327
1738772137643475000,9.545474853515625,-0.04222761487662792,-0.003621697628498077,0.003763115393184125
1738772137653465900,9.5554658203125,-0.04477145414054393,-0.012745499804615973,-0.005700184402987361
1738772137663456800,9.565456787109374,-0.03984568817615509,-0.014653379252552985,0.0002484948683530092
1738772137673447700,9.57544775390625,-0.04524550139307976,-0.021348785237967967,0.0023144509548321365
1738772137683438800,9.58543896484375,-0.03821428758203983,-0.020596797826886174,-0.0032152357194572684
1738772137693430800,9.5954306640625,-0.046913726866245266,-0.013358955527842045,-0.0004986337045207619
1738772137703421700,9.605421630859375,-0.03898468743264675,-0.015441022498905659,0.002563676475547254
1738772137713412900,9.615412841796875,-0.05395195493996143,-0.024104221425950527,-0.000933006533794105
1738772137723403800,9.62540380859375,-0.05036123697161674,-0.013920973324775696,-0.0008543883396312594
1738772137733394700,9.635394775390624,-0.0324076471298933,-0.01750526155233383,-0.007717332911677658
1738772137743385900,9.6453857421875,-0.03901099091768265,-0.011166706180572509,-0.01430189893376082
1738772137753376800,9.655376708984376,-0.05111702377498149,-0.01825344957113266,-0.0033972046902403233
1738772137763367700,9.66536767578125,-0.057386021041870114,-0.017853636598587037,0.01251622109338641
1738772137773359900,9.67535986328125,-0.04271802874207496,-0.013678396740555763,0.005237243066355586
1738772137783350800,9.685350830078125,-0.03732406074404716,-0.01878799483925104,-0.008960062981769441
1738772137793341700,9.695341796875,-0.05991758534610271,-0.01565612655431032,-0.0011282733775675297
1738772137803332900,9.705332763671874,-0.04312310241162777,-0.01905336777716875,-0.004944178403913975
1738772137813323800,9.71532373046875,-0.034897710379958154,-0.020690613590180873,-0.00026062369756400583
1738772137823314700,9.725314697265626,-0.05553250212967396,-0.02477320672869682,-0.007137085338309407
1738772137833305600,9.7353056640625,-0.04821194998323917,-0.01127425820827484,0.0017013970904052257
1738772137843296800,9.745296875,-0.039375148054957385,-0.0030760464444756505,0.0007527911286801099
1738772137853288700,9.755288818359375,-0.04728022209107875,-0.016159984423220156,-0.0078573624368757
1738772137863279900,9.76527978515625,-0.06283025792241097,-0.010812193654477595,-0.009904065833613276
1738772137873270800,9.775270751953125,-0.06032675066888332,-0.017442425449192524,-0.007399608732014894
1738772137883261700,9.78526171875,-0.033119010269641876,-0.019607786789536476,-0.0014813245989382267
1738772137893252600,9.795252685546876,-0.035652328139543533,-0.017542378692328928,0.01078691308274865
1738772137903243800,9.805243896484376,-0.06724573627710342,-0.017353285861015318,-0.002963087589293718
1738772137913234700,9.815234619140625,-0.049153614747524256,0.0013794716596603393,0.0007420505389571189
1738772137923226600,9.8252265625,-0.037622751429677005,-0.009852116450667381,-0.001522716055251658
1738772137933217800,9.8352177734375,-0.027416414713859555,-0.018903145651519297,-0.004349719642102718
1738772137943208700,9.845208740234375,-0.05777355905473232,-0.015827683728933332,0.001628624115139246
1738772137953199600,9.85519970703125,-0.057177346727252006,-0.011633739170432091,-0.011225414097867906
1738772137963190800,9.865190673828126,-0.0524023874104023,-0.027593817107379435,-0.0022384631091728804
1738772137973181700,9.875181640625,-0.03834229787588119,-0.021725801856815812,-0.015105105075426398
1738772137983172600,9.885172607421875,-0.03444938209056854,-0.017406185092031956,-0.009146744660288095
1738772137993163500,9.89516357421875,-0.0440630136102438,-0.009231646464765072,-0.003055368982627988
1738772138003155700,9.90515576171875,-0.044942134532332416,-0.02124853973388672,-0.0025295550102367994
1738772138013146600,9.915146728515625,-0.05108545959293842,-0.02198211470544338,0.0015902283335104584
1738772138023137800,9.9251376953125,-0.04362403767108917,-0.006072890172898769,-0.002790397903509438
1738772138033128700,9.935128662109374,-0.04794716156721115,-0.0011734276935458183,-0.005713591873832046
1738772138043119600,9.94511962890625,-0.041653614380955696,-0.019748656564950944,0.00172086897585541
1738772138053110800,9.95511083984375,-0.03880231660306453,-0.013349895438551902,-0.0014396774142980575
1738772138063101700,9.965101806640625,-0.046563598254323005,-0.00592032995969057,-0.0047553778335452076
1738772138073093600,9.97509375,-0.0594300940901041,-0.01744037962257862,-0.012191117324866354
1738772138083084800,9.985084716796875,-0.05030570739209651,-0.015635083766281605,-0.001108874557353556
1738772138093075700,9.99507568359375,-0.02713818229436874,0.001197977612912655,-0.0014038754485547543
1738772138103066600,10.005066650390624,-0.03682429452836513,-0.01717939059883356,-0.0005788958664983511
1738772138113057800,10.015057861328126,-0.064797758603096,-0.018870996947586535,-0.007689421991445124
1738772138123048700,10.025048583984375,-0.06598609160482884,-0.008273907348513602,-0.006162906543910503
1738772138133039600,10.03503955078125,-0.030265958926081655,-0.004708908343315124,0.007865472678095101
1738772138143030500,10.045030517578125,-0.03294599179029464,-0.009679974754154682,0.019197927347011864
1738772138153022700,10.055022705078125,-0.04582476258575916,-0.020887889727950096,0.0016821444006636737
1738772138163013600,10.065013671875,-0.059709495553374285,-0.016197101563215254,-0.00018120178580284117
1738772138173004500,10.075004638671874,-0.04760521626174449,-0.014344751694798468,-0.0038813714779913425
1738772138182995700,10.08499560546875,-0.01591419296860695,-0.018579612785577772,0.0013545564141124486
1738772138192986600,10.094986572265626,-0.03160919022858143,-0.019530337639153003,0.004103562861308455
1738772138202977500,10.1049775390625,-0.05764028806388378,-0.010281447778642178,0.0025946196030825373
1738772138212968700,10.11496875,-0.05543079532086849,-0.009580898293852806,-0.0029962592065334317
1738772138222959900,10.1249599609375,-0.03736322371065617,-0.029204174913465976,-0.01173972029555589
1738772138232951600,10.13495166015625,-0.044080549266934395,-0.027898645272850988,-0.0011542846016585825
1738772138242942700,10.144942626953124,-0.04974047472476959,-0.008833002535998821,0.002740092488378286
1738772138252933600,10.15493359375,-0.053771922197937964,-0.012458499556779861,-0.005109561566077172
1738772138262924500,10.164924560546876,-0.04825637364685535,-0.01747925032824278,-0.013565510950610041
1738772138272916000,10.174916015625,-0.030155484288930893,-0.023586627292633056,-0.009058043463528155
1738772138282907000,10.184906982421875,-0.04314239163398743,-0.011553659671545029,0.001708886277116835
1738772138292897800,10.194897705078125,-0.06392448289990425,-0.015213351222872732,-0.00421889633666724
1738772138302888700,10.204888671875,-0.05094926599264145,-0.014799801985919474,-0.005512589409016073
1738772138312880600,10.214880615234375,-0.03300678206682205,-0.009210019154846668,-0.013575447822734713
1738772138322871800,10.224871826171874,-0.04268763360381126,-0.012474573908746242,-0.004195844254642725
1738772138332863000,10.234863037109376,-0.04206044161617756,-0.020960954964160918,-0.002745755044184625
1738772138342854000,10.24485400390625,-0.049556350329518314,-0.014050444923341274,-0.002323437978886068
1738772138352844800,10.2548447265625,-0.028809914898872375,-0.02048106249272823,0.004365757461450993
1738772138362835700,10.264835693359375,-0.032252748829126356,-0.029893326221406457,0.002014810421131551
1738772138372827000,10.274826904296875,-0.042680619341135026,-0.013728373362123965,0.001250548050366342
1738772138382817800,10.28481787109375,-0.0484895978808403,-0.01156271976083517,-0.009928798416070639
1738772138392809700,10.294809814453124,-0.04281505937576294,-0.01584784973412752,-0.015388086735270916
1738772138402801000,10.30480078125,-0.03875497032999992,-0.02502162853181362,0.007110416527092456
1738772138412791800,10.314791748046876,-0.027840777605772016,-0.015737959618866443,0.0010342749511823058
1738772138422782700,10.32478271484375,-0.05073474645912647,-0.0121583475664258,-0.00035542584154754875
1738772138432774000,10.33477392578125,-0.04509060309231281,-0.018767244312167166,0.002257861929386854
1738772138442764800,10.344764892578125,-0.05066226574480533,-0.01880669953972101,-0.0034051322683691975
1738772138452755700,10.354755615234374,-0.03166822693943977,-0.01594195775836706,0.007135112576931715
1738772138462748000,10.364747802734374,-0.042738487008214,-0.021795359961688517,-0.0007081482693552971
1738772138472738800,10.37473876953125,-0.03811842599213123,-0.023691256710886954,0.005907908869534731
1738772138482729700,10.384729736328126,-0.043639819762110704,-0.013100889113545417,0.004191058481670916
1738772138492721000,10.394720947265625,-0.03868307413756847,-0.009115034347772598,-0.0055340340558439486
1738772138502711800,10.4047119140625,-0.052282560423016544,-0.027706922093033787,-0.004303359749726951
1738772138512702700,10.41470263671875,-0.048827451533079144,-0.013232698799669741,-0.004121646507270634
1738772138522693600,10.424693603515625,-0.035920623686909674,-0.007503799758851528,-0.00023559885416179894
1738772138532684800,10.434684814453124,-0.02918576247394085,-0.017376958997547626,0.0004716360997408628
1738772138542676700,10.4446767578125,-0.027656653210520743,-0.0037111294776201245,-0.01711052661370486
1738772138552668000,10.45466796875,-0.03974164327979088,-0.015928806015849114,0.005616049783490598
1738772138562658800,10.464658935546876,-0.04589198260307312,-0.008849369148910045,0.004074848223477602
1738772138572649700,10.474649658203125,-0.04573240812718868,-0.01051876366585493,0.0056838543226942415
1738772138582640600,10.484640625,-0.039893618971109386,-0.012023323009908198,0.0049346433905884625
1738772138592631800,10.4946318359375,-0.0472042342454195,-0.02316460248827934,-0.0084561685802415
1738772138602622700,10.504622802734374,-0.06125614047348499,-0.011687515184283256,-0.0037587680116295814
1738772138612613600,10.514613525390626,-0.04031915090680122,-0.02197919209599495,-0.0034512729650363325
1738772138622605800,10.524605712890626,-0.02192424703836441,-0.02090250277519226,0.004779708557203412
1738772138632596700,10.5345966796875,-0.034032617983222005,-0.019291560447216034,-0.004340184628777206
1738772138642587600,10.544587646484375,-0.04091302514672279,-0.002097556801140308,-0.0020229937275871635
1738772138652578800,10.554578857421875,-0.038513562789559364,-0.00854629454910755,0.011584274005517363
1738772138662569700,10.56456982421875,-0.04452244781553745,-0.017004034031927583,-0.004330722680687904
1738772138672560600,10.574560546875,-0.042402386921644206,-0.012596738983690738,0.0026588074130937454
1738772138682551800,10.5845517578125,-0.041049218747019764,-0.002890753005445003,0.001780599806457758
1738772138692542700,10.594542724609376,-0.04749415710270405,-0.0259004571929574,-0.005307604888826608
1738772138702534700,10.60453466796875,-0.03774725459218025,-0.018912498001754284,-0.004978007608279585
1738772138712525800,10.61452587890625,-0.03759294081330299,-0.009358779975771904,-0.004581920962780713
1738772138722516700,10.624516845703125,-0.04373392778635025,-0.011290917082130909,0.005036678992956877
1738772138732507600,10.634507568359375,-0.05573182409405708,-0.012851298266649245,-0.0017902444176375865
1738772138742498600,10.64449853515625,-0.036757074511051174,-0.01771218230128288,-0.009974610319174826
1738772138752489700,10.65448974609375,-0.03957680810689926,-0.006860825680196285,0.0013057488363236189
1738772138762480600,10.664480712890626,-0.04643383439481258,-0.009629121349751949,0.006103650637343526
1738772138772471600,10.674471435546875,-0.04688976146876812,-0.018430559703707695,-0.008193060664646328
1738772138782463700,10.684463623046875,-0.04002279830873012,-0.025407120718061924,0.0003846884686499834
1738772138792454700,10.69445458984375,-0.03298690832257271,-0.023780396299064158,0.0008108414588496089
1738772138802445600,10.704445556640625,-0.043891748696565626,-0.020856033284962175,0.0009510171145200729
1738772138812436700,10.714436767578125,-0.055828854727745056,-0.02199468192607164,-0.004917399994842708
1738772138822427600,10.724427734375,-0.032934301352500917,-0.015706103175878523,-0.00001676847171038389
1738772138832418600,10.73441845703125,-0.04220072686970234,-0.007507891412079334,-0.004636281498521566
1738772138842409700,10.74440966796875,-0.04504384134113788,-0.01887245825231075,-0.007267214524000883
1738772138852401000,10.75440087890625,-0.04457096313238144,-0.012051087799668311,-0.010606515014544128
1738772138862392600,10.764392578125,-0.05683657046556472,-0.0021913725644350053,0.006186068223789334
1738772138872383700,10.7743837890625,-0.0426379492431879,-0.01606178474575281,-0.010262596947699784
1738772138882374700,10.784374755859375,-0.03278583279252052,-0.01285159052759409,-0.01521258403789252
1738772138892365600,10.794365478515624,-0.0490863947302103,-0.013033084574341772,-0.005579992089420557
1738772138902356700,10.804356689453124,-0.05178220968544483,-0.02784633056372404,0.0010521028688177466
1738772138912348000,10.814347900390626,-0.03310965791940689,-0.015483984857797622,-0.01304163320697844
1738772138922338800,10.8243388671875,-0.00978022025823593,-0.01514203955233097,0.0030798458367586132
1738772138932329700,10.834329833984375,-0.026803251251578328,-0.02886018378138542,-0.0024377485409379004
1738772138942321700,10.84432177734375,-0.06402443614304065,-0.011923369766771793,-0.014109773895144461
1738772138952312800,10.854312744140625,-0.04504150325357914,-0.018446341794729232,-0.0017162658659741281
1738772138962303700,10.8643037109375,-0.044319034197926516,-0.024347090271115302,-0.006785605019517242
1738772138972295000,10.874294921875,-0.056176060730218885,-0.013483458690345286,-0.009064948128350079
1738772138982285800,10.884285888671876,-0.04918868606090546,-0.013367138834297656,-0.01629928329605609
1738772138992276700,10.89427685546875,-0.03903554083704948,-0.01883855598270893,-0.009599274200759827
1738772139002268400,10.904268310546875,-0.053070495930314064,-0.021310791315138338,0.0030274945950135588
1738772139012260000,10.914260009765625,-0.05948153201639652,-0.00926613325625658,-0.001797477876022458
1738772139022251000,10.9242509765625,-0.05291384406387806,-0.01131955865472555,-0.0008433554889634251
1738772139032242200,10.9342421875,-0.017297171759605406,-0.010273556733131408,-0.0037632980562746525
1738772139042233300,10.9442333984375,-0.028033085307478903,-0.008288520395755767,0.002553447342477739
1738772139052224300,10.954224365234374,-0.056121700194478034,-0.016966624630987644,0.00747917677424848
1738772139062215200,10.964215087890626,-0.06659399437010288,-0.01966594671756029,0.004778393382951617
1738772139072206300,10.974206298828125,-0.04072013292312622,-0.010776537819206714,-0.006221066471934318
1738772139082197200,10.984197265625,-0.017664251506328582,-0.0027332243561744686,0.004454970114864409
1738772139092189200,10.994189208984375,-0.0706102442741394,-0.01779459988772869,-0.00561579405516386
1738772139102180400,11.004180419921875,-0.04846738604903221,-0.026319267126917838,-0.009322430020757019
1738772139112171300,11.014171142578125,-0.0321679931551218,-0.018932371746003627,0.012594072102569043
1738772139122162200,11.024162109375,-0.023929741641879082,-0.015216566093266009,0.0010907909113913774
1738772139132153300,11.0341533203125,-0.05115384865403175,-0.013915712627768516,-0.00021725947987288234
1738772139142144300,11.044144287109376,-0.06762976715862751,-0.008637772224843502,-0.009906513519026338
1738772139152135200,11.05413525390625,-0.0443242948949337,-0.010161913052201271,-0.0033392639579251406
1738772139162126300,11.064126220703125,-0.029523031604290005,-0.01087473749667406,-0.019485073725320396
1738772139172118300,11.0741181640625,-0.0451999086856842,-0.017431027272343635,0.004991488144360482
1738772139182109200,11.084109130859375,-0.06361468629837036,-0.021009470281004906,0.00048537236414849757
1738772139192100400,11.094100341796874,-0.05570318252146244,-0.01899403880536556,-0.012242080327123404
1738772139202091300,11.10409130859375,-0.03520224628448486,-0.017030629777908323,-0.011095394510030747
1738772139212082200,11.114082275390626,-0.03588321428596973,-0.019627076011896134,0.015375336851552127
1738772139222073300,11.1240732421875,-0.06352291636168957,-0.0031608021184802056,0.005436272769793867
1738772139232064300,11.134064208984375,-0.06654664809703827,-0.008003858235478402,-0.0028764687517657873
1738772139242056200,11.14405615234375,-0.04371288499832153,-0.011250585071742534,-0.005670483384467661
1738772139252047400,11.15404736328125,-0.03126841396689415,-0.02373451133072376,0.004161576658859849
1738772139262038300,11.164038330078125,-0.035872108370065686,-0.019819091452658175,0.004871953417919576
1738772139272029200,11.174029296875,-0.054010407128930085,-0.01331160925477743,-0.009912358737923205
1738772139282020000,11.18402001953125,-0.04984101248979568,-0.011143909826874732,-0.00888126212451607
1738772139292011300,11.19401123046875,-0.04670622159540653,-0.01845247927457094,0.007696911178156733
1738772139302002200,11.204002197265625,-0.05192483302652835,-0.026304069557785987,-0.00962345879394561
1738772139311993000,11.2139931640625,-0.03772679632604122,-0.02012859579324722,-0.006385828579589724
1738772139321985300,11.2239853515625,-0.033709377378225325,-0.015275602804124355,-0.0054916562188416715
1738772139331976200,11.23397607421875,-0.032791678011417386,-0.01987199068367481,-0.00423266913369298
1738772139341967000,11.243967041015624,-0.011201777493953704,-0.06811930424124002,0.0335107495335862
1738772139351958300,11.253958251953126,-0.05079612125754356,0.03546323530822992,-0.01038644252307713
1738772139361949200,11.26394921875,-0.09231412656009197,-0.029287469282746312,-0.019216047525592146
1738772139371940000,11.273940185546875,-0.02461597034037113,-0.01340484049618244,0.0003707330085337162
1738772139381931300,11.28393115234375,-0.0068026657521724695,-0.027913550581037998,-0.0016634031675755976
1738772139391923200,11.293923095703125,-0.0582446836978197,-0.009822598095238208,-0.003166172413341701
1738772139401914000,11.3039140625,-0.10631342581808566,-0.03553279341310262,0.007406696059927344
1738772139411905300,11.3139052734375,-0.02475800915956497,-0.011691314576566218,0.007273534666933119
1738772139421896200,11.323896240234374,0.019245383217930793,-0.027021570177376268,-0.014029584798403083
1738772139431887000,11.33388720703125,-0.041004795083403586,-0.020154607017338275,0.029827823237143454
1738772139441878300,11.343878173828125,-0.06029401744306087,-0.01713584371805191,-0.0194668804815039
1738772139451869200,11.353869140625,-0.06513152060210704,-0.022169746232032776,-0.0018498656503856182
1738772139461860000,11.363860107421875,-0.05240121836662292,-0.020579554431140422,-0.0028218890203163026
1738772139471852300,11.373852294921875,-0.038649756389856335,-0.011392331629991531,0.0203606875160709
1738772139481843200,11.38384326171875,-0.03830898012816906,-0.01590542514026165,-0.008993088468536733
1738772139491834000,11.393834228515624,-0.07233750645816325,-0.021436463521420954,-0.0010577654246240855
1738772139501825000,11.403824951171876,-0.0466290647059679,-0.01268383274525404,0.001721234302036464
1738772139511816200,11.413816162109375,-0.022282558956742287,-0.0026838322564959527,-0.0017313538372516631
1738772139521807000,11.42380712890625,-0.03542378008067608,-0.007706336593627929,-0.005511785691417754
1738772139531798000,11.433798095703125,-0.052449733683466906,-0.014097498935461044,-0.006114902683719992
1738772139541789200,11.4437890625,-0.07057283487319946,-0.002390110006928444,-0.003761763686314225
1738772139551781000,11.453781005859375,-0.036490532529354094,-0.008717267201840876,-0.009241729467362165
1738772139561772000,11.46377197265625,-0.02469488079547882,-0.01552460912913084,0.005238448642753064
1738772139571763200,11.47376318359375,-0.04145195432901382,-0.013443126679956912,0.0021728870596736667
1738772139581754000,11.483754150390626,-0.0577788197517395,-0.007573065602779388,0.0063209466498345135
1738772139591745000,11.4937451171875,-0.053182724133133887,-0.022857728496193885,-0.005146934434399009
1738772139601736200,11.503736083984375,-0.034062428599596024,-0.023808453349769113,0.011434636401757597
1738772139611727400,11.513727294921875,-0.040813071903586386,-0.018980302540957925,0.009410692826099694
1738772139621719000,11.523718994140625,-0.04814882161915302,-0.017482757459580896,0.0021747136905789373
1738772139631710200,11.533710205078124,-0.047100189349055285,-0.02107318316698074,-0.011790135308541358
1738772139641701000,11.543701171875,-0.03828910638391971,-0.0011129296779632568,-0.0005156213719397783
1738772139651692000,11.553692138671876,-0.03663783204555511,-0.004872866733372211,0.0052260640852153295
1738772139661683200,11.56368310546875,-0.033784196180105204,-0.009392097723484039,-0.009289806392788886
1738772139671674400,11.57367431640625,-0.05715396585166454,-0.023235037375986575,0.007778123188205063
1738772139681665300,11.583665283203125,-0.056304071024060244,-0.020551497380435466,0.006965308967977762
1738772139691657200,11.5936572265625,-0.03088847473859787,-0.013605039243400096,0.006218472656048834
1738772139701648100,11.603648193359374,-0.025780337944626808,-0.01919628337919712,0.009197232738509774
1738772139711639000,11.61363916015625,-0.047156303450465197,-0.016271920365095137,0.0053693084808066486
1738772139721630200,11.623630126953126,-0.052225861799716944,-0.014833704255521296,-0.0002463394438847899
1738772139731621400,11.633621337890625,-0.04086158722043037,-0.012713643361628054,0.01019599798489362
1738772139741612300,11.6436123046875,-0.03712766138911247,-0.016286825673282147,-0.011929141920432448
1738772139751603200,11.653603271484375,-0.0413438177794218,-0.020710487334430216,0.0011842048158869146
1738772139761594400,11.663594482421875,-0.04671089777052402,-0.006251169349253178,0.00371204279307276
1738772139771586300,11.67358642578125,-0.056153848898410796,-0.028640988072752952,0.0074859718412160865
1738772139781577200,11.6835771484375,-0.0539314966738224,-0.01241933659017086,-0.00551722905151546
1738772139791568400,11.693568359375,-0.04060848924219608,0.00043400750309228895,-0.0022241788554936645
1738772139801559300,11.703559326171876,-0.03026888153553009,-0.022348609930276868,-0.001953727883659303
1738772139811550200,11.71355029296875,-0.03146130619049072,-0.015930851842463015,0.0076644702132791275
1738772139821541400,11.723541259765625,-0.05419219343662262,-0.02391103694140911,0.005812120344862341
1738772139831532300,11.7335322265625,-0.04371171595454216,-0.021686054368317127,-0.00911700710915029
1738772139841524200,11.743524169921875,-0.04700432775914669,-0.013747954845428467,-0.008116013373062014
1738772139851515400,11.753515380859374,-0.03201601746380329,-0.013362462659180164,-0.010870974637009203
1738772139861506300,11.76350634765625,-0.040244916626811025,-0.018463292929530143,-0.0031414032982662317
1738772139871497200,11.773497314453126,-0.05009235690236091,-0.02033960819542408,0.008554770116508006
1738772139881488100,11.783488037109375,-0.041895021921396255,-0.01575286492705345,-0.001243095396272838
