time,seconds_elapsed,z,y,x
1738772128128164400,0.030164306640625,0.0007466523675248027,-0.0009601782076060772,-0.0017988563049584627
1738772128138155500,0.040155517578125,-0.0000014296965673565865,0.004061211831867695,0.0023495496716350317
1738772128148146400,0.050146484375,-0.00020372855942696333,0.0028637046925723553,0.001285363337956369
1738772128158138400,0.060138427734375,-0.0011504823341965675,-0.003828552784398198,0.0002944010775536299
1738772128168129500,0.070129638671875,-0.0003272141329944134,-0.0029525146819651127,-0.0035583071876317263
1738772128178120400,0.080120361328125,0.0008110209600999951,0.0015008233021944761,-0.00010631780605763197
1738772128188111400,0.090111328125,-0.0033210779074579477,0.0031807366758584976,0.0017698048613965511
1738772128198102500,0.1001025390625,-0.00011010468006134033,-0.000375914853066206,-0.0001964069379027933
1738772128208093400,0.110093505859375,-0.0002294579753652215,-0.0026126170996576548,-0.00008487784361932427
1738772128218084400,0.12008447265625,0.0005170260556042194,-0.00019313511438667774,-0.00039939716225489974
1738772128228076500,0.13007666015625,0.0004075343022122979,0.0023880794178694487,-0.0003458322898950428
1738772128238067500,0.1400673828125,-0.0006526701035909355,-0.00008067116141319275,0.0015298320213332772
1738772128248058400,0.150058349609375,0.0004375240532681346,-0.0010958968196064234,0.00045224762288853526
1738772128258049300,0.16004931640625,-0.0009382649441249669,-0.0005166593473404646,-0.0005802598898299038
1738772128268040400,0.17004052734375,-0.001363198272883892,-0.0009260571096092463,0.0011630847584456205
1738772128278031400,0.18003125,0.0015039609279483557,0.0007184450514614582,-0.00029659378924407065
1738772128288022300,0.190022216796875,0.0015947013162076473,-0.0009577935561537743,-0.00013286041212268174
1738772128298014500,0.200014404296875,0.0002069281181320548,-0.000931162154302001,0.00011081882985308766
1738772128308005400,0.21000537109375,-0.0012834080262109637,0.0006304068956524134,-0.001315676374360919
1738772128317996300,0.219996337890625,0.0009238198399543762,0.0009449261706322432,-0.00006718645454384387
1738772128327987500,0.229987548828125,-0.0010653398931026459,-0.000744762597605586,0.0015050866641104221
1738772128337978400,0.239978271484375,-0.0005492193158715963,-0.00026992103084921837,-0.00041585142025724053
1738772128347969300,0.24996923828125,0.000025372602976858616,-0.0021338914521038532,-0.0013028491521254182
1738772128357960400,0.25996044921875,-0.00037250365130603313,-0.0008518456015735865,0.0009581745835021138
1738772128367951400,0.269951416015625,0.000011461786925792694,0.0012688464485108852,0.0007693491061218083
1738772128377943300,0.279943359375,-0.0006197073962539434,0.00015085143968462944,0.00005429031443782151
1738772128387934500,0.2899345703125,0.000362454098649323,0.001436308491975069,0.000044469721615314484
1738772128397925400,0.29992529296875,0.0004655184457078576,-0.00041645276360213757,-0.00027218012837693095
1738772128407916300,0.309916259765625,0.000820876331999898,-0.00014702114276587963,0.0005412790342234075
1738772128417907500,0.319907470703125,-0.00037781248101964593,0.0009137156885117292,-0.00014448491856455803
1738772128427898400,0.3298984375,-0.0017463443800807,0.0006746200378984213,0.00054258166346699
1738772128437889300,0.33988916015625,0.0007714082021266222,-0.0024101193994283676,-0.0019791654776781797
1738772128447881500,0.349881591796875,0.0007807745132595301,-0.000633002957329154,-0.00011689323582686484
1738772128457872400,0.359872314453125,0.0008697242010384798,-0.0001546991989016533,0.0007848530658520758
1738772128467863300,0.36986328125,-0.000028991373255848885,0.0005014229100197554,0.0011158466804772615
1738772128477854200,0.379854248046875,-0.00037893076660111547,-0.00042935204692184925,-0.00038564344868063927
1738772128487845400,0.389845458984375,-0.0006285426206886768,-0.0013749487698078156,0.0001628149184398353
1738772128497836300,0.399836181640625,0.0009794739307835698,-0.00037040445022284985,0.0013529815478250384
1738772128507828500,0.409828369140625,-0.0008536236127838492,0.001029502134770155,-0.0006342825945466757
1738772128517819400,0.4198193359375,0.0003410704666748643,0.0008582607842981815,-0.00003001137520186603
1738772128527810300,0.429810302734375,0.0003240569494664669,0.00007155956700444221,-0.00121475534979254
1738772128537801200,0.43980126953125,0.0004287190968170762,0.0013815686106681824,-0.0006626820540986955
1738772128547792400,0.44979248046875,0.0008985924068838358,0.0002935107331722975,-0.0012854882515966892
1738772128557783300,0.459783203125,-0.0001709330826997757,-0.0016247641760855913,-0.0005986590404063463
1738772128567774200,0.469774169921875,0.00011657108552753925,-0.00036239041946828365,-0.000566992093808949
1738772128577765400,0.479765380859375,0.000999409006908536,-0.00039967475458979607,-0.00012144520587753505
1738772128587757300,0.48975732421875,-0.0012589466059580445,0.00034127430990338326,-0.0014568811748176813
1738772128597748200,0.499748291015625,0.0005890208994969726,-0.0012241317890584469,-0.001253681955859065
1738772128607739400,0.509739501953125,0.0006179371848702431,-0.0004726520273834467,0.00009409862104803324
1738772128617730300,0.519730224609375,-0.0009914110414683819,0.0005617195274680853,0.0015862677246332169
1738772128627721200,0.52972119140625,-0.00010170077439397573,0.0002551919315010309,-0.0014057678636163473
1738772128637712400,0.53971240234375,-0.001739012193866074,-0.0003679876681417227,0.00048401119420304894
1738772128647703300,0.549703369140625,0.001284973812289536,0.0010684540029615164,-0.0005310688866302371
1738772128657695200,0.5596953125,0.00033342628739774227,0.00047430279664695263,-0.00012040947331115603
1738772128667686400,0.569686279296875,0.0005494683282449841,0.001207555877044797,-0.0006438407581299543
1738772128677677300,0.57967724609375,-0.0006803794531151652,0.0003843728918582201,0.001445941743440926
1738772128687668200,0.589668212890625,0.0005014792550355196,-0.0006385480519384146,0.0004685214371420443
1738772128697659100,0.5996591796875,0.000029034563340246677,0.0014613543171435595,0.00029355176957324147
1738772128707650300,0.609650390625,-0.000019554048776626587,-0.00004922039806842804,-0.0009948406368494034
1738772128717641500,0.619641357421875,-0.0014020010130479932,-0.0008420434314757586,-0.0011264007771387696
1738772128727633400,0.62963330078125,0.0006958962185308337,-0.0005734474398195744,0.0020944972056895494
1738772128737624300,0.639624267578125,-0.0004870800185017288,0.0014899694360792637,0.000846007140353322
1738772128747615200,0.649615234375,0.0015248515410348773,0.0006885090842843056,-0.0012060930021107197
1738772128757606100,0.659606201171875,-0.0004054076853208244,-0.0006329515017569065,-0.0010162096004933119
1738772128767597300,0.669597412109375,-0.0010397422593086958,-0.00003978237509727478,-0.00022458955936599523
1738772128777588500,0.67958837890625,-0.00041816045995801687,0.0007264090236276388,-0.0016075691673904657
1738772128787579400,0.689579345703125,-0.00019137084018439054,0.00014075473882257938,0.0012434723321348429
1738772128797571300,0.6995712890625,-0.0002592814853414893,0.00039455387741327286,-0.00020715156279038638
1738772128807562200,0.709562255859375,0.0008669294184073806,-0.0009272776078432798,0.00018056484987027943
1738772128817553400,0.719553466796875,-0.000842820038087666,-0.00021301768720149994,-0.0011155955726280808
1738772128827544600,0.729544677734375,0.001002285978756845,0.0007552900351583958,-0.0005643268232233822
1738772128837535500,0.739535400390625,0.000217186170630157,0.0005973647348582745,0.0009904266335070133
1738772128847526400,0.7495263671875,-0.0011712091509252787,-0.0002633999101817608,0.0012291690800338984
1738772128857518300,0.759518310546875,0.00014971871860325336,-0.0008202667813748121,0.0005364809185266495
1738772128867509200,0.76950927734375,-0.001607632962986827,-0.0009782116394490004,-0.000948761822655797
1738772128877500400,0.77950048828125,-0.001670483616180718,0.00024098344147205353,-0.0004928286070935428
1738772128887491600,0.78949169921875,-0.0012283368268981576,0.0004272980149835348,-0.0005534483352676034
1738772128897482500,0.799482421875,0.0011179079301655293,0.0017764552030712366,-0.0017862257082015276
1738772128907473400,0.809473388671875,0.00027253152802586555,-0.0007773700635880232,-0.0014942310517653823
1738772128917464300,0.81946435546875,-0.0010606469586491585,-0.0007565976120531559,-0.00039221494807861745
1738772128927455500,0.82945556640625,-0.0004183573182672262,-0.0008309390395879745,-0.00027106114430353045
1738772128937447400,0.839447509765625,-0.0001690854551270604,0.0006567027885466814,0.00196439609862864
1738772128947438600,0.8494384765625,0.00033983716275542974,-0.00018106913194060326,0.0007682612631469965
1738772128957429500,0.859429443359375,0.0014043025439605117,-0.00017680786550045013,0.0010215279180556536
1738772128967420400,0.86942041015625,0.001600349205546081,0.00015811249613761902,-0.0013774350518360734
1738772128977411300,0.879411376953125,-0.00031286582816392183,-0.0008179361466318369,0.00045748293632641435
1738772128987402500,0.889402587890625,0.00023513217456638813,-0.0007876376621425152,0.0017172875814139843
1738772128997395500,0.8993955078125,0.0005624346667900681,0.0013325046747922897,0.0015090282540768385
1738772129007386400,0.909386474609375,0.000007412862032651901,-0.00014876504428684711,0.0006350454641506076
1738772129017377300,0.919377197265625,0.0004803902702406049,-0.0006126875523477793,-0.002713879570364952
1738772129027368400,0.929368408203125,-0.00008970499038696289,0.00028036627918481827,0.00038594153011217713
1738772129037359400,0.939359375,-0.00040049589006230235,0.00025080516934394836,0.001114848768338561
1738772129047350500,0.9493505859375,-0.0005582505837082863,0.0027174390852451324,0.0014966076705604792
1738772129057341400,0.959341552734375,0.00006279861554503441,0.0024519218131899834,0.0007176330545917153
1738772129067332600,0.96933251953125,-0.0005251429392956197,-0.002461999887600541,-0.0016031861305236816
1738772129077324300,0.97932421875,0.00018911680672317743,-0.00046303123235702515,0.001677562016993761
1738772129087315500,0.9893154296875,-0.0009171720594167709,-0.00016285618767142296,0.002638951875269413
1738772129097306400,0.999306396484375,0.0009518343722447753,0.0011175915133208036,-0.000565363559871912
1738772129107297500,1.009297607421875,-0.0004683347069658339,-0.00041848747059702873,-0.0003163731889799237
1738772129117288400,1.019288330078125,0.00033700524363666773,-0.0006421930156648159,-0.00020691727695520967
1738772129127279600,1.029279541015625,-0.000650473521091044,0.0021788999438285828,0.001867447281256318
1738772129137270500,1.0392705078125,0.0016925756353884935,0.0007879310287535191,0.002132698195055127
1738772129147262200,1.04926220703125,0.0004071256844326854,-0.00271531636826694,-0.0008668098598718643
1738772129157253400,1.05925341796875,-0.00023815815802663565,-0.0018098416039720178,0.00040644744876772165
1738772129167244500,1.06924462890625,-0.0011452753096818924,0.0018601017072796822,0.0011801871005445719
1738772129177235500,1.0792353515625,0.0011173463426530361,0.0006433036178350449,-0.0015008170157670975
1738772129187226600,1.0892265625,0.00005076662637293339,-0.00148328160867095,-0.0008125689346343279
1738772129197217500,1.099217529296875,0.0017171065555885434,-0.000537593150511384,-0.0010277524124830961
1738772129207209500,1.10920947265625,-0.0013589607551693916,0.0019720448181033134,0.001849346561357379
1738772129217200600,1.11920068359375,-0.0004833134007640183,0.0001381922047585249,-0.000026317749870941043
1738772129227191600,1.129191650390625,-0.00040606915717944503,-0.0007700617425143719,-0.001970204059034586
1738772129237182500,1.139182373046875,-0.00026838365010917187,-0.0005032129120081663,-0.000460191658930853
1738772129247173600,1.149173583984375,-0.00045430887257680297,0.0024131927639245987,0.0010929876007139683
1738772129257164500,1.15916455078125,0.0003406447358429432,0.0013724295422434807,-0.0012295552296563983
1738772129267155500,1.169155517578125,-0.0002444479614496231,-0.00008308980613946915,-0.0004984841216355562
1738772129277147600,1.179147705078125,0.00018458731938153505,-0.0008892286568880081,-0.0010452310089021921
1738772129287138600,1.189138671875,-0.0009811895433813334,0.000297964783385396,-0.0002797789638862014
1738772129297129500,1.19912939453125,0.0007051241118460894,0.0008670820388942957,0.0011450122110545635
1738772129307120600,1.20912060546875,-0.0006972778937779367,-0.000949399545788765,-0.0015865132445469499
1738772129317111600,1.219111572265625,0.0006782448617741466,-0.0012657830957323313,0.00009687079000286758
1738772129327102500,1.2291025390625,0.0006675310432910919,-0.00017012935131788254,-0.0004218209069222212
1738772129337093400,1.23909326171875,-0.0022582178935408592,0.0004751544911414385,-0.0008577803964726627
1738772129347085600,1.24908544921875,0.0019378926372155547,-0.0019108107080683112,-0.00018596829613670707
1738772129357076500,1.259076416015625,0.00008406618144363165,0.000008795876055955887,-0.00020967042655684054
1738772129367067400,1.2690673828125,0.0010640340624377131,-0.000558760017156601,-0.00017760481568984687
1738772129377058600,1.27905859375,0.0000387170584872365,-0.00041042198427021503,0.0012621000641956925
1738772129387049500,1.289049560546875,0.0011013204930350184,0.0006040388252586126,0.0006132952985353768
1738772129397040400,1.299040283203125,0.0010986573761329055,-0.00044178450480103493,-0.0005776702892035246
1738772129407031600,1.309031494140625,0.001981145702302456,0.00016712257638573647,0.0001508590066805482
1738772129417022500,1.3190224609375,-0.0003701591631397605,-0.0005828235298395157,0.00200042431242764
1738772129427014400,1.329014404296875,-0.00021542946342378855,-0.0012078674044460058,0.0003798909019678831
1738772129437005600,1.339005615234375,-0.0004022979410365224,0.0001582948025316,-0.0017070434987545013
1738772129446996500,1.34899658203125,0.001282178913243115,-0.0008889012970030308,-0.0015750594902783632
1738772129456987400,1.3589873046875,0.0008888301672413945,-0.000592491589486599,-0.0006376267410814762
1738772129466978600,1.368978515625,-0.00014881370589137077,0.0006465862970799208,-0.00020214033429510891
1738772129476969500,1.378969482421875,0.0010962140513584018,0.000855910824611783,-0.000572586024645716
1738772129486960400,1.38896044921875,0.0011603242019191384,-0.0009997624438256025,-0.0011402417439967394
1738772129496952600,1.39895263671875,-0.000055941520258784294,-0.0006106747314333916,-0.0005892337067052722
1738772129506943500,1.408943603515625,-0.000028782756999135017,0.000259168678894639,0.0023728925734758377
1738772129516934400,1.418934326171875,-0.00008870381861925125,0.002037361264228821,0.00012252130545675755
1738772129526925600,1.428925537109375,0.0007251659408211708,-0.0016038320027291775,-0.00018402919522486627
1738772129536916500,1.43891650390625,-0.0004916322650387883,-0.0006586762610822916,-0.001089503988623619
1738772129546907400,1.448907470703125,0.00017059792298823595,0.0007711946964263916,-0.0012563725467771292
1738772129556898300,1.458898193359375,-0.0003196899779140949,-0.0006693091709166765,-0.0009698164649307728
1738772129566890500,1.468890380859375,-0.0016095603350549936,-0.00046393508091568947,0.0005634486442431808
1738772129576881400,1.47888134765625,0.0007614518981426954,-0.000207206467166543,-0.0013961053919047117
1738772129586872300,1.488872314453125,-0.00019135349430143833,0.0006895964033901691,-0.00003197966725565493
1738772129596863500,1.498863525390625,-0.0013498285552486777,0.0011601769365370274,0.0001421910710632801
1738772129606854400,1.5088544921875,0.0003969765966758132,-0.00011148746125400066,0.00044925237307325006
1738772129616845300,1.51884521484375,-0.0008155606337822974,-0.0023639891296625137,0.000026342342607676983
1738772129626836500,1.52883642578125,0.00016338215209543705,0.001313141081482172,0.00184950465336442
1738772129636828400,1.538828369140625,0.0002107864711433649,0.003714513499289751,0.0015914442483335733
1738772129646819300,1.5488193359375,0.00015474343672394753,-0.0027059358544647694,-0.0016805685590952635
1738772129656810500,1.558810546875,-0.0001416663872078061,-0.00386760663241148,-0.0006789535982534289
1738772129666801400,1.568801513671875,0.00008135137613862753,0.0017711366526782513,0.0019120076904073358
1738772129676792300,1.578792236328125,-0.0010965646943077445,0.000521315261721611,0.0014084038557484746
1738772129686783500,1.588783447265625,0.0004056424368172884,-0.0008577627595514059,0.0006480803713202477
1738772129696774400,1.5987744140625,0.0015324258711189032,-0.0031960182823240757,0.0011277156881988049
1738772129706766300,1.608766357421875,-0.0009642016375437379,0.000595675315707922,0.00027484167367219925
1738772129716757500,1.618757568359375,0.0009932216489687562,0.0038761571049690247,-0.00048762132064439356
1738772129726748400,1.62874853515625,-0.0012484731851145625,-0.0015936271520331502,-0.00015445065218955278
1738772129736739300,1.6387392578125,-0.0005073154461570084,-0.0025726051535457373,-0.00011024216655641794
1738772129746730500,1.64873046875,-0.0013634072383865714,0.0010358116123825312,0.0005106410826556385
1738772129756721400,1.658721435546875,0.000315449433401227,0.002663269406184554,0.0010861502960324287
1738772129766712300,1.66871240234375,0.0004529444267973304,0.0004384468775242567,-0.0008552391082048416
1738772129776704500,1.67870458984375,0.00014987669419497252,-0.0016321607399731874,-0.0012797469971701503
1738772129786695400,1.6886953125,-0.000039946287870407104,-0.0005361384246498346,0.0008993820520117879
1738772129796686300,1.698686279296875,0.00008255918510258198,0.00323809334076941,0.0012972583062946796
1738772129806677200,1.70867724609375,-0.0009014533134177327,0.0009155699517577887,-0.0009767882293090224
1738772129816668400,1.71866845703125,0.0007398527814075351,-0.0032786421943455935,-0.0020119589753448963
1738772129826659300,1.728659423828125,-0.0025507709942758083,-0.0014529202599078417,-0.0019260509870946407
1738772129836650500,1.738650390625,-0.0017600784776732326,-0.0004310654476284981,0.0008353806915692985
1738772129846641700,1.7486416015625,0.0007211500778794289,0.0012354960199445486,-0.0011778166517615318
1738772129856633300,1.75863330078125,-0.0008599686552770436,-0.0022401956375688314,-0.0018486668122932315
1738772129866624300,1.768624267578125,0.0001993462210521102,-0.0016637350199744105,0.00031837171991355717
1738772129876615400,1.778615478515625,0.000008663861081004143,0.0037307641468942165,-0.0009524887427687645
1738772129886606300,1.7886064453125,0.000604906352236867,0.0028328595217317343,-0.0005032906192354858
1738772129896597500,1.798597412109375,0.0007788107031956315,-0.004000811837613583,-0.0002457629598211497
1738772129906588700,1.808588623046875,0.002409587148576975,-0.0017864168621599674,-0.0005155468243174255
1738772129916579600,1.81857958984375,0.0018937328131869435,0.00404803641140461,0.0008290831465274096
1738772129926571300,1.8285712890625,-0.00045531842624768615,0.0006921354215592146,-0.0007358512375503778
1738772129936562400,1.8385625,-0.001088618184439838,-0.0009789979085326195,-0.0012794024078175426
1738772129946553300,1.84855322265625,0.00005087791942059994,-0.000979274045675993,0.0028429580852389336
1738772129956544500,1.85854443359375,0.0005515521625056863,0.0012447317130863667,0.00023998436518013477
1738772129966535700,1.86853564453125,-0.0012615140294656157,0.003056742949411273,-0.0016310384962707758
1738772129976526600,1.878526611328125,0.0006146829109638929,-0.0024581309407949448,-0.0015154574066400528
1738772129986517500,1.888517578125,-0.0006072054384276271,-0.0009201797656714916,-0.0010294060921296477
1738772129996509200,1.89850927734375,0.0015512865502387285,0.0017142188735306263,0.0017906151479110122
1738772130006500000,1.9085,0.001477056066505611,0.0013195173814892769,0.0011432224418967962
1738772130016491000,1.918490966796875,-0.0002990059438161552,-0.0011489666067063808,-0.0018496380653232336
1738772130026482200,1.928482177734375,0.0011229781666770577,-0.0006237474735826254,-0.0013259801780804992
1738772130036473000,1.93847314453125,0.0013352319365367293,0.00029424414969980717,0.00006951627437956631
1738772130046464000,1.948464111328125,0.0003639127826318145,0.001700456952676177,0.0018967578653246164
1738772130056456200,1.958456298828125,0.0003591191489249468,-0.00012007984332740307,-0.0009195350576192141
1738772130066447000,1.968447021484375,0.0004730630898848176,-0.002381274476647377,0.0004884634981863201
1738772130076438000,1.97843798828125,0.001098905922845006,-0.00020627095364034176,-0.00013631407637149096
1738772130086429000,1.988428955078125,-0.0004957402707077563,0.0012171906419098377,-0.0007266909233294427
1738772130096420000,1.998420166015625,-0.0008645880734547973,0.0013431580737233162,0.0012661524815484881
1738772130106411000,2.008410888671875,0.0009779701940715313,0.0006149890832602978,-0.000321797386277467
1738772130116402000,2.01840185546875,-0.0006007517804391682,-0.001232445938512683,-0.001044579315930605
1738772130126394000,2.02839404296875,-0.0011388321872800589,0.0012342901900410652,0.0004738119023386389
1738772130136385000,2.038385009765625,0.00003508920781314373,0.000028144801035523415,-0.0005714788567274809
1738772130146376000,2.0483759765625,0.0002656902652233839,-0.000756366178393364,-0.0007064267410896719
1738772130156367000,2.0583671875,0.000251575605943799,-0.0016804831102490425,-0.0017410648288205266
1738772130166358000,2.06835791015625,-0.0009947741637006402,-0.00048343557864427567,-0.000832762336358428
1738772130176349000,2.078348876953125,0.0011437443317845464,0.0003578572068363428,-0.00007163090049289167
1738772130186340000,2.088340087890625,-0.0007861204212531447,-0.0006043720059096813,-0.0018838971154764295
1738772130196332000,2.09833203125,0.00007914064917713404,-0.0012512539979070425,-0.0013043931685388088
1738772130206323000,2.108322998046875,0.0010141846723854542,-0.0013582955580204725,-0.0003995330189354718
1738772130216314000,2.118314208984375,-0.0022769495844841003,0.0016342985909432173,0.00010700023267418146
1738772130226305000,2.128304931640625,-0.0008293803548440337,0.002586814109236002,-0.0004560774832498282
1738772130236296000,2.1382958984375,0.0011890293098986149,-0.0013546643313020468,-0.0019604971166700125
1738772130246287000,2.148287109375,0.00024945707991719246,-0.00037467898800969124,-0.00030127319041639566
1738772130256278000,2.158278076171875,0.0009890168439596891,-0.0008639015723019838,0.0006135225994512439
1738772130266270000,2.16827001953125,0.00001733319368213415,0.00046841753646731377,-0.001307573402300477
1738772130276261000,2.17826123046875,-0.0013898811303079128,-0.0014141711872071028,0.00007673774962313473
1738772130286252000,2.188251953125,0.0009385404409840703,-0.0025136321783065796,0.0023868426214903593
1738772130296243000,2.198242919921875,-0.0010380576131865382,-0.0004960212390869856,0.0001455262245144695
1738772130306233900,2.20823388671875,-0.0009526789654046297,0.0013394274283200502,0.0008458772790618241
1738772130316225000,2.21822509765625,0.0007163240807130933,-0.0007602088153362274,-0.0021967843640595675
1738772130326216000,2.2282158203125,0.0020077908411622047,-0.0006260147783905268,0.00016840070020407438
1738772130336208100,2.2382080078125,-0.0011456580832600594,0.0005207424983382225,-0.0000417226692661643
1738772130346199000,2.248198974609375,-0.000533556449227035,0.0010449860710650682,0.0001557334908284247
1738772130356190000,2.25818994140625,-0.00007735693361610174,-0.00033213477581739426,-0.0017050171736627817
1738772130366180900,2.268180908203125,0.00033474701922386885,-0.00026877294294536114,-0.0018596017034724355
1738772130376172000,2.278172119140625,-0.00019761885050684214,0.0006292450707405806,0.00011886071297340095
1738772130386163000,2.288162841796875,0.00014360283967107534,0.0009374336805194616,0.000005275505827739835
1738772130396155000,2.29815478515625,-0.00013842585030943155,0.0006607312243431807,-0.0005766251706518233
1738772130406146000,2.30814599609375,0.00015807256568223238,-0.0011467321310192347,-0.0016375405248254538
1738772130416137000,2.318136962890625,-0.00114581105299294,0.0007097572088241577,0.0001459784689359367
1738772130426128000,2.3281279296875,0.0018955396953970194,-0.00002448377199470997,0.0004390873946249485
1738772130436119000,2.338119140625,-0.0007612298941239715,0.0010764668695628643,0.0015786541625857353
1738772130446110000,2.34810986328125,-0.0010635466314852238,-0.000556490384042263,-0.0013160842936486006
1738772130456100900,2.358100830078125,-0.00016606133431196213,-0.0006608862895518541,0.0005132409860379994
1738772130466092000,2.368092041015625,-0.0008180609438568354,0.0005862663965672255,0.0007645439472980797
1738772130476084000,2.378083984375,0.00012256752233952284,-0.0008270731195807457,0.0005285878432914615
1738772130486075000,2.388074951171875,-0.001504178624600172,-0.001982541289180517,-0.00016237208910752088
1738772130496066000,2.398066162109375,-0.0006727396976202726,0.00011389912106096745,0.0003862390876747668
1738772130506057000,2.408056884765625,0.000525397015735507,0.00035950797609984875,0.0005413168692030013
1738772130516048000,2.4180478515625,-0.0014655821723863482,0.0014410177245736122,0.000207356468308717
1738772130526038800,2.428038818359375,-0.00014279910828918219,-0.00026277825236320496,-0.000565660186111927
1738772130536031000,2.438031005859375,0.0015975766582414508,-0.0005509322509169579,-0.0014034906635060906
1738772130546022000,2.44802197265625,0.0024168386589735746,0.002671755850315094,-0.0008940534899011254
1738772130556013000,2.458012939453125,0.0005779259372502565,0.0001342957839369774,0.000030329712899401784
1738772130566004000,2.46800390625,-0.0012133498676121235,-0.0006415415555238724,0.0009803667198866606
1738772130575995000,2.477994873046875,0.0014908239245414734,-0.0009653819724917412,-0.00030940218130126595
1738772130585985800,2.48798583984375,0.0012005068128928542,-0.0002553816884756088,0.00014264674973674119
1738772130595977000,2.49797705078125,0.00001753075048327446,-0.0004034533631056547,-0.0006262078532017767
1738772130605969000,2.507968994140625,-0.00005008792504668236,0.0013488358817994595,-0.0008612275123596191
1738772130615959800,2.517959716796875,-0.0010208101011812687,-0.0007292286027222872,-0.0014849398285150528
1738772130625951000,2.527950927734375,-0.0018252201844006777,0.00132788997143507,0.000929042580537498
1738772130635942000,2.53794189453125,-0.000025456072762608528,0.0004354645498096943,0.0010922943474724889
1738772130645932800,2.547932861328125,-0.000019562547095119953,0.0024292785674333572,0.001284104655496776
1738772130655924000,2.557924072265625,0.00022677984088659286,-0.0010192487388849258,0.0001754306722432375
1738772130665915100,2.5679150390625,-0.0009490412194281816,-0.000053157564252614975,0.00044209358748048544
1738772130675906800,2.57790673828125,0.00006322632543742657,0.0008288812823593616,0.000300946063362062
1738772130685898000,2.58789794921875,-0.0005366237601265311,0.00036483537405729294,-0.00026432352024130523
1738772130695889000,2.597888916015625,-0.000652204907964915,-0.00001439894549548626,-0.0006571398116648197
1738772130705879800,2.6078798828125,-0.00023536075605079532,0.0005747065879404545,-0.000030170020181685686
1738772130715871000,2.61787109375,0.0010381628526374698,0.00014114403165876865,-0.00042911156197078526
1738772130725862100,2.627862060546875,-0.0010198717936873436,-0.0011368265841156244,-0.0007529164431616664
1738772130735853000,2.63785302734375,-0.0016537042101845145,0.00023949495516717434,0.000685190549120307
1738772130745845000,2.647844970703125,-0.0004711216315627098,-0.0004987178836017847,-0.00010649856994859874
1738772130755836000,2.6578359375,-0.0011417055502533913,0.0003039587754756212,-0.00009904171747621149
1738772130765826800,2.667826904296875,0.0006121916230767965,-0.00012551061809062958,-0.0012022098526358604
1738772130775818000,2.67781787109375,-0.0006538751185871661,-0.0006725238636136055,0.00040340988198295236
1738772130785809200,2.68780908203125,-0.00031836587004363537,0.0009520684834569693,0.000851002405397594
1738772130795800000,2.697800048828125,0.0009876483818516135,0.0021896392572671175,0.0010430162074044347
1738772130805791000,2.707791015625,0.0006027158815413713,0.00027307565324008465,0.0007581490790471435
1738772130815783000,2.717782958984375,-0.0013698874972760677,-0.0006196161266416311,0.0001600031100679189
1738772130825774000,2.727774169921875,-0.0000978478929027915,0.0010641152039170265,0.0012456310214474797
1738772130835765000,2.737764892578125,-0.00045018416130915284,0.0010079224593937397,0.0010019518667832017
1738772130845756200,2.747756103515625,0.0005813988391309977,0.00014120317064225674,-0.00029003899544477463
1738772130855747000,2.7577470703125,-0.0002835958730429411,-0.002669230569154024,-0.00029909375007264316
1738772130865738000,2.767738037109375,-0.00017658562865108252,0.0013516894541680813,-0.000274641381110996
1738772130875729200,2.777729248046875,0.0011533970246091485,0.0017229337245225906,0.0013578763464465737
1738772130885721000,2.78772119140625,0.0009825450833886862,0.0007062868680804968,-0.0006286805146373808
1738772130895712000,2.7977119140625,-0.0008406550041399896,-0.00023354263976216316,0.00018358364468440413
1738772130905703200,2.807703125,-0.0003292741603218019,0.0014589866623282433,-0.00015574869757983834
1738772130915694000,2.817694091796875,0.000325064524076879,0.0004379306919872761,0.00018460326828062534
1738772130925685000,2.82768505859375,0.000036285375244915485,-0.00029013236053287983,-0.00027689742273651063
1738772130935676200,2.83767626953125,0.0010256496025249362,-0.0007916055619716644,-0.0005469419411383569
1738772130945667000,2.8476669921875,0.0014990586787462234,-0.0003134866710752249,-0.0005831366870552301
1738772130955659000,2.857658935546875,0.0009448549244552851,-0.0009678252972662449,0.00026188435731455684
1738772130965650200,2.867650146484375,0.001019494840875268,0.0010028919205069542,0.0017974918009713292
1738772130975641000,2.87764111328125,0.0012565162032842636,0.0009208666160702705,0.0017580768326297402
1738772130985632000,2.887632080078125,-0.00043027574429288507,0.0006469893269240856,-0.002308197319507599
1738772130995623200,2.897623046875,-0.0008878068183548748,-0.00016873679123818874,-0.0003204139939043671
1738772131005614300,2.9076142578125,-0.000924033229239285,-0.0005053046625107527,-0.0002023008419200778
1738772131015605200,2.917605224609375,0.0011276659788563848,0.0017943347338587046,0.0004951810697093606
1738772131025597200,2.92759716796875,0.0010952521115541458,-0.0005870983004570007,-0.0008747099200263619
1738772131035588400,2.93758837890625,-0.0005966540775261819,-0.0016688744071871042,-0.00014500382530968636
1738772131045579300,2.947579345703125,0.0009032635716721416,-0.003305402584373951,-0.0010953713208436966
1738772131055570200,2.957570068359375,-0.00035987363662570715,0.0014326274394989014,0.000456719018984586
1738772131065561300,2.967561279296875,0.00039033277425915003,0.0016371749807149172,0.0014322306960821152
1738772131075552300,2.97755224609375,0.0006028530187904835,0.0004768355283886194,0.0004639054532162845
1738772131085543200,2.987543212890625,-0.00004322826862335205,-0.000558092724531889,-0.0016914806328713894
1738772131095535400,2.997535400390625,-0.00036840024404227734,0.0016688425093889236,-0.0017149164341390133
1738772131105526300,3.0075263671875,-0.0010743505554273725,0.0010386393405497074,0.00021030721836723387
1738772131115517200,3.01751708984375,0.00006494973786175251,0.0013749967329204082,0.000426289567258209
1738772131125508400,3.02750830078125,0.0002820307854562998,0.0011930079199373722,0.0005092152860015631
1738772131135499300,3.037499267578125,0.00020027172286063433,0.0005296142771840096,0.00006553262937813997
1738772131145490200,3.047490234375,-0.00033871125197038054,0.00018063304014503956,0.0010520496871322393
1738772131155481000,3.057481201171875,0.0016397510189563036,0.0008916971273720264,-0.00016900971240829676
1738772131165473300,3.067473388671875,0.00042386946734040976,0.00124368816614151,0.0016075565945357084
1738772131175464200,3.077464111328125,0.00030722294468432665,-0.001040771370753646,0.0008608062053099275
1738772131185455000,3.087455078125,0.000255693681538105,-0.0005255597643554211,-0.0003559015749488026
1738772131195446300,3.0974462890625,0.000907102832570672,0.002414570190012455,0.00042067619506269693
1738772131205437200,3.107437255859375,-0.0004221516428515315,0.001602216623723507,0.00012619671178981662
1738772131215428000,3.117427978515625,0.00010595319326967001,-0.0017677475698292255,-0.00018512683163862675
1738772131225420300,3.127420166015625,-0.0011263187043368816,0.0013319947756826878,0.0009036033297888935
1738772131235411200,3.1374111328125,-0.0014522896381095052,0.0010582217946648598,0.0007054642192088068
1738772131245402000,3.147402099609375,0.000993133638985455,0.00070903729647398,-0.000952612201217562
1738772131255393300,3.157393310546875,0.000007764087058603764,-0.0003511672839522362,0.0011427629506215453
1738772131265384200,3.16738427734375,0.000707966391928494,-0.0003471511881798506,0.0007944148383103311
1738772131275375000,3.177375,0.0017061191610991955,0.0012755128554999828,-0.0003605981182772666
1738772131285366300,3.1873662109375,0.0011520360130816698,0.0001774413976818323,0.0002889532479457557
1738772131295357200,3.197357177734375,-0.0013510689605027437,0.0006227216217666864,-0.0006383594591170549
1738772131305349000,3.20734912109375,-0.0008200983284041286,0.0013535493053495884,0.001156877726316452
1738772131315340300,3.21734033203125,0.0010805996134877205,0.0003079921007156372,0.0007115972111932933
1738772131325331200,3.227331298828125,-0.000827054725959897,0.0008014552295207977,0.000811358739156276
1738772131335322000,3.237322021484375,-0.00006672216113656759,-0.00009656278416514397,-0.00017401085642632097
1738772131345313300,3.247313232421875,-0.00015180872287601233,0.0001769266091287136,0.00007880081830080599
1738772131355304200,3.25730419921875,-0.001248498447239399,-0.00018792646005749702,0.0008868038421496749
1738772131365295000,3.267295166015625,0.0010080492356792092,0.0007886101957410574,0.0013445887016132474
1738772131375287300,3.277287353515625,-0.001306770252995193,-0.0013914534356445074,-0.0008778191986493766
1738772131385278200,3.2872783203125,-0.001446305774152279,0.0004388340748846531,0.0013322308659553528
1738772131395269000,3.29726904296875,-0.0009829157497733831,0.0007802513428032398,0.00019213159976061434
1738772131405260000,3.307260009765625,0.000019309460185468197,0.0002812035381793976,0.0002860408858396113
1738772131415251200,3.317251220703125,-0.0013988238060846925,0.00017201388254761696,0.001287922146730125
1738772131425242000,3.3272421875,-0.000706039892975241,-0.0010888779070228338,0.00031937152380123734
1738772131435233000,3.33723291015625,-0.00011481810361146927,-0.0005405331030488014,-0.000895562581717968
1738772131445225200,3.34722509765625,-0.0025637121871113777,0.000498493667691946,-0.0007461465429514647
1738772131455216000,3.357216064453125,0.0005516537930816412,0.0014790697023272514,-0.0005448115989565849
1738772131465207000,3.36720703125,0.0008100727573037148,-0.0009007926564663649,-0.0005062159616500139
1738772131475198200,3.3771982421875,0.0002018067752942443,0.00012905173934996128,-0.0005618759896606207
1738772131485189000,3.387189208984375,-0.0005934913642704487,0.0003969490062445402,0.0002972714719362557
1738772131495180000,3.397179931640625,0.0009977474110201001,0.000979915028437972,0.0008059352403506637
1738772131505171200,3.407171142578125,0.0008457140065729618,-0.0006761057302355766,-0.000894667231477797
1738772131515163100,3.4171630859375,-0.0007053110166452825,-0.0018186018569394946,-0.0000030408846214413643
1738772131525154000,3.427154052734375,0.002479296177625656,0.0012858035042881966,0.0021748943254351616
1738772131535145200,3.437145263671875,0.0004073570016771555,-0.0006332702469080687,-0.0003029106301255524
1738772131545136000,3.44713623046875,0.00017835106700658798,-0.001467124093323946,-0.0015961823519319296
1738772131555127000,3.457126953125,-0.0005806497647427022,-0.0010937489569187164,0.00029759149765595794
1738772131565118200,3.4671181640625,0.00017455453053116798,0.00025107082910835743,0.0011258702725172043
1738772131575109000,3.477109130859375,0.0002730914857238531,0.0005418879445642233,0.0012752737384289503
1738772131585101000,3.48710107421875,-0.0004125266568735242,0.000012150267139077187,-0.0014316929737105966
1738772131595092200,3.49709228515625,0.0013363711768761277,-0.0009266140405088663,-0.000389065477065742
1738772131605083100,3.507083251953125,0.0010583430994302034,0.0004164697602391243,0.0002645716303959489
1738772131615074000,3.517073974609375,0.0009206575341522694,0.002084940206259489,0.0005165066686458886
1738772131625065200,3.527065185546875,0.000360079575330019,0.0003622826188802719,0.0010412477422505617
1738772131635056400,3.537056396484375,0.00017152773216366768,-0.0021267079282552004,0.00020581402350217104
1738772131645047300,3.54704736328125,-0.0007968352292664349,-0.001269676024094224,0.0001979770022444427
1738772131655039200,3.557039306640625,0.00015817431267350912,0.00021903100423514843,-0.0009096316643990576
1738772131665030100,3.567030029296875,-0.0005805202526971698,-0.000397989759221673,0.0002714840229600668
1738772131675021000,3.57702099609375,-0.0006135434377938509,-0.0010757644195109606,0.0005050432519055903
1738772131685012200,3.58701220703125,0.00022159353829920292,-0.0002854603808373213,0.0003460785374045372
1738772131695003400,3.59700341796875,0.00008950068149715662,0.0005015034694224596,0.001586312660947442
1738772131704994300,3.606994384765625,0.00044643215369433165,0.00007599359378218651,0.0005070021725259721
1738772131714985200,3.616985107421875,-0.0007682356517761946,-0.0002577004488557577,-0.0005851602181792259
1738772131724977200,3.62697705078125,0.0002692621201276779,-0.00008565536700189114,-0.0014648267533630133
1738772131734968000,3.636968017578125,0.0004615423968061805,0.0012405987363308668,-0.00046321185072883964
1738772131744959200,3.646959228515625,-0.002170172519981861,0.0003855242393910885,0.00015439678099937737
1738772131754950400,3.656950439453125,-0.0007989107980392873,-0.00244834553450346,-0.0008570717764087021
1738772131764941300,3.66694140625,-0.0008284647483378649,-0.0004162457771599293,0.0009808605536818504
1738772131774932200,3.67693212890625,-0.00048571592196822166,0.001368604600429535,0.0007427739328704774
1738772131784923400,3.68692333984375,0.0013317334232851863,0.0021454044617712498,-0.00048267326201312244
1738772131794914300,3.696914306640625,0.0007753990357741714,-0.0005015113856643438,-0.00011728756362572312
1738772131804906200,3.70690625,0.0004315720871090889,0.000047929584980010986,-0.0010398048907518387
1738772131814897400,3.7168974609375,0.0013716679532080889,0.0007368894293904305,-0.00009704595140647143
1738772131824888300,3.726888427734375,0.000868819304741919,0.0005691822152584791,0.0004239687114022672
1738772131834879200,3.736879150390625,0.00047440524213016033,-0.0003554674331098795,-0.0004237154498696327
1738772131844870100,3.7468701171875,-0.0007347719511017203,-0.0004970177542418242,-0.0010382633190602064
1738772131854861300,3.756861328125,0.00010439008474349976,-0.00045067863538861275,-0.00035116777871735394
1738772131864852200,3.766852294921875,-0.001966803800314665,0.0007640980184078217,-0.0009499859879724681
1738772131874844400,3.776844482421875,0.0001887588296085596,-0.0011073052883148193,0.0005280683981254697
1738772131884835300,3.78683544921875,-0.00009876699186861515,-0.0002815492916852236,-0.0001722538290778175
1738772131894826200,3.796826171875,0.0009427954209968448,-0.0005974001251161098,0.0008530631312169135
1738772131904817200,3.806817138671875,-0.00021314853802323341,0.0014069650787860155,0.0002031228505074978
1738772131914808300,3.816808349609375,-0.00022033904679119587,-0.00044632889330387115,-0.0002168576611438766
1738772131924799200,3.82679931640625,-0.0011609670473262668,0.0008244391065090895,0.0008941682754084468
1738772131934790100,3.8367900390625,0.00135864969342947,-0.002302644308656454,0.0009213325101882219
1738772131944782300,3.8467822265625,-0.0018614328000694513,0.002250290010124445,-0.00010826833022292703
1738772131954773200,3.856773193359375,0.00019985379185527563,0.0009192419238388538,-0.0004787140351254493
1738772131964764200,3.86676416015625,-0.000015150988474488258,-0.000879684230312705,0.00011724550859071314
1738772131974755300,3.87675537109375,-0.000005297362804412842,0.00020661926828324795,0.00044801010517403483
1738772131984746200,3.886746337890625,-0.0007927940459921956,0.000173595966771245,0.0011489541502669454
1738772131994737000,3.89673681640625,0.00005419773515313864,-0.0008780332282185555,-0.00026953438646160066
1738772132004728000,3.90672802734375,-0.00004561163950711489,-0.0004266647156327963,-0.0007974675390869379
1738772132014720000,3.916719970703125,0.0008119263220578432,-0.0014056426007300615,0.00034263168345205486
1738772132024711000,3.9267109375,-0.00011846236884593964,0.0010175372008234262,0.0010607466101646423
1738772132034702000,3.9367021484375,0.00013640220277011395,-0.00018301582895219326,0.0008045505383051932
1738772132044693000,3.94669287109375,-0.0008534948574379086,-0.0019444306381046772,-0.000972310546785593
1738772132054684000,3.956683837890625,0.0010769182117655873,0.0007590688765048981,0.00027366215363144875
1738772132064675000,3.966675048828125,-0.0015785624273121357,0.0009398311376571655,0.0008328108233399689
1738772132074666000,3.976666015625,0.00003850890789180994,-0.0006026716437190771,-0.000419673859141767
1738772132084658000,3.986657958984375,-0.00032184389419853687,0.000357205281034112,0.0005086712189950049
1738772132094649000,3.996649169921875,0.0015263898530974984,-0.0009389552287757397,-0.0007587271393276751
1738772132104640000,4.006639892578125,-0.0006109296227805316,-0.0004477761685848236,-0.0006519570015370846
1738772132114631000,4.016630859375,0.0013904358493164182,0.0014420030638575554,-0.00015740797971375287
1738772132124622000,4.0266220703125,0.00015059916768223047,-0.0008556591346859932,-0.00012714210606645793
1738772132134613000,4.036613037109375,0.0006374249933287501,-0.000497463857755065,0.0022627785801887512
1738772132144604000,4.04660400390625,-0.0005150580545887351,-0.0010086868423968554,0.0019089268753305078
1738772132154596000,4.05659619140625,-0.000479105394333601,0.00026563601568341255,-0.0020519928075373173
1738772132164587000,4.0665869140625,-0.00007552839815616608,0.00007601827383041382,0.0005458946106955409
1738772132174578000,4.076577880859375,0.00012340967077761889,-0.0007841826882213354,-0.0016264459118247032
1738772132184568800,4.08656884765625,-0.00016449589747935534,0.00034540658816695213,0.0015809503383934498
1738772132194560000,4.09656005859375,0.0005633460823446512,-0.00048283650539815426,-0.0018204387743026018
1738772132204551000,4.106551025390625,0.0005679262103512883,0.00031517469324171543,-0.001040710019879043
1738772132214541800,4.116541748046875,-0.0010219808900728822,-0.0006930979434400797,-0.0007035537855699658
1738772132224534000,4.126533935546875,0.0008398807840421796,0.00007371697574853897,0.00010604262934066355
1738772132234525000,4.13652490234375,0.0011738411849364638,0.00027451920323073864,0.00011056999210268259
1738772132244515800,4.146515869140625,-0.00020523392595350742,-0.0008463207632303238,-0.0008232679683715105
1738772132254507000,4.156507080078125,-0.00018099916633218527,-0.00039890967309474945,-0.001333795953541994
1738772132264498000,4.166497802734375,-0.0008406802080571651,-0.001405784860253334,-0.00097260921029374
1738772132274488800,4.17648876953125,0.00034282857086509466,-0.0007578376680612564,0.001844748854637146
1738772132284480000,4.18647998046875,0.0014821839286014438,0.0006025210022926331,0.0014947090530768037
1738772132294472000,4.196471923828125,-0.0005410196026787162,-0.0005141426809132099,-0.0011330319102853537
1738772132304462800,4.206462890625,0.00040290667675435543,0.00018428475596010685,-0.0004731813969556242
1738772132314454000,4.2164541015625,-0.000303896376863122,0.0004676452372223139,0.001912478357553482
1738772132324445000,4.22644482421875,-0.000012417673133313656,0.0006901072338223457,0.0012334338389337063
1738772132334435800,4.236435791015625,-0.0008742165518924594,0.0002701268531382084,-0.0012201364152133465
1738772132344427000,4.246427001953125,0.00026045378763228655,-0.0004037588369101286,-0.00017679990560282022
1738772132354418000,4.25641796875,0.0017337144818156958,0.0021858990658074617,0.0008325381204485893
1738772132364409000,4.2664091796875,0.0009509311057627201,0.00033350707963109016,-0.0009626845712773502
1738772132374401000,4.276401123046875,-0.0006704013794660568,-0.000961321871727705,-0.0006785253062844276
1738772132384392000,4.286391845703125,-0.0006365763256326318,0.0015634619630873203,-0.0006440049619413912
1738772132394382800,4.2963828125,0.0004918050253763795,0.0007714377716183662,-0.0010693117510527372
1738772132404373800,4.306373779296875,0.0006558148888871074,0.00012363633140921593,0.00016059677000157535
1738772132414365000,4.316364990234375,-0.000017166021279990673,0.0003356242086738348,-0.0008814982138574123
1738772132424356000,4.326356201171875,0.0012509997468441725,-0.001167799113318324,0.00011042470578104258
1738772132434347000,4.336346923828125,-0.000419334857724607,0.0008844328112900257,-0.0010344681795686483
1738772132444338200,4.346338134765625,-0.0005899237003177404,-0.0000632281880825758,-0.0008611015509814024
1738772132454329000,4.3563291015625,0.0011464572744444013,0.00032719108276069164,-0.0018986690556630492
1738772132464321000,4.366321044921875,-0.0002910083858296275,-0.0010868054814636707,-0.0009724766132421792
1738772132474312200,4.376312255859375,-0.0007227067835628986,0.0004226742312312126,0.00037774606607854366
1738772132484303000,4.38630322265625,-0.0010843758936971426,0.0003577794414013624,0.00010445425868965685
1738772132494294000,4.3962939453125,0.0004029994597658515,-0.0017178882844746113,0.00012735743075609207
1738772132504285200,4.40628515625,-0.0012305628042668104,0.0007826308719813824,-0.0003741250548046082
1738772132514276000,4.416276123046875,-0.0011860879603773355,0.0017909039743244648,-0.0006295221974141896
1738772132524267000,4.42626708984375,-0.000024768407456576824,0.0003138226456940174,-0.0002519084373489022
1738772132534259200,4.43625927734375,0.0010293107479810715,-0.0011144308373332024,-0.0005373993190005422
1738772132544250000,4.44625,0.0004356453428044915,-0.0007715804968029261,-0.0016828511143103242
1738772132554241000,4.456240966796875,-0.00009299209341406822,0.0009301796089857817,-0.0010242514545097947
1738772132564232200,4.466232177734375,0.0008773574372753501,-0.0009384660515934229,0.0005275399889796972
1738772132574223000,4.47622314453125,-0.0019386691274121404,0.00001814146526157856,0.00024071751977317035
1738772132584214000,4.486214111328125,-0.002054751617833972,-0.0005371002480387688,-0.0006521153263747692
1738772132594205000,4.496204833984375,-0.0005569898057729006,0.00002962048165500164,-0.00015516950224991888
1738772132604196000,4.506196044921875,0.001353676081635058,-0.0017880370141938329,-0.0013872130075469613
1738772132614188000,4.51618798828125,-0.0006327758892439306,0.0008911029435694218,0.0015851411735638976
1738772132624179000,4.526178955078125,0.0009377425303682685,-0.0016721102874726057,0.00004551431629806757
1738772132634170000,4.536170166015625,0.00033586809877306223,-0.0025794492103159428,0.0002641598111949861
1738772132644161000,4.5461611328125,-0.0006092234398238361,-0.00038912310265004635,0.00036115781404078007
1738772132654152000,4.55615185546875,0.00034152506850659847,0.0013057126197963953,0.0013819474261254072
1738772132664143000,4.56614306640625,0.0009537693113088608,0.0006060940213501453,-0.0010889368131756783
1738772132674134000,4.576134033203125,0.0006538971792906523,-0.00013799313455820084,-0.0005251455586403608
1738772132684126000,4.5861259765625,0.000773499021306634,-0.0005439899396151304,0.0003685967531055212
1738772132694117000,4.5961171875,-0.0003410337958484888,0.0003998344764113426,-0.0007339519215747714
1738772132704108000,4.60610791015625,-0.0009455601102672517,0.0002487269230186939,-0.001403275178745389
1738772132714099000,4.616098876953125,0.0008464810671284795,-0.0006538182497024536,0.00025374366668984294
1738772132724090000,4.626090087890625,0.0009071547538042068,0.0007432021666318178,-0.0006490618106909096
1738772132734081000,4.6360810546875,-0.00011976005043834448,0.0003876702394336462,0.0006518923910334706
1738772132744072000,4.646072021484375,-0.00030873354990035295,-0.0007791698444634676,-0.001289612497203052
1738772132754064100,4.656064208984375,-0.000811804726254195,-0.00011497735977172852,-0.0006888033822178841
1738772132764055000,4.666054931640625,-0.0013499383348971605,0.0006703000981360674,0.0007017270545475185
1738772132774046000,4.6760458984375,0.0008160105207934976,0.0015414196532219648,-0.0005278544267639518
1738772132784036900,4.686036865234375,-0.00008849753066897392,-0.0003517037257552147,-0.0007460651104338467
1738772132794028000,4.696028076171875,-0.0005585455219261348,-0.0012145678047090769,-0.0013154488988220692
1738772132804019000,4.70601904296875,0.0006852502701804042,0.000648668734356761,-0.001030457322485745
1738772132814009900,4.716009765625,0.0008383820531889796,0.0005376150365918875,-0.0010317888809368014
1738772132824002000,4.726001953125,-0.0019413981353864074,0.0004975078627467155,-0.0005781197687610984
1738772132833993000,4.735992919921875,-0.00031180994119495153,-0.0013115776237100363,-0.0010335203260183334
1738772132843984000,4.74598388671875,0.002214022446423769,0.00010720291174948215,0.0002485629520379007
1738772132853975000,4.75597509765625,0.0013985623372718692,-0.0009772363118827343,-0.00013812801626045257
1738772132863966000,4.765966064453125,-0.0004181416006758809,0.00040088011883199215,-0.0013778451830148697
1738772132873956900,4.775956787109375,0.0004356678109616041,0.0010935680475085974,0.000042684871004894376
1738772132883948000,4.785947998046875,-0.00008477247320115566,0.0003587990067899227,-0.00009811292693484575
1738772132893940000,4.79593994140625,-0.0003130052937194705,-0.00009100907482206821,-0.0010533888125792146
1738772132903931000,4.805930908203125,-0.0009733564802445471,0.0004067528061568737,0.0016647938173264265
1738772132913922000,4.815922119140625,-0.0006351350457407534,0.00022192951291799545,0.00032176170498132706
1738772132923913000,4.825912841796875,0.00022178457584232092,0.00017031212337315083,0.00012884489842690527
1738772132933904000,4.83590380859375,0.0010231297928839922,-0.00043795397505164146,0.00017864600522443652
1738772132943895000,4.84589501953125,0.00018945056945085526,-0.0005332233849912882,-0.001466346438974142
1738772132953886000,4.855885986328125,0.0014789530541747808,-0.0003792927600443363,-0.0002772450679913163
1738772132963878000,4.8658779296875,-0.00004184700082987547,0.0028424477204680443,-0.0013856978621333838
1738772132973869000,4.875869140625,0.0000713373301550746,-0.0010590830352157354,-0.00025252276100218296
1738772132983860000,4.88585986328125,0.0008155443938449025,-0.000563113484531641,-0.0004000857297796756
1738772132993851000,4.895850830078125,0.0006237969500944018,0.0006877733394503593,0.0004968669381923974
1738772133003841800,4.905841796875,-0.0020354939624667168,0.0009301335085183382,-0.0004918401828035712
1738772133013833000,4.9158330078125,-0.0008959272527135909,0.0004829887766391039,-0.0003672042803373188
1738772133023824000,4.925823974609375,-0.0011236632708460093,0.0017621738370507956,0.0007197560044005513
1738772133033815800,4.93581591796875,-0.0009276546770706773,0.0010340658482164145,-0.00025283038849011064
1738772133043807000,4.945806884765625,-0.0001325099729001522,-0.0009082579053938389,0.0009175230516120791
1738772133053798000,4.9557978515625,-0.000265934388153255,0.00038870167918503284,-0.00047424488002434373
1738772133063788800,4.965788818359375,-0.0005683917552232742,0.00011989264748990536,-0.0005608741194009781
1738772133073780000,4.975780029296875,0.0001685048919171095,0.000999268377199769,-0.0009129439713433385
1738772133083771000,4.98577099609375,-0.0004862826899625361,0.0012179156765341759,-0.0003467984788585454
1738772133093762000,4.995761962890625,0.0003012140514329076,0.0016765119507908821,0.0005735899903811514
1738772133103754000,5.00575390625,-0.00030278461053967476,0.0005314592272043228,0.00009122444316744804
1738772133113745000,5.015744873046875,0.00047246157191693783,-0.0011639092117547989,-0.00044327197247184813
1738772133123735800,5.02573583984375,-0.0009085542988032103,0.00006479560397565365,-0.00018744241970125586
1738772133133726700,5.035726806640625,-0.0007671404746361077,0.0009697377681732178,0.0016301650321111083
1738772133143718000,5.0457177734375,0.0004345466149970889,0.0003214445896446705,0.000215347099583596
1738772133153709000,5.055708984375,0.001086488482542336,0.0006476817652583122,0.00011547855683602393
1738772133163700000,5.065699951171875,-0.000547159870620817,0.0005619621369987726,0.00009058474097400904
1738772133173692000,5.07569189453125,0.00045072659850120544,-0.0004013029392808676,-0.00044790643732994795
1738772133183682800,5.085682861328125,-0.0001477203331887722,-0.001118202693760395,0.0006318795494735241
1738772133193673700,5.095673828125,-0.0007013915455900133,0.00048768334090709686,0.0009565188665874302
1738772133203665000,5.105664794921875,0.001081455615349114,0.0003389776684343815,-0.0009647601400502026
1738772133213656000,5.115656005859375,-0.0002892734482884407,-0.00028313673101365566,-0.00020868872525170445
1738772133223647000,5.12564697265625,0.0011436118511483073,-0.0007915711030364037,-0.0008857247303240001
1738772133233638100,5.13563818359375,-0.00007371907122433186,-0.0002570746000856161,0.002366261091083288
1738772133243629000,5.145629150390625,-0.0002864554990082979,0.00140325166285038,-0.00011117350368294865
1738772133253620700,5.155620849609375,-0.0015730286249890924,0.0009720856323838234,-0.00030318740755319595
1738772133263612000,5.16561181640625,-0.000532439211383462,-0.0010153951589018106,-0.0011360152857378125
1738772133273603000,5.17560302734375,-0.0005683918716385961,-0.001331778708845377,0.0010954473400488496
1738772133283594000,5.185593994140625,0.000691703287884593,0.0014709294773638248,-0.001392012694850564
1738772133293585200,5.195585205078125,-0.00021563563495874405,0.0009287097491323948,0.00008710699330549687
1738772133303576000,5.205576171875,0.0010461248457431793,-0.000666347797960043,-0.00013065821258351207
1738772133313567000,5.21556689453125,-0.00003591750282794237,-0.0001454334706068039,-0.0012832743814215064
1738772133323559200,5.22555908203125,0.0003209909191355109,0.0015206171665340662,-0.0006564499344676733
1738772133333550000,5.235550048828125,-0.0005498627433553338,0.00030222092755138874,0.0005986978649161756
1738772133343541000,5.245541015625,0.00043302029371261597,0.0004918868653476238,0.00025235320208594203
1738772133353532000,5.255531982421875,0.0022671392653137445,0.00149243650957942,-0.002015062142163515
1738772133363523000,5.265523193359375,-0.00008801836520433426,0.0014523121062666178,-0.0005624221521429718
1738772133373514000,5.275513916015625,-0.0015341148246079683,0.0011545706074684858,0.00044505170080810785
1738772133383505000,5.2855048828125,-0.0009678634232841432,0.0012143643107265234,-0.000013177195796743035
1738772133393497000,5.2954970703125,-0.0000924824271351099,0.0001387135125696659,-0.0003340881085023284
1738772133403488000,5.305488037109375,-0.0003224944230169058,-0.001105212140828371,-0.0007688450859859586
1738772133413479000,5.31547900390625,-0.0006950706010684371,0.00032330770045518875,0.0029838152695447206
1738772133423470000,5.325469970703125,-0.00018722342792898417,0.0015634342562407255,-0.0008384136017411947
1738772133433461000,5.3354609375,-0.00025113928131759167,-0.0007258190307766199,-0.000657851283904165
1738772133443452000,5.345451904296875,0.0008045431459322572,-0.0007697793189436197,-0.0010656265076249838
1738772133453443000,5.355443115234375,-0.0009033421520143747,0.000002803746610879898,-0.000010748452041298151
1738772133463434000,5.36543408203125,0.000703927013091743,0.0014720889739692211,0.0006042256718501449
1738772133473426000,5.375426025390625,-0.0012609531404450536,-0.0006270145531743765,0.0006649456918239594
1738772133483417000,5.3854169921875,0.001619788003154099,0.0006255574990063906,-0.00048700463958084583
1738772133493408000,5.395407958984375,-0.0007078148191794753,-0.00036567123606801033,-0.001996750710532069
1738772133503399000,5.40539892578125,-0.00011426140554249287,-0.0005213632248342037,-0.0002740483614616096
1738772133513390000,5.41539013671875,-0.00025247945450246334,-0.0012899513822048903,0.00023062065884005278
1738772133523381000,5.425381103515625,-0.0006585803348571062,-0.0010435697622597218,0.0004297482955735177
1738772133533372000,5.435371826171875,-0.0003613715525716543,-0.0011492972262203693,0.0009935395792126656
1738772133543364000,5.445364013671875,-0.0010078113991767168,0.0003442429006099701,0.00024285237304866314
1738772133553355000,5.45535498046875,0.00047343887854367495,0.0005759377963840961,-0.0008032373152673244
1738772133563346000,5.465345947265625,0.0002803517272695899,0.00042017525993287563,-0.00010166416177526116
1738772133573336800,5.4753369140625,0.0003799539990723133,0.00046811182983219624,0.0001364224444841966
1738772133583328000,5.485327880859375,0.00023413856979459524,-0.0011820863001048565,0.0007504423847422004
1738772133593319000,5.49531884765625,-0.0010127534624189138,-0.0008140373975038528,0.0002771986764855683
1738772133603309800,5.505309814453125,0.0004452178254723549,-0.00035195169039070606,0.00008487791637890041
1738772133613302000,5.515302001953125,0.0007355024572461843,0.0011122541036456823,0.001010592794045806
1738772133623293000,5.52529296875,-0.0015987602528184652,-0.0001480786595493555,0.00042771000880748034
1738772133633283800,5.535283935546875,0.0004872936988249421,-0.0012905746698379517,-0.00013421697076410055
1738772133643275000,5.54527490234375,-0.0001089820871129632,-0.0009089286904782057,-0.0005090021877549589
1738772133653266000,5.555265869140625,0.0006028807256370783,0.00009561562910676003,0.0024132844991981983
1738772133663256800,5.5652568359375,0.0009058591676875949,-0.0010359310545027256,0.000862075190525502
1738772133673248000,5.575248046875,-0.0001857704482972622,-0.0009373940993100405,0.00020613866217900068
1738772133683240000,5.585239990234375,-0.00014379725325852633,0.00018569338135421276,-0.0008510036277584732
1738772133693230800,5.59523095703125,-0.0016490159323439002,-0.00019860081374645233,0.0000424869213020429
1738772133703222000,5.605221923828125,-0.0006793452193960547,-0.0012252526357769966,0.0006678188219666481
1738772133713213000,5.615212890625,-0.0005014460766687989,-0.0006207150872796774,-0.00010636205843184143
1738772133723203800,5.625203857421875,0.0000550001859664917,0.0012233091983944178,0.0005563559243455529
1738772133733195000,5.635195068359375,0.0011903058039024472,0.00010158587247133255,0.00045808529830537736
1738772133743186000,5.64518603515625,-0.0004180215182714164,0.0011343667283654213,0.00036539119901135564
1738772133753176800,5.6551767578125,0.001314098364673555,-0.0012885772157460451,-0.00038002757355570793
1738772133763169000,5.6651689453125,0.00018324039410799742,0.0014786859974265099,-0.000361466285539791
1738772133773160000,5.675159912109375,-0.000015165074728429317,-0.0005863290280103683,-0.0014616181142628193
1738772133783150800,5.68515087890625,-0.0011825619731098413,0.0006118172314018011,0.0020532801281660795
1738772133793141800,5.695141845703125,-0.0006046560010872781,-0.0005043135024607182,0.0003137033199891448
1738772133803133000,5.7051328125,-0.00019603222608566284,-0.0004426208324730396,-0.00011575075768632814
1738772133813123800,5.715123779296875,-0.000017866725102066994,-0.0013608788140118122,-0.0005072354106232524
1738772133823114800,5.72511474609375,0.000902875792235136,0.0006725122220814228,-0.0003685419214889407
1738772133833107000,5.73510693359375,0.0009926243219524622,0.0007476131431758404,-0.0006681475788354874
1738772133843097900,5.745097900390625,-0.0003468171926215291,0.00014888844452798367,-0.0002379352372372523
1738772133853088800,5.7550888671875,-0.00033802876714617014,-0.00041996268555521965,-0.0006818841793574393
1738772133863080000,5.765079833984375,0.0008672935655340552,0.0006488356739282608,0.0005268333479762077
1738772133873070800,5.77507080078125,-0.0005508397589437664,0.00019183708354830742,0.00048422280815429986
1738772133883061800,5.785061767578125,0.0010016208980232477,-0.0002645868808031082,0.00043439381988719106
1738772133893053000,5.795052978515625,-0.0005651168175972998,-0.001933323685079813,-0.0007176896324381232
1738772133903044000,5.805044189453125,0.0003294803900644183,0.0005640920717269182,-0.0006527600926347077
1738772133913035800,5.815035888671875,-0.00027159496676176786,0.00019045057706534863,0.0014042655238881707
1738772133923027000,5.82502685546875,-0.0012386004673317075,-0.0006755813956260681,0.00014472227485384792
1738772133933017900,5.835017822265625,0.0008213546825572848,-0.0003280388191342354,-0.001105099217966199
1738772133943009000,5.845009033203125,-0.0011455845087766647,0.00027756509371101856,0.0016268580220639706
1738772133953000200,5.855000244140625,0.002307736314833164,0.00011271517723798752,-0.0012863737065345049
1738772133962991000,5.8649912109375,-0.0020194118842482567,-0.0004701348952949047,-0.0006882321322336793
1738772133972982000,5.87498193359375,-0.0006348345195874572,0.0007554516196250916,-0.0010842442279681563
1738772133982974000,5.884973876953125,-0.0004989014123566449,0.0007451095152646303,0.0017484616255387664
1738772133992964900,5.89496484375,-0.00022672628983855247,0.001116354251280427,0.00017213662795256823
1738772134002956000,5.9049560546875,0.0020182866137474775,0.0005019649397581816,0.0006332320626825094
1738772134012947000,5.914947021484375,0.0002323706867173314,-0.001459453022107482,-0.0008000812376849353
1738772134022937900,5.924937744140625,0.0013238894753158092,-0.00023185531608760357,-0.0012968075461685658
1738772134032929000,5.934928955078125,-0.0013882737839594483,0.0006264816038310528,0.0005583504680544138
1738772134042920000,5.944919921875,-0.0016679380787536502,0.0020152318757027388,-0.0011336755705997348
1738772134052910800,5.954910888671875,-0.0006460832082666457,-0.00025591161102056503,-0.0008226183126680553
1738772134062903000,5.964903076171875,0.0006612302968278527,-0.00031651160679757595,-0.00018425552116241306
1738772134072894000,5.97489404296875,0.0006598987383767962,0.0008840414229780436,-0.0004210105398669839
1738772134082884900,5.984884765625,-0.000590103620197624,0.00010131974704563618,0.0007298956625163555
1738772134092875800,5.994875732421875,-0.0003118033055216074,0.00015085446648299694,0.0005551922949962318
1738772134102867000,6.004866943359375,0.0004716484108939767,0.0004651769995689392,0.0008079804247245193
1738772134112857900,6.01485791015625,0.00023196381516754627,0.00028488109819591045,0.0003816082898993045
1738772134122848800,6.024848876953125,-0.0008172633242793381,-0.00015165680088102818,0.0008929328178055584
1738772134132841000,6.034841064453125,-0.0009520192397758365,0.0008017546497285366,0.0006276819622144103
1738772134142831900,6.044831787109375,0.0008319924818351865,0.00023517454974353313,-0.001296900911256671
1738772134152822800,6.05482275390625,0.0019151001470163465,-0.000112900510430336,0.0006408151239156723
1738772134162814000,6.06481396484375,-0.0006698938668705523,0.0007079520728439093,0.0008853186154738069
1738772134172804900,6.074804931640625,0.00025875039864331484,-0.0006510589737445116,0.0004272549704182893
1738772134182795800,6.084795654296875,0.001250595785677433,-0.0007011019624769688,0.0005659725866280496
1738772134192787000,6.094786865234375,0.00023593148216605186,-0.0008289336692541838,0.0015225800452753901
1738772134202777900,6.10477783203125,0.0004646111046895385,0.00191148417070508,0.0024156197905540466
1738772134212769800,6.114769775390625,0.0006337218219414353,0.0010792464017868042,0.000640889338683337
1738772134222761000,6.124760986328125,-0.0001901924842968583,0.0001938878558576107,-0.0014962332788854837
1738772134232751900,6.134751953125,-0.0013864844804629683,-0.0005901467520743608,-0.0004844984505325556
1738772134242742800,6.14474267578125,-0.0008685291395522654,0.0004380391910672188,-0.0005641814786940813
1738772134252733700,6.154733642578125,-0.0007846396183595061,0.0023850761353969574,-0.000923441955819726
1738772134262724900,6.164724853515625,-0.00007561431266367435,-0.0008740657940506935,0.000700036296620965
1738772134272715800,6.1747158203125,0.0012980442261323333,-0.000011201715096831322,0.000327992660459131
1738772134282708000,6.1847080078125,0.00047360395547002554,0.002267351606860757,0.0006072453106753528
1738772134292699000,6.194698974609375,-0.0024180563632398844,0.0015823866706341505,-0.0007379173184745014
1738772134302689800,6.204689697265625,0.0006024504546076059,-0.00027656881138682365,0.001177733181975782
1738772134312680700,6.2146806640625,-0.0003610810963436961,-0.0010829740203917027,-0.0006942026084288955
1738772134322671900,6.224671875,0.00018441583961248398,0.0025327785406261683,0.0005211931420490146
1738772134332662800,6.234662841796875,0.00043155718594789505,0.0011018619406968355,-0.00013554233009926975
1738772134342653700,6.24465380859375,0.0006620537023991346,0.0001866067759692669,-0.0006269863806664944
1738772134352644900,6.254644775390625,0.00095766456797719,0.0009293621405959129,0.0019405672792345285
1738772134362636800,6.26463671875,0.0009447872871533036,0.0010665117297321558,0.00013116966874804348
1738772134372627700,6.274627685546875,-0.0024198503233492374,-0.000025650719180703163,-0.0002869466261472553
1738772134382619000,6.284618896484375,-0.00009707675781100988,-0.0008879427332431078,-0.0004747227649204433
1738772134392609800,6.29460986328125,0.001047549769282341,0.0005416418425738811,0.00009226422116626054
1738772134402600700,6.3046005859375,-0.0013210757169872522,0.00020065880380570889,0.0016190737951546907
1738772134412591900,6.314591796875,-0.00047711998922750354,0.001707209274172783,-0.00003235237090848386
1738772134422582800,6.324582763671875,0.0006183200748637319,-0.0003192001022398472,0.00002068553294520825
1738772134432574700,6.33457470703125,-0.000057590194046497345,-0.0019485220545902848,-0.001860837684944272
1738772134442566000,6.34456591796875,-0.0008474052301608026,0.0007183186244219542,0.0002459725074004382
1738772134452556800,6.354556884765625,-0.0006735008209943771,0.0030360675882548094,0.0011043093400076032
1738772134462547700,6.364547607421875,-0.000027096248231828213,-0.0014516075607389212,-0.0018168191891163588
1738772134472538600,6.37453857421875,-0.0008627962088212371,-0.0017224509501829743,-0.00021173205459490418
1738772134482529800,6.38452978515625,0.00022235128562897444,-0.00019057001918554306,0.00020047610451001674
1738772134492520700,6.394520751953125,0.0009603133657947183,0.0025937650352716446,-0.00017955696966964751
1738772134502511600,6.40451171875,0.0004073099698871374,-0.0005838216748088598,-0.0013812510296702385
1738772134512503800,6.41450390625,0.00000970007386058569,-0.0009928832296282053,-0.0004531393642537296
1738772134522494700,6.42449462890625,-0.0008481516852043569,0.0006407748442143202,-0.00037344981683418155
1738772134532485600,6.434485595703125,0.0007271079812198877,0.001257296884432435,-0.00044801831245422363
1738772134542476800,6.444476806640625,0.001198753947392106,0.0011955115478485823,0.0004201721749268472
1738772134552467700,6.4544677734375,0.0014755168231204152,0.00136659387499094,0.00015504867769777775
1738772134562459000,6.464458984375,0.00016380695160478354,0.0014205467887222767,0.0004482701187953353
1738772134572450000,6.474449951171875,-0.0011006619315594435,0.0005089468322694302,0.0004109858418814838
1738772134582441700,6.484441650390625,0.00020234636031091213,0.0005184682086110115,0.001747963367961347
1738772134592432600,6.4944326171875,0.0009552220581099391,-0.0007065858226269484,0.00033675431041046977
1738772134602423800,6.504423828125,-0.00006804161239415407,0.001057677436619997,0.0003488667425699532
1738772134612414700,6.514414794921875,0.0005575349787250161,0.00002783280797302723,0.0016223903512582183
1738772134622406000,6.524406005859375,0.00018917047418653965,0.0002702029887586832,0.00007977096538525075
1738772134632397000,6.53439697265625,-0.0011858196230605245,-0.0005322075448930264,-0.00017615882097743452
1738772134642388000,6.544387939453125,0.00010489160194993019,0.001043121563270688,0.0012717522913590074
1738772134652379000,6.55437890625,0.0015288838185369968,0.0009062353055924177,0.00044031342258676887
1738772134662370800,6.564370849609375,-0.0003360437694936991,0.0015017238911241293,-0.0012555699795484543
1738772134672361700,6.57436181640625,0.00003014085814356804,-0.0006546375807374716,-0.00039164061308838427
1738772134682353000,6.584352783203125,-0.00019504467491060495,0.0005683177150785923,0.0017595404060557485
1738772134692343800,6.59434375,0.0013655676739290357,0.002131060231477022,-0.0005488877068273723
1738772134702335000,6.6043349609375,0.0021002241410315037,-0.00009175087325274944,-0.001128975534811616
1738772134712326000,6.614325927734375,0.0003119113389402628,0.0003844222519546747,0.00031179466168396175
1738772134722316800,6.62431689453125,0.0007309968350455165,0.0004166180733591318,0.00045244727516546845
1738772134732308000,6.634307861328125,-0.0013153761392459273,0.002786831231787801,-0.0002543556911405176
1738772134742300000,6.6442998046875,-0.0009967044461518526,0.0011593452654778957,-0.0010978581849485636
1738772134752290800,6.654290771484375,-0.0005852460162714124,-0.0029792070854455233,0.00005156204861123115
1738772134762282000,6.664281982421875,-0.0013652517227455974,-0.0013562585227191448,0.00015973046538420022
1738772134772273000,6.67427294921875,-0.0002930631162598729,0.0021881426218897104,0.0010074146557599306
1738772134782263800,6.684263916015625,-0.00026287802029401064,0.001369887264445424,0.0005254041170701385
1738772134792255000,6.6942548828125,-0.001825620885938406,-0.001500733895227313,-0.001096993568353355
1738772134802246000,6.704245849609375,-0.0007474729209206998,-0.001208046916872263,-0.00039675552397966385
1738772134812237800,6.71423779296875,-0.00022789021022617817,0.0014180964790284634,0.001352408668026328
1738772134822229000,6.72422900390625,-0.00042075454257428646,-0.0000681437086313963,0.00041098514338955283
1738772134832220000,6.734219970703125,0.0006003014277666807,-0.0027528763748705387,-0.0006050108349882066
1738772134842210800,6.7442109375,0.001507375156506896,-0.00048706913366913795,0.001639343798160553
1738772134852202000,6.754201904296875,-0.00003219814971089363,0.0013840680476278067,0.0020420136861503124
1738772134862193000,6.76419287109375,-0.0005782019579783082,0.0015865715686231852,0.0017022944521158934
1738772134872183800,6.774183837890625,0.000021808198653161526,-0.0011956326197832823,-0.00027776570641435683
1738772134882174700,6.7841748046875,0.001796399476006627,-0.001344251912087202,0.0001654604566283524
1738772134892167000,6.7941669921875,-0.00045716739259660244,-0.0006489006336778402,0.0013950419379398227
1738772134902157800,6.80415771484375,0.0005080555565655231,0.0004343586042523384,-0.0007681665010750294
1738772134912148700,6.814148681640625,-0.0007332437671720982,0.0006282366812229156,0.00020628412312362343
1738772134922140000,6.824139892578125,0.00017877609934657812,0.00011114450171589851,-0.0020277926232665777
1738772134932130800,6.834130859375,-0.0006678428035229445,-0.000794063787907362,0.0005847683642059565
1738772134942121700,6.844121826171875,0.00006871507503092289,0.0009360190015286207,0.0007661551935598254
1738772134952113000,6.85411279296875,0.0019899194594472647,0.0014537374954670668,0.0017475300701335073
1738772134962103800,6.864103759765625,-0.0006277348729781806,-0.001270088367164135,-0.0011831081937998533
1738772134972095700,6.874095703125,-0.0010594333289191127,0.0003102316986769438,-0.0003700450761243701
1738772134982087000,6.8840869140625,-0.0010785661870613694,-0.0010435555595904589,0.0021778582595288754
1738772134992078300,6.894078369140625,-0.0002873410121537745,0.00004541105590760708,0.0010199157986789942
1738772135002069200,6.9040693359375,0.000797811895608902,-0.001165010966360569,0.0001804149942472577
1738772135012060200,6.91406005859375,-0.00002324057277292013,-0.001179658342152834,0.000660316611174494
1738772135022051300,6.92405126953125,-0.0008582166628912091,0.00029577617533504963,0.0003266181447543204
1738772135032042200,6.934042236328125,-0.0001450220588594675,0.0017024578992277384,-0.0006965684005990624
1738772135042034200,6.9440341796875,0.0014063497073948383,-0.00030141882598400116,0.0009877942502498627
1738772135052025300,6.954025390625,0.0006537404842674732,-0.00033950200304389,0.00003917625144822523
1738772135062016300,6.964016357421875,-0.000428498606197536,-0.0007678093388676643,0.0011161179281771183
1738772135072007200,6.974007080078125,-0.0006514051929116249,-0.00007698545232415199,0.0011099926196038723
1738772135081998300,6.983998291015625,0.0013489251723513007,0.0003951340913772583,0.0006807457539252937
1738772135091989200,6.9939892578125,-0.0003807980101555586,0.00002149282954633236,0.0003851348301395774
1738772135101980200,7.003980224609375,-0.00031710852636024356,0.000058084260672330856,-0.00045653298730030656
1738772135111971000,7.01397119140625,-0.00016104732640087605,0.0009318671654909849,0.00036398693919181824
1738772135121963300,7.02396337890625,0.0002485330915078521,0.00028391112573444843,-0.0004733774112537503
1738772135131954200,7.0339541015625,0.0007049989653751254,-0.0015257068444043398,0.0025818010326474905
1738772135141945000,7.043945068359375,0.0022083162330091,0.00150069291703403,0.00013912722351960838
1738772135151936300,7.053936279296875,0.0005518299294635653,0.0009944259654730558,-0.0009242729865945876
1738772135161927200,7.06392724609375,0.0003434432437643409,-0.0007113674655556679,0.00028126343386247754
1738772135171918000,7.07391796875,0.0008550365455448627,-0.00029404996894299984,-0.00009291069000028074
1738772135181909200,7.0839091796875,0.0012910638470202684,0.0005287129897624254,0.0019624894484877586
1738772135191901200,7.093901123046875,0.00016614457126706839,-0.00035359221510589123,-0.0005976072861813009
1738772135201892000,7.10389208984375,0.00009393307846039534,-0.0010527456179261208,0.00033698068000376225
1738772135211883300,7.11388330078125,0.00040232716128230095,0.0010839086025953293,0.0007902507204562426
1738772135221874200,7.123874267578125,-0.0007211564807221293,0.0020168868359178305,-0.00021629894035868347
1738772135231865000,7.133864990234375,-0.0012263581156730652,-0.0010050018317997456,0.00011766146053560078
1738772135241856300,7.143856201171875,0.000027468428015708923,-0.0016723466105759144,0.00040031742537394166
1738772135251847200,7.15384716796875,-0.00044071523007005453,0.0015673888847231865,0.00035983737325295806
1738772135261838000,7.163838134765625,0.00011930265463888645,0.0009891297668218613,0.0005986788310110569
1738772135271830300,7.173830322265625,-0.00016565562691539526,-0.0014031876344233751,0.000690824119374156
1738772135281821200,7.1838212890625,-0.0002614152617752552,-0.0011628717184066772,0.00001194841752294451
1738772135291812000,7.19381201171875,0.001092535792849958,0.0007122601382434368,0.0011203561443835497
1738772135301803300,7.20380322265625,0.0008219985757023096,0.0005214184056967497,-0.0001629956968827173
1738772135311794200,7.213794189453125,-0.00011303718201816082,0.00041329418309032917,-0.00017151780775748193
1738772135321785000,7.22378515625,0.00013792130630463362,0.0010846720542758703,0.00011630952940322459
1738772135331776300,7.2337763671875,0.0008404632098972797,0.0002891861367970705,-0.0005492144264280796
1738772135341767400,7.243767333984375,0.0009586380328983068,0.0001228521578013897,0.0003955131396651268
1738772135351759000,7.253759033203125,-0.00043605949031189084,0.0017766749951988459,0.00013292545918375254
1738772135361750000,7.26375,0.0011249204399064183,-0.0017748146783560514,-0.0009646345861256123
1738772135371741200,7.2737412109375,0.0012455616379156709,0.0005677016451954842,0.001100380439311266
1738772135381732400,7.283732421875,-0.00036615721182897687,0.0007467388641089201,-0.0009705142583698034
1738772135391723300,7.29372314453125,-0.0006857365369796753,0.000022358959540724754,-0.00001497205812484026
1738772135401714400,7.30371435546875,-0.0003748563467524946,-0.0011026670690625906,0.00041317284922115505
1738772135411705300,7.313705322265625,0.000307978130877018,-0.0012419503182172775,-0.0011956427479162812
1738772135421697000,7.323697021484375,0.0005762509535998106,-0.00023866770789027214,-0.00048317410983145237
1738772135431688200,7.333688232421875,-0.0014347019605338573,0.0006135436706244946,-0.0016733407974243164
1738772135441679400,7.343679443359375,0.001100426889024675,-0.00021317042410373688,-0.0005624113837257028
1738772135451670300,7.353670166015625,0.0007203938439488411,0.00022305548191070557,-0.000504088238812983
1738772135461661400,7.363661376953125,-0.00097865448333323,0.0003550243563950062,-0.000985217746347189
1738772135471652400,7.37365234375,-0.00032671261578798294,-0.0007858737371861935,0.001356233493424952
1738772135481643300,7.383643310546875,-0.0013976205373182893,0.0017480452079325914,0.0003058982256334275
1738772135491634200,7.39363427734375,0.0005901629338040948,-0.0008450748864561319,-0.0002064939762931317
1738772135501626400,7.40362646484375,0.0009437595726922154,-0.0005667763762176037,-0.002013481454923749
1738772135511617300,7.4136171875,-0.00040486518992111087,0.00020900252275168896,0.0022150857839733362
1738772135521608400,7.4236083984375,0.0008951256750151515,0.002414555987343192,0.0015423143049702048
1738772135531599400,7.433599365234375,-0.00006148172542452812,-0.002155694644898176,-0.0011008729925379157
1738772135541590300,7.44359033203125,-0.0003651382285170257,-0.00155626330524683,0.00032992003252729774
1738772135551581200,7.453581298828125,0.0012623196234926581,0.0013910571578890085,0.0012849295744672418
1738772135561572400,7.463572265625,-0.000713188317604363,0.002481804694980383,0.001150827156379819
1738772135571564300,7.473564208984375,-0.0015366377774626017,-0.001430911710485816,-0.0005163116729818285
1738772135581555200,7.48355517578125,0.00010115536861121655,-0.0016797189600765705,0.0004699520650319755
1738772135591546400,7.49354638671875,0.0007552277529612184,-0.0005015365313738585,-0.00021900770661886781
1738772135601537300,7.503537353515625,0.0006053821416571736,0.0007970479782670736,0.0003384149167686701
1738772135611528200,7.513528076171875,0.0002128321211785078,-0.00247517810203135,0.0002673085546121001
1738772135621519400,7.523519287109375,0.001012415741570294,-0.00013709114864468575,-0.00013176034553907812
1738772135631510300,7.53351025390625,0.0003615390742197633,-0.00007424061186611652,0.0012549476232379675
1738772135641501200,7.543501220703125,0.0007697114488109946,-0.0005394425243139267,-0.0004569394513964653
1738772135651493400,7.553493408203125,-0.0010060842614620924,-0.0013125583063811064,-0.0013911763671785593
1738772135661484300,7.563484375,0.000874876044690609,0.0006314783822745085,0.0003049813094548881
1738772135671475200,7.57347509765625,0.00035129860043525696,0.0006021836306899786,0.00006849260535091162
1738772135681466400,7.58346630859375,0.0022144222166389227,-0.00020623509772121906,-0.0008556832326576114
1738772135691457300,7.593457275390625,0.0010418323799967766,0.00010375678539276123,-0.000031168601708486676
1738772135701448200,7.6034482421875,-0.00014098011888563633,-0.0008768877014517784,0.00006421789294108748
1738772135711439000,7.613439208984375,-0.0006600301712751389,0.001068551791831851,0.0009989874670282006
1738772135721431300,7.623431396484375,-0.0005664019845426083,0.0014224827755242586,0.0019609001465141773
1738772135731422200,7.633422119140625,0.0001489231362938881,-0.0010619799140840769,0.0004365068452898413
1738772135741413400,7.643413330078125,-0.0006576821324415505,0.0013074646703898907,-0.0003606342652346939
1738772135751404300,7.653404296875,-0.0014166829641908407,-0.0010014961007982492,-0.0002842015237547457
1738772135761395200,7.663395263671875,0.0004595638019964099,-0.0006787506863474846,-0.0008358348859474063
1738772135771386000,7.67338623046875,0.0012862089788541198,-0.0005951274652034044,-0.0016457021702080965
1738772135781377300,7.683377197265625,0.000741588999517262,0.0006144042126834393,-0.0013847218360751867
1738772135791368200,7.6933681640625,0.0003016347764059901,-0.0011613918468356133,-0.00018763088155537844
1738772135801360100,7.703360107421875,-0.00019525655079632998,0.00011762790381908417,0.0005990914651192725
1738772135811351300,7.713351318359375,-0.0000509131932631135,0.0005959318950772285,0.000928258232306689
1738772135821342200,7.72334228515625,0.00010158505756407976,-0.002578150946646929,-0.00014234232367016375
1738772135831333000,7.7333330078125,-0.0005282525671645999,0.0003292218316346407,-0.0005713775753974915
1738772135841324300,7.74332421875,-0.00010584818664938211,0.0010145411361008883,-0.00011550646740943193
1738772135851315200,7.753315185546875,-0.000596402445808053,0.0004968226421624422,-0.0002968677436001599
1738772135861306000,7.76330615234375,0.0007503710221499205,-0.0026123798452317715,-0.0006900257430970669
1738772135871298300,7.77329833984375,0.0030638589523732662,0.0007767591159790754,-0.00089855125406757
1738772135881289200,7.783289306640625,-0.0003794347867369652,0.0009694190230220556,0.0003275626222603023
1738772135891280100,7.793280029296875,-0.0003687820862978697,0.0004133509937673807,-0.00038083820254541934
1738772135901271300,7.803271240234375,0.0005856550997123122,-0.0006869914941489697,0.00046423717867583036
1738772135911262200,7.81326220703125,0.00021414412185549736,0.0006893300451338291,-0.0003104763454757631
1738772135921253000,7.823253173828125,-0.0012043360620737076,0.0008753479924052954,-0.0009664125391282141
1738772135931244000,7.833244140625,-0.00010977685451507568,-0.00007140543311834335,-0.00006253569154068828
1738772135941235200,7.843235107421875,-0.0002990608336403966,-0.0009606217499822378,0.001150913187302649
1738772135951227100,7.85322705078125,0.0012341210385784507,-0.0016285425517708063,-0.0012435349635779858
1738772135961218300,7.86321826171875,-0.0006356856320053339,0.0004091099835932255,-0.0005192201351746917
1738772135971209200,7.873209228515625,-0.0001701650908216834,0.0001680939458310604,-0.0004989801091141999
1738772135981200100,7.8832001953125,-0.000022995518520474434,-0.00006593693979084492,-0.0003584855003282428
1738772135991191000,7.89319091796875,0.0017506696749478579,0.0007529847789555788,-0.0004338529543019831
1738772136001182200,7.90318212890625,0.0005711863050237298,0.0003257265780121088,0.00019867633818648756
1738772136011173400,7.91317333984375,-0.0004850233090110123,-0.0011699048336595297,-0.000467912876047194
1738772136021165000,7.9231650390625,0.0008859720546752214,-0.0004881611093878746,-0.00040221840026788414
1738772136031156200,7.93315625,0.00023056811187416315,0.0005163829773664474,0.0003754246572498232
1738772136044894200,7.946894287109375,-0.0003769631148315966,0.0009902962483465672,-0.0012488131178542972
1738772136054885000,7.956885009765625,0.000779381487518549,0.0006009419448673725,-0.0006005996838212013
1738772136064876300,7.966876220703125,0.0005721199559047818,0.00036486401222646236,-0.00005775588215328753
1738772136074867200,7.9768671875,-0.0004590559983626008,-0.00003114808350801468,-0.0006345965666696429
1738772136084858000,7.986858154296875,0.0007987214485183358,0.000828590476885438,0.00006064347689971328
1738772136094849000,7.99684912109375,0.000480739981867373,0.0010139464866369963,-0.0005673298728652298
1738772136104841200,8.00684130859375,-0.0007455868762917817,0.0002684439532458782,-0.00033186221844516695
1738772136114832100,8.01683203125,-0.00008032924961298704,-0.0009659312199801207,0.00016295310342684388
1738772136124823000,8.026822998046875,-0.0011355006136000156,-0.0016871062107384205,-0.0010312192607671022
1738772136134814200,8.036814208984374,0.0009628039551898837,0.0023851334117352962,-0.0018120580352842808
1738772136144805000,8.04680517578125,-0.00027347117429599166,0.0008969786576926708,-0.0003878142742905766
1738772136154796000,8.056796142578126,0.0014410719741135836,-0.001131284749135375,0.0003884971665684134
1738772136164787200,8.066787109375,0.0018120750319212675,-0.002729366533458233,-0.0009689771104604006
1738772136174778000,8.076778076171875,0.0006722421385347843,0.0005798772908747196,-0.00003447386552579701
1738772136184770000,8.08677001953125,-0.0010429411195218563,0.0025612409226596355,0.00016067671822384
1738772136194761200,8.09676123046875,-0.0001989853335544467,-0.0005317544564604759,-0.000621760031208396
1738772136204752100,8.106752197265624,0.00003831495996564627,-0.0019451496191322803,0.00038706001942045987
1738772136214743000,8.116742919921874,0.0004194132052361965,0.0005406450945883989,-0.0008654246339574456
1738772136224734200,8.126734130859376,-0.0005845646956004202,0.000737746711820364,0.0015161519404500723
1738772136234725000,8.13672509765625,0.002085254527628422,-0.0010614851489663124,0.0007196004153229296
1738772136244716300,8.14671630859375,0.000913504627533257,-0.00019163661636412144,0.0001661237038206309
1738772136254707200,8.156707275390625,-0.000969616521615535,-0.00014369981363415718,0.001123263849876821
1738772136264699100,8.16669921875,-0.0009008328197523952,0.00037759006954729557,-0.0004229478654451668
1738772136274690000,8.17668994140625,-0.00171283062081784,-0.0003238867502659559,-0.0007766156340949237
1738772136284681000,8.186680908203124,-0.0015525665367022157,-0.0004505638498812914,-0.0007533162133768201
1738772136294672100,8.196672119140626,0.0010030027478933334,-0.00039330567233264446,0.0009867933113127947
1738772136304663300,8.206663330078126,-0.0007215086952783167,-0.00010948069393634796,0.0004957104683853686
1738772136314654200,8.216654296875,0.00025613768957555294,-0.0008666173089295626,-0.0011314810253679752
1738772136324645400,8.226645263671875,-0.0006029407377354801,-0.0023040533997118473,0.0006575209554284811
1738772136334637000,8.236636962890625,0.0012815119698643684,0.00034792255610227585,0.0010434130672365427
1738772136344628000,8.2466279296875,0.000980704091489315,0.001206608023494482,-0.0005902442499063909
1738772136354619400,8.256619384765624,0.0007468785624951124,0.000134951900690794,0.0005634371191263199
1738772136364610300,8.2666103515625,0.0003778288373723626,-0.0010601070243865252,-0.0005037482478655875
1738772136374601200,8.276601318359376,0.0010289717465639114,0.0009045067708939314,0.00047150132013484836
1738772136384592400,8.28659228515625,0.0013552564196288586,-0.0006507637444883585,-0.00006885522452648729
1738772136394583300,8.296583251953125,-0.0017673000693321228,-0.001735202968120575,-0.0010603500995784998
1738772136404574200,8.30657421875,0.0007093582535162568,0.000013725599274039268,-0.00033606996294111013
1738772136414565000,8.316565185546875,-0.00039079360431060195,0.0008901718538254499,-0.0017789705889299512
1738772136424557300,8.326557373046874,-0.0006792762433178723,0.0010188561864197254,0.0014278764137998223
1738772136434548200,8.33654833984375,0.0017274223500862718,-0.0004589320160448551,0.0014888627920299768
1738772136444539400,8.346539306640626,0.000019495957531034946,-0.0005466148722916842,-0.0008833175525069237
1738772136454530300,8.3565302734375,0.0012773069320246577,-0.0008504816796630621,-0.0006606773240491748
1738772136464521200,8.366521240234375,-0.00040807726327329874,0.00014625489711761475,0.0021628604736179113
1738772136474512100,8.37651220703125,0.0007405440555885434,0.00023786770179867744,0.0012035896070301533
1738772136484503300,8.38650341796875,-0.0013535207835957408,-0.0009314760100096464,-0.0001319563016295433
1738772136494494200,8.396494140625,0.0004776687128469348,-0.0002118898555636406,-0.0012054764665663242
1738772136504486100,8.406486083984374,0.0004433966241776943,-0.00001821550540626049,0.000914247939363122
1738772136514477300,8.416477294921876,0.0007832158589735627,0.0014180273283272982,0.0020642008166760206
1738772136524468200,8.42646826171875,-0.00017883675172924995,0.0004681246355175972,-0.0009653805755078793
1738772136534459100,8.436459228515625,-0.0002645906060934067,-0.001548686996102333,-0.0008580551948398352
1738772136544450300,8.4464501953125,0.0008429109584540129,0.0010319077409803867,-0.0009614623268134892
1738772136554441200,8.456441162109375,0.0005651431856676936,0.000705936923623085,-0.0006429482600651681
1738772136564432100,8.46643212890625,0.0004190829349681735,-0.00018937420099973679,-0.0014884673291817307
1738772136574424300,8.47642431640625,-0.0014768214896321297,-0.00045222812332212925,0.00036855481448583305
1738772136584415200,8.486415283203126,-0.000025414861738681793,0.00000913301482796669,-0.0002472564810886979
1738772136594406100,8.49640625,-0.000025414861738681793,-0.0022340475115925074,-0.001479234779253602
1738772136604397300,8.506397216796875,-0.00041981268441304564,-0.001324063865467906,-0.000015145473298616707
1738772136614388200,8.51638818359375,-0.001227016793563962,0.001029105158522725,0.001128415809944272
1738772136624379100,8.526379150390625,0.0006736069917678833,0.0008981158025562763,-0.0004079822974745184
1738772136634370000,8.5363701171875,0.00010768522042781115,-0.0003181498032063246,0.000022917171008884907
1738772136644361200,8.546361328125,0.000014988239854574203,-0.0011917499359697104,0.0011862077517434955
1738772136654353200,8.556353271484374,-0.0009783708956092596,0.0013390521053224802,-0.00015389492909889668
1738772136664344300,8.56634423828125,-0.0010597137734293938,0.0011945238802582026,0.00018447815091349185
1738772136674335200,8.576335205078125,0.001143519300967455,0.00021421420387923717,0.0009376200614497066
1738772136684326100,8.586326171875,-0.00033837760565802455,-0.0011251354590058327,0.000903223583009094
1738772136694317000,8.596317138671875,0.0007407352095469832,0.001247741049155593,0.0003966903896071017
1738772136704308200,8.60630810546875,0.000014054239727556705,0.00009230663999915123,-0.00010773527901619673
1738772136714299100,8.616299072265624,0.0004297737032175064,0.0007671515922993422,0.000020096456864848733
1738772136724291000,8.626291015625,0.00003134680446237326,-0.0000405898317694664,0.0015206675743684173
1738772136734282200,8.6362822265625,-0.000436570611782372,0.00025582010857760906,0.00046978419413790107
1738772136744273200,8.646273193359375,0.0006056707352399826,0.00007951119914650917,-0.0020727626979351044
1738772136754264000,8.65626416015625,-0.000053994241170585155,0.00135516538284719,0.0006319438107311726
1738772136764255200,8.666255126953125,-0.0005413329345174134,-0.000006277812644839287,0.0001633782812859863
1738772136774246100,8.67624609375,-0.0010958031052723527,-0.0013700826093554497,-0.0007141332607716322
1738772136784237000,8.686237060546874,0.001081525580957532,-0.00114917173050344,-0.000816399697214365
1738772136794228200,8.696228271484374,0.0018141611944884062,0.0008466013241559267,0.001340494491159916
1738772136804220200,8.70622021484375,0.00027993833646178246,0.0006143932696431875,-0.0007471012650057673
1738772136814211000,8.716211181640626,0.0002479804679751396,0.00017656967975199223,-0.00006266887066885829
1738772136824202200,8.7262021484375,0.00003825523890554905,-0.0010052237194031477,0.0004549752629827708
1738772136834193200,8.736193115234375,0.0016047265380620956,0.0014994791708886623,-0.0006499702576547861
1738772136844184000,8.74618408203125,-0.0006095411372371018,0.0002111524809151888,0.0009524057386443019
1738772136854175000,8.756175048828124,0.0004445380764082074,0.0011653632391244173,0.0000634425668977201
1738772136864166100,8.766166259765624,0.0010432546259835362,-0.0011685984209179878,-0.0008808329002931714
1738772136874158000,8.776157958984374,0.0008983787847682834,0.0009688546415418386,0.00025660317623987794
1738772136884149200,8.786149169921876,-0.002218005247414112,0.0015843112487345934,-0.0004922823281958699
1738772136894140200,8.79614013671875,-0.0013476840686053038,0.0015587450470775366,-0.0012118684826418757
1738772136904131000,8.806131103515625,-0.0005041448748670518,-0.0012545406352728605,-0.001704515772871673
1738772136914122000,8.8161220703125,0.0003280929522588849,-0.0005567925982177258,-0.0012515120906755328
1738772136924113200,8.826113037109375,0.0005921818083152175,0.001339112175628543,0.002512528095394373
1738772136934104300,8.836104248046874,-0.0009303474216721952,0.0005646648351103067,-0.0014430650044232607
1738772136944096000,8.846095947265624,0.0012752426555380225,-0.00038310117088258266,-0.0008058070670813322
1738772136954087200,8.856087158203126,0.00006909703370183706,-0.0005735170561820269,0.0019148782594129443
1738772136964078000,8.866078125,-0.00023884535767138004,-0.00013157795183360577,0.0009954357519745827
1738772136974069000,8.876069091796875,-0.0008311323472298682,0.0004926670808345079,-0.0004277575062587857
1738772136984060200,8.88606005859375,-0.0004172360640950501,-0.0023534009233117104,0.0008176342817023396
1738772136994051300,8.89605126953125,0.0012357881059870124,-0.0010274131782352924,0.0012242990778759122
1738772137004041700,8.906041748046874,0.00021946884226053953,0.00009279558435082436,0.001105030532926321
1738772137014032600,8.91603271484375,0.00046234915498644114,0.0006275584455579519,-0.0011376173933967948
1738772137024024800,8.92602490234375,-0.0005489385221153498,-0.0002945209853351116,-0.0013942753430455923
1738772137034015700,8.936015625,-0.0003971383557654917,0.0004913776647299528,0.0010387885849922895
1738772137044006700,8.946006591796875,0.0008671787800267339,0.0017147844191640615,0.0002159879368264228
1738772137053997800,8.955997802734375,-0.00036479951813817024,0.00035364250652492046,-0.0005512687494046986
1738772137063988700,8.96598876953125,0.00152771663852036,-0.0006983214989304543,-0.000344923697412014
1738772137073979600,8.975979736328124,0.0007982768584042788,-0.00127462949603796,0.00017758848844096065
1738772137083970800,8.985970703125,-0.0001080874353647232,0.0014756610617041588,-0.00042884310823865235
1738772137093962800,8.995962646484376,0.000011754804290831089,0.0007952232845127583,0.0005461401306092739
1738772137103953700,9.00595361328125,0.00030202302150428295,-0.001022830605506897,-0.0001781442842911929
1738772137113944800,9.01594482421875,0.0011249397648498416,0.00019982666708528996,0.0017939263489097357
1738772137123935700,9.025935791015625,0.0018768662121146917,0.0018460811115801334,-0.0005785535322502255
1738772137133926700,9.0359267578125,0.0002893558703362942,0.001182687934488058,0.0005399740766733885
1738772137143917800,9.045917724609374,-0.0010829893872141838,-0.0013223886489868164,-0.0005757486214861274
1738772137153908700,9.05590869140625,-0.00044516229536384344,-0.0009985482320189476,0.00033265561796724796
1738772137163899600,9.065899658203126,0.00016589532606303692,0.0010468796826899052,0.001128793228417635
1738772137173891800,9.075891845703126,-0.001065284013748169,0.0006878855638206005,0.0012100196909159422
1738772137183882800,9.0858828125,0.0023767973762005568,-0.0020827215630561113,0.00024405785370618105
1738772137193873700,9.095873779296875,-0.0006898326682858169,-0.0010595351923257113,0.00030291371513158083
1738772137203864800,9.10586474609375,0.00006250874139368534,0.0018284800462424755,0.0002407096908427775
1738772137213855700,9.115855712890625,-0.0004818413872271776,0.0012505738995969296,0.0011903929989784956
1738772137223846700,9.1258466796875,0.0016318532871082425,-0.0019389200024306774,-0.0004204514261800796
1738772137233837600,9.135837646484376,0.00015859247650951147,-0.001113340025767684,-0.0019829280208796263
1738772137243829800,9.145829833984376,-0.00023486500140279531,0.0016136413905769587,-0.0010353896068409085
1738772137253820700,9.155820556640625,-0.00023033760953694582,0.0029505479615181684,0.001426436472684145
1738772137263811600,9.1658115234375,-0.0019334242679178715,0.0004816628061234951,-0.0007606912404298782
1738772137273802800,9.175802734375,-0.00025936122983694077,-0.0016816230490803719,-0.0005625520134344697
1738772137283793700,9.185793701171875,0.0000870940275490284,0.00018160976469516754,0.0007895809831097722
1738772137293784600,9.19578466796875,0.0006295798812061548,0.0017291726544499397,0.0004252605140209198
1738772137303775700,9.205775634765626,0.0003353176871314645,-0.0006802135612815619,-0.00006596415187232196
1738772137313766700,9.2157666015625,-0.0010540534276515245,-0.0020219143480062485,-0.00028141390066593885
1738772137323758600,9.225758544921876,-0.0002339110942557454,-0.00027379742823541164,0.0006434678216464818
1738772137333749800,9.235749755859375,0.0007005920633673668,0.0014149132184684277,0.00031456747092306614
1738772137343740700,9.24574072265625,-0.0010975392069667578,-0.0008550491183996201,0.00018610910046845675
1738772137353731600,9.255731689453125,0.0013528353301808238,-0.002069184323772788,-0.0009995301952585578
1738772137363722800,9.26572265625,0.0014178248820826411,0.00044161267578601837,-0.00017876975471153855
1738772137373713700,9.275713623046874,0.00031128141563385725,0.0018994268029928207,0.0005908838356845081
1738772137383704600,9.28570458984375,0.0019273317884653807,-0.0005255723372101784,0.000011474854545667768
1738772137393696800,9.29569677734375,-0.0018024253658950329,0.00043582869693636894,-0.00116431072819978
1738772137403687700,9.305687744140625,-0.0009078186703845859,-0.000898346770554781,-0.0013232424389570951
1738772137413678600,9.3156787109375,-0.0005895709618926048,0.00020819669589400291,0.00047545653069391847
1738772137423669800,9.325669677734375,0.00032437266781926155,-0.000003864523023366928,-0.0012118308804929256
1738772137433660700,9.33566064453125,0.001655420521274209,-0.0008363688830286264,-0.0007558976649306715
1738772137443651600,9.345651611328124,0.0008399849757552147,-0.0006171909626573324,-0.0006555754225701094
1738772137453642500,9.355642578125,-0.0007999896188266575,0.0018534236587584019,0.0006610914715565741
1738772137463633700,9.365633544921875,-0.00036415253998711705,0.0005344976671040058,0.00008579459972679615
1738772137473625600,9.37562548828125,-0.0009489826625213027,-0.0005856279749423265,0.00040191179141402245
1738772137483616500,9.385616455078125,-0.00012020382564514875,-0.0014690868556499481,0.0011887969449162483
1738772137493607700,9.395607666015625,-0.00048425793647766113,-0.0002043517306447029,-0.0007212221389636397
1738772137503598600,9.4055986328125,0.000779747380875051,0.0017259740270674229,0.00007857513264752924
1738772137513589500,9.415589599609374,-0.0004298604908399284,-0.0011664852499961853,-0.0019102735677734017
1738772137523580700,9.42558056640625,0.0004348920192569494,-0.0004289743956178427,-0.0007752337260171771
1738772137533571800,9.43557177734375,-0.0007480841013602912,0.001092489343136549,-0.0004902755026705563
1738772137543563500,9.4455634765625,-0.0011220285668969154,0.0015336009673774242,-0.0003927394573111087
1738772137553554700,9.4555546875,-0.0005121646681800485,-0.0016219783574342728,-0.0008388189598917961
1738772137563545600,9.465545654296875,-0.0006359172402881086,-0.0017683820333331823,-0.000013882905477657914
1738772137573536500,9.47553662109375,0.00003040558658540249,0.0004774616099894047,0.00022020895266905427
1738772137583527700,9.485527587890624,-0.0006453790701925755,-0.0007922120857983828,-0.0000707013241481036
1738772137593518800,9.495518798828124,-0.0011420586379244924,-0.0014036737848073244,-0.0006965441862121224
1738772137603509800,9.505509765625,0.0002851885510608554,-0.00040555396117269993,0.000014999561244621873
1738772137613500700,9.515500732421875,0.0009006451582536101,0.0007236264646053314,-0.0021714556496590376
1738772137623492600,9.52549267578125,-0.00028075510635972023,-0.00005349167622625828,-0.00001919866190291941
1738772137633483800,9.53548388671875,0.0001978148939087987,-0.00022659706883132458,-0.0003851169894915074
1738772137643475000,9.545474853515625,0.0006554028950631618,0.0008127312175929546,-0.0008865498821251094
1738772137653465900,9.5554658203125,-0.0005502101848833263,0.00035173818469047546,0.0016575679183006287
1738772137663456800,9.565456787109374,-0.0015347033040598035,0.0002601342275738716,0.0002705110819078982
1738772137673447700,9.57544775390625,-0.00023694487754255533,0.0003932924009859562,0.00004307713243179023
1738772137683438800,9.58543896484375,0.0007136646891012788,-0.000009469687938690186,0.0004644503351300955
1738772137693430800,9.5954306640625,0.00036612211260944605,0.0006198352202773094,0.0007336959824897349
1738772137703421700,9.605421630859375,-0.0014007010031491518,0.0013865022920072079,-0.0009922175668179989
1738772137713412900,9.615412841796875,-0.000842236215248704,0.001316727139055729,0.0006546812364831567
1738772137723403800,9.62540380859375,-0.00020806631073355675,-0.00008461344987154007,0.00010661475243978202
1738772137733394700,9.635394775390624,0.002693980000913143,0.0002916911616921425,0.0010134209878742695
1738772137743385900,9.6453857421875,0.0016971470322459936,0.0005276612937450409,-0.0002537854597903788
1738772137753376800,9.655376708984376,-0.00004855496808886528,-0.0015075262635946274,-0.0007613839698024094
1738772137763367700,9.66536767578125,0.0018247090047225356,-0.0008400313090533018,0.0017395233735442162
1738772137773359900,9.67535986328125,-0.0000285847345367074,0.00021298276260495186,-0.0005734320729970932
1738772137783350800,9.685350830078125,0.0008993762312456965,-0.0013167145662009716,0.0000967522501014173
1738772137793341700,9.695341796875,-0.00027694215532392263,-0.0009321540128439665,-0.0005967349279671907
1738772137803332900,9.705332763671874,-0.0002790701109915972,0.00018333224579691887,-0.0006860635476186872
1738772137813323800,9.71532373046875,-0.0001949142897501588,-0.000499768415465951,0.0007794739794917405
1738772137823314700,9.725314697265626,0.0006851900834590197,-0.00023827794939279556,-0.0009326132712885737
1738772137833305600,9.7353056640625,0.00018132012337446213,-0.0004585213027894497,0.00046341572306118906
1738772137843296800,9.745296875,0.0010549984872341156,-0.0007158082444220781,0.0008014548802748322
1738772137853288700,9.755288818359375,0.000020360341295599937,0.0009353519417345524,-0.0008222744800150394
1738772137863279900,9.76527978515625,0.0013704410521313548,-0.0003776061348617077,0.0008792998269200325
1738772137873270800,9.775270751953125,0.0005360727664083242,-0.0006947887595742941,0.0013224498834460974
1738772137883261700,9.78526171875,0.0002425379352644086,0.0006462275050580502,0.00010656710946932435
1738772137893252600,9.795252685546876,0.00018341571558266878,-0.0011063986457884312,-0.000816750864032656
1738772137903243800,9.805243896484376,0.0001683562295511365,-0.002035026205703616,0.00019488795078359544
1738772137913234700,9.815234619140625,-0.000761353294365108,0.0002084209118038416,0.000040957238525152206
1738772137923226600,9.8252265625,-0.0006505110650323331,0.0030798374209553003,-0.0003437239211052656
1738772137933217800,9.8352177734375,0.0013199617387726903,0.000024126609787344933,-0.0006052463431842625
1738772137943208700,9.845208740234375,0.0008176492992788553,-0.001965864095836878,0.00014388957060873508
1738772137953199600,9.85519970703125,0.000046397908590734005,0.001566020306199789,-0.0009530664538033307
1738772137963190800,9.865190673828126,-0.0007489327108487487,0.0027362725231796503,0.0008972053765319288
1738772137973181700,9.875181640625,0.002303316257894039,-0.00041318172588944435,0.0011435477063059807
1738772137983172600,9.885172607421875,-0.00023183191660791636,-0.0019069549161940813,-0.0006872211815789342
1738772137993163500,9.89516357421875,0.00036285200621932745,0.0009351703338325024,0.0008544826996512711
1738772138003155700,9.90515576171875,-0.0006502487231045961,-0.0004766695201396942,-0.0010843711206689477
1738772138013146600,9.915146728515625,0.0004869210533797741,-0.0016593793407082558,0.001110339886508882
1738772138023137800,9.9251376953125,-0.00008962175343185663,-0.00006147893145680428,0.00021932696108706295
1738772138033128700,9.935128662109374,-0.0000938827870413661,0.0018171146512031555,0.00017538483371026814
1738772138043119600,9.94511962890625,0.0015643473016098142,-0.0005071263294667006,-0.0014375688042491674
1738772138053110800,9.95511083984375,-0.0003344865399412811,-0.0016022182535380125,-0.00021517783170565963
1738772138063101700,9.965101806640625,-0.0009785429574549198,0.0008830963633954525,-0.0004055778554175049
1738772138073093600,9.97509375,0.00020203646272420883,0.000695875845849514,-0.0009483300964348018
1738772138083084800,9.985084716796875,0.001062219263985753,-0.0007903401274234056,-0.0005016479408368468
1738772138093075700,9.99507568359375,-0.0009359504329040647,0.00027758744545280933,0.0011039718519896269
1738772138103066600,10.005066650390624,0.00026890344452112913,-0.001669679069891572,-0.0021314548794180155
1738772138113057800,10.015057861328126,-0.0010488287080079317,-0.0022340030409395695,0.00009840988786891103
1738772138123048700,10.025048583984375,0.0011045486899092793,-0.0015758743975311518,0.0012087756767868996
1738772138133039600,10.03503955078125,0.00010826019570231438,0.0011141845025122166,0.0001331249950453639
1738772138143030500,10.045030517578125,-0.0009401005227118731,-0.001756168669089675,0.0008585546747781336
1738772138153022700,10.055022705078125,-0.001225591404363513,-0.0022421954199671745,0.00007771587115712464
1738772138163013600,10.065013671875,0.0013454974396154284,0.0004135959316045046,-0.0001145180722232908
1738772138173004500,10.075004638671874,-0.0008931558695621789,0.002019482431933284,0.0021084225736558437
1738772138182995700,10.08499560546875,-0.000511703547090292,-0.00019542989321053028,0.0013262764550745487
1738772138192986600,10.094986572265626,0.001501646125689149,-0.0013560354709625244,-0.0022207878064364195
1738772138202977500,10.1049775390625,-0.0005735338781960309,-0.0010022150818258524,0.0003547438536770642
1738772138212968700,10.11496875,-0.0012931199744343758,0.0009421589784324169,0.002163562923669815
1738772138222959900,10.1249599609375,-0.0005314121372066438,0.001214866992086172,0.0010317539563402534
1738772138232951600,10.13495166015625,-0.00038706883788108826,-0.0006560038309544325,-0.001750450348481536
1738772138242942700,10.144942626953124,-0.0005521723651327193,-0.001904551056213677,0.0007902383804321289
1738772138252933600,10.15493359375,0.00016395165584981441,0.00012610945850610733,0.0005699950270354748
1738772138262924500,10.164924560546876,-0.00019922025967389345,0.0015880453865975142,0.0003838945413008332
1738772138272916000,10.174916015625,0.00033208029344677925,0.0008282454218715429,0.00034368084743618965
1738772138282907000,10.184906982421875,0.0011285863583907485,-0.0028194054029881954,-0.002249388489872217
1738772138292897800,10.194897705078125,0.0006835722597315907,-0.0009583882056176662,0.001455601304769516
1738772138302888700,10.204888671875,-0.00012166996020823717,0.00028373347595334053,0.0009929784573614597
1738772138312880600,10.214880615234375,-0.00011288153473287821,0.0024198549799621105,-0.001683498383499682
1738772138322871800,10.224871826171874,0.000425739330239594,-0.0003819854464381933,-0.002663811668753624
1738772138332863000,10.234863037109376,-0.00024883938021957874,-0.003236094955354929,0.0007282564765773714
1738772138342854000,10.24485400390625,0.002000924665480852,-0.0006885151378810406,0.0004320580919738859
1738772138352844800,10.2548447265625,-0.0005293444846756756,0.0003080395981669426,0.0014688267838209867
1738772138362835700,10.264835693359375,0.00011711742263287306,0.0003857517149299383,-0.0016380557790398598
1738772138372827000,10.274826904296875,0.0004196525551378727,-0.0017594248056411743,-0.0015570956747978926
1738772138382817800,10.28481787109375,-0.0006449663196690381,0.0022888844832777977,0.0005458198138512671
1738772138392809700,10.294809814453124,0.0004099117359146476,0.0022832918912172318,0.00047684391029179096
1738772138402801000,10.30480078125,0.0007388003868982196,-0.0013496947940438986,-0.0010901147034019232
1738772138412791800,10.314791748046876,-0.0003134145517833531,-0.0014642106834799051,0.00003826673491857946
1738772138422782700,10.32478271484375,0.000597421545535326,-0.0006045587360858917,0.0014972866047173738
1738772138432774000,10.33477392578125,0.0005785130197182298,0.0022751172073185444,0.0009579964098520577
1738772138442764800,10.344764892578125,0.001945624127984047,-0.0003224362153559923,0.0005878008669242263
1738772138452755700,10.354755615234374,0.00037515792064368725,-0.0010603980626910925,-0.0003054233966395259
1738772138462748000,10.364747802734374,-0.0005206471541896462,0.0003156340681016445,-0.0003552692069206387
1738772138472738800,10.37473876953125,-0.00021278578788042068,0.0010400139726698399,-0.00008682257612235844
1738772138482729700,10.384729736328126,0.0010258835973218083,-0.00031097675673663616,0.00027899915585294366
1738772138492721000,10.394720947265625,-0.001486276276409626,0.0003383017610758543,-0.0006618956103920937
1738772138502711800,10.4047119140625,-0.0011331624118611217,0.00041466555558145046,-0.0015813986537978053
1738772138512702700,10.41470263671875,-0.0004189026658423245,0.00007884111255407333,-0.00015873805386945605
1738772138522693600,10.424693603515625,0.00012794905342161655,-0.00006886571645736694,-0.0019454857101663947
1738772138532684800,10.434684814453124,0.0005244937492534518,0.0003005147445946932,0.0004633435164578259
1738772138542676700,10.4446767578125,-0.0004381840699352324,0.00032237637788057327,-0.002564043505117297
1738772138552668000,10.45466796875,-0.000020334147848188877,0.00019507715478539467,-0.0005062189302407205
1738772138562658800,10.464658935546876,0.001172443968243897,0.0009927458595484495,0.0006023614550940692
1738772138572649700,10.474649658203125,0.00015857850667089224,0.001139219617471099,0.0011765388771891594
1738772138582640600,10.484640625,-0.0007105497061274946,-0.0003470869269222021,0.00044418073957785964
1738772138592631800,10.4946318359375,0.0008428720757365227,0.00021270941942930222,-0.0008687576628290117
1738772138602622700,10.504622802734374,0.000118100899271667,-0.0005301861092448235,0.00033605593489483
1738772138612613600,10.514613525390626,0.0006587225943803787,0.0009603849612176418,0.0002910484909079969
1738772138622605800,10.524605712890626,-0.0020789792761206627,0.0009347773157060146,-0.0004928922862745821
1738772138632596700,10.5345966796875,-0.0007844166830182076,-0.0008388878777623177,0.00087037991033867
1738772138642587600,10.544587646484375,-0.00029642804292961955,0.000495456624776125,0.0014332059072330594
1738772138652578800,10.554578857421875,-0.00030601542675867677,0.0005995864048600197,0.0008531694766134024
1738772138662569700,10.56456982421875,0.0006220003124326468,-0.00021650060079991817,-0.00111428985837847
1738772138672560600,10.574560546875,-0.0006280874367803335,-0.0008276959415525198,-0.000028785347240045667
1738772138682551800,10.5845517578125,0.0001491605071350932,-0.00019224477000534534,0.00047314981929957867
1738772138692542700,10.594542724609376,-0.00022554630413651466,0.0023065991699695587,-0.00012100141611881554
1738772138702534700,10.60453466796875,-0.0013627838343381882,-0.002265456598252058,0.0005772560834884644
1738772138712525800,10.61452587890625,0.0002095464151352644,0.00014017662033438683,-0.0005657727015204728
1738772138722516700,10.624516845703125,0.0006128128152340651,-0.0006872105877846479,0.0015999875031411648
1738772138732507600,10.634507568359375,-0.0007808193331584334,0.00008324184454977512,0.0010918562766164541
1738772138742498600,10.64449853515625,0.0008676996221765876,-0.0000883578322827816,-0.0007109460420906544
1738772138752489700,10.65448974609375,-0.000993050984106958,-0.0010921030770987272,-0.00141801533754915
1738772138762480600,10.664480712890626,-0.0012541727628558874,-0.0006967582739889622,-0.0004897977923974395
1738772138772471600,10.674471435546875,-0.001401711953803897,0.0015948917716741562,0.001847126055508852
1738772138782463700,10.684463623046875,0.0005258418386802077,-0.0003090919926762581,-0.0010375288547948003
1738772138792454700,10.69445458984375,0.0018656780011951923,-0.001938946545124054,-0.0006849262863397598
1738772138802445600,10.704445556640625,-0.00023011292796581984,-0.00037014856934547424,-0.0008929940522648394
1738772138812436700,10.714436767578125,0.0014008069410920143,0.001309773651883006,-0.0003073649131692946
1738772138822427600,10.724427734375,0.0009814267978072166,0.0006004550959914923,-0.00044505088590085506
1738772138832418600,10.73441845703125,-0.000805554271209985,0.000060099875554442406,-0.0005840678932145238
1738772138842409700,10.74440966796875,-0.001260496792383492,-0.00045295502059161663,-0.001236489973962307
1738772138852401000,10.75440087890625,-0.0005049579776823521,0.0005726281087845564,0.00028364232275635004
1738772138862392600,10.764392578125,-0.00020638445857912302,-0.001227197702974081,-0.0004576494393404573
1738772138872383700,10.7743837890625,-0.0009454116225242615,0.0006543253548443317,0.001413487596437335
1738772138882374700,10.784374755859375,0.000566209084354341,-0.0001676655374467373,-0.0006319313542917371
1738772138892365600,10.794365478515624,-0.000023947330191731453,-0.0005109470803290606,-0.000601837644353509
1738772138902356700,10.804356689453124,-0.00029241287847980857,0.0002979682758450508,0.0013950166758149862
1738772138912348000,10.814347900390626,0.0014399733627215028,0.0010524420067667961,0.0020285826176404953
1738772138922338800,10.8243388671875,0.000538057996891439,0.0005999926943331957,-0.0020647505298256874
1738772138932329700,10.834329833984375,-0.0006217486225068569,-0.0003933664411306381,-0.000530769641045481
1738772138942321700,10.84432177734375,0.0006078414153307676,-0.002094488125294447,0.00011856068158522248
1738772138952312800,10.854312744140625,-0.000626001157797873,0.0017631007358431816,0.0006892760866321623
1738772138962303700,10.8643037109375,0.00019940792117267847,0.00043718330562114716,0.0007038345793262124
1738772138972295000,10.874294921875,0.000602876883931458,-0.0011854805052280426,0.0014561775606125593
1738772138982285800,10.884285888671876,-0.001089427387341857,-0.0007479637861251831,0.001841714489273727
1738772138992276700,10.89427685546875,0.0001617256784811616,0.0017631305381655693,-0.0001932068553287536
1738772139002268400,10.904268310546875,0.0018345046555623412,0.0020120181143283844,-0.000967583036981523
1738772139012260000,10.914260009765625,0.002134376671165228,-0.0017020264640450478,-0.00013427992234937847
1738772139022251000,10.9242509765625,0.0004586225841194391,-0.0000466697383671999,-0.00047591348993591964
1738772139032242200,10.9342421875,0.0003379813861101866,0.00023509282618761063,0.00014034195919521153
1738772139042233300,10.9442333984375,0.0015105510829016566,-0.001813606359064579,-0.0013192391488701105
1738772139052224300,10.954224365234374,0.0005110667552798986,-0.0017417010385543108,-0.001838289201259613
1738772139062215200,10.964215087890626,-0.0008259388851001859,0.0015484308823943138,-0.00044711839291267097
1738772139072206300,10.974206298828125,-0.0008232756517827511,0.0017154109664261341,0.0010610297322273254
1738772139082197200,10.984197265625,0.0006049018120393157,-0.003092467784881592,-0.00177589594386518
1738772139092189200,10.994189208984375,0.00020915607456117868,-0.0020272033289074898,-0.0001412476267432794
1738772139102180400,11.004180419921875,0.000060954829677939415,0.0010231989435851574,0.0006602603825740516
1738772139112171300,11.014171142578125,0.000369082554243505,0.0013574259355664253,0.00020778935868293047
1738772139122162200,11.024162109375,-0.000545446528121829,-0.002223899122327566,-0.0012561411131173372
1738772139132153300,11.0341533203125,-0.0009630301501601934,-0.0023514647036790848,0.0005260462639853358
1738772139142144300,11.044144287109376,-0.0006068941438570619,0.0017279195599257946,0.000658651813864708
1738772139152135200,11.05413525390625,0.00017607526388019323,0.0009428192861378193,0.0018616017187014222
1738772139162126300,11.064126220703125,0.0014071674086153507,-0.0014061706606298685,-0.00025143809034489095
1738772139172118300,11.0741181640625,-0.0006810171762481332,-0.0029769029933959246,-0.00010283369920216501
1738772139182109200,11.084109130859375,-0.0011368440464138985,-0.00040967646054923534,-0.00010946698603220284
1738772139192100400,11.094100341796874,-0.00009448279161006212,0.003048438113182783,0.002050622832030058
1738772139202091300,11.10409130859375,0.0007082201773300767,0.0010161609388887882,-0.0011859888909384608
1738772139212082200,11.114082275390626,-0.00011096824891865253,-0.0031833776738494635,-0.0022267522290349007
1738772139222073300,11.1240732421875,0.0016625518910586834,-0.001192368334159255,-0.00048339401837438345
1738772139232064300,11.134064208984375,0.0000318984966725111,0.0027901227585971355,0.0028578077908605337
1738772139242056200,11.14405615234375,-0.0008637967985123396,0.002119968645274639,-0.0001504348183516413
1738772139252047400,11.15404736328125,0.0006675207987427711,-0.0016518663614988327,-0.0003941140603274107
1738772139262038300,11.164038330078125,-0.00009177997708320618,-0.00338841718621552,-0.0010362089378759265
1738772139272029200,11.174029296875,-0.0007407923112623394,0.00040871789678931236,0.000860760745126754
1738772139282020000,11.18402001953125,-0.00031319173285737634,0.0029895282350480556,0.0008135172538459301
1738772139292011300,11.19401123046875,-0.001767544075846672,-0.0017439741641283035,-0.0007763898465782404
1738772139302002200,11.204002197265625,-0.0010048596886917949,-0.0011105709709227085,-0.0003027700586244464
1738772139311993000,11.2139931640625,0.0002311134012416005,0.0004231436178088188,0.0010927263647317886
1738772139321985300,11.2239853515625,-0.0010366856586188078,-0.000735854497179389,0.0007724658935330808
1738772139331976200,11.23397607421875,0.026638351380825043,-0.013169887475669384,-0.004664377309381962
1738772139341967000,11.243967041015624,0.007685232441872358,0.005690382793545723,0.0018230996793136
1738772139351958300,11.253958251953126,0.0015455809189006686,-0.004975576885044575,-0.0005196830024942756
1738772139361949200,11.26394921875,-0.0023836069740355015,0.0034164125099778175,0.0021562129259109497
1738772139371940000,11.273940185546875,-0.0006048818468116224,0.006524587981402874,0.001362324575893581
1738772139381931300,11.28393115234375,-0.0022839829325675964,0.002871893811970949,0.0010749113280326128
1738772139391923200,11.293923095703125,-0.009765069000422955,-0.020770851522684097,-0.004186163190752268
1738772139401914000,11.3039140625,0.015564660541713238,0.014055335894227028,0.007067807950079441
1738772139411905300,11.3139052734375,-0.009751347824931145,-0.004315148573368788,-0.000282516295555979
1738772139421896200,11.323896240234374,0.017066193744540215,0.007765007205307484,0.00043823072337545455
1738772139431887000,11.33388720703125,-0.01223124098032713,-0.018959015607833862,-0.004046000074595213
1738772139441878300,11.343878173828125,0.016217807307839394,0.013342438265681267,0.0031370767392218113
1738772139451869200,11.353869140625,-0.014067127369344234,-0.008619586005806923,0.00031519110780209303
1738772139461860000,11.363860107421875,0.017731163650751114,0.011373327113687992,0.000700620817951858
1738772139471852300,11.373852294921875,-0.014782569371163845,-0.01406891644001007,-0.00226187938824296
1738772139481843200,11.38384326171875,0.005385515280067921,0.007804567925632,-0.0008788852719590068
1738772139491834000,11.393834228515624,0.013973677530884743,-0.0030848311726003885,-0.0013436069712042809
1738772139501825000,11.403824951171876,-0.0018677092157304287,0.0016327854245901108,0.002463130047544837
1738772139511816200,11.413816162109375,0.00041834835428744555,-0.00206474750302732,-0.00025356048718094826
1738772139521807000,11.42380712890625,0.00043099233880639076,-0.00043998449109494686,-0.0019403784535825253
1738772139531798000,11.433798095703125,-0.0002774084568955004,-0.002034951699897647,0.00009374399087391794
1738772139541789200,11.4437890625,0.0006158911855891347,0.0007945704273879528,0.000858028419315815
