time,seconds_elapsed,z,y,x
1738772128120671200,0.022671142578125,0.001398425898514688,-0.003713245503604412,-0.0023787354584783316
1738772128130662400,0.032662353515625,0.0019182749092578888,0.006484797224402428,0.0007928230334073305
1738772128140653300,0.0426533203125,-0.0005062668933533132,0.0073327478021383286,0.002814162289723754
1738772128150644200,0.052644287109375,0.0002055960358120501,0.005048820748925209,0.0009925601771101356
1738772128160635400,0.062635498046875,0.0019917781464755535,0.00019441076437942684,-0.0010303769959136844
1738772128170626300,0.072626220703125,-0.0003336940717417747,0.0008460862445645034,0.0006162554491311312
1738772128180617200,0.0826171875,0.00166580721270293,0.006235525477677584,0.00039015308720991015
1738772128190609400,0.092609375,0.0024232103023678064,0.006521548610180616,0.00039734362508170307
1738772128200600300,0.102600341796875,0.0029172266367822886,0.0013145363191142678,0.0002532666258048266
1738772128210591200,0.11259130859375,0.0016535567119717598,0.0018849853659048676,-0.0007941546500660479
1738772128220582400,0.12258251953125,0.001475657569244504,0.0037563887890428305,0.0006532734259963036
1738772128230573300,0.1325732421875,0.00021278657368384302,0.004989432170987129,-0.000589091214351356
1738772128240564200,0.142564208984375,0.0011377023765817285,0.006135390605777502,0.0001704423048067838
1738772128250555400,0.152555419921875,0.0003904194163624197,0.002915628720074892,0.0010050770360976458
1738772128260547300,0.16254736328125,0.0018849853659048676,0.003703924361616373,0.0005358280031941831
1738772128270538200,0.172538330078125,0.000355532014509663,0.00330311874859035,0.000297475082334131
1738772128280529200,0.182529052734375,0.0032738239970058203,0.0034751589410007,0.0013962953817099333
1738772128290520300,0.192520263671875,0.0017070862231776118,0.0033686324022710323,-0.001273523666895926
1738772128300511500,0.202511474609375,0.0015443670563399792,0.0020655477419495583,0.0015720640076324344
1738772128310502400,0.21250244140625,0.0005957491230219603,0.0028101676143705845,-0.0002609897928778082
1738772128320493600,0.22249365234375,0.0029345371294766665,0.003379018744453788,0.0014231932582333684
1738772128330485200,0.2324853515625,0.0008056062506511807,0.003254382871091366,0.0004239752306602895
1738772128340476200,0.24247607421875,0.0022413162514567375,0.004000600427389145,0.0017193368403241038
1738772128350467300,0.25246728515625,0.001710548298433423,0.0035334820859134197,-0.0018985675415024161
1738772128360458500,0.26245849609375,0.0011163970921188593,0.003269829088822007,0.000014114753867033869
1738772128370449400,0.272449462890625,0.000821318884845823,0.005280515644699335,0.0005070658517070115
1738772128380440600,0.282440673828125,0.0007789746159687638,0.003769704606384039,-0.00038296254933811724
1738772128390431500,0.292431396484375,0.0016381103778257966,0.004004062619060278,-0.0005648564547300339
1738772128400422400,0.30242236328125,0.0026471822056919336,0.0024591628462076187,0.00008602010348113254
1738772128410414300,0.312414306640625,0.003561445279046893,0.0031672974582761526,-0.00017736652807798237
1738772128420405500,0.322405517578125,0.0013651363551616669,0.0037148434203118086,0.0025478461757302284
1738772128430396400,0.332396484375,0.001169394003227353,0.003388339886441827,0.0012721919920295477
1738772128440387300,0.34238720703125,0.0006953513366170228,0.0018492990639060736,-0.0005970807396806777
1738772128450378500,0.35237841796875,0.0009456885163672268,0.002700445242226124,0.0009419600828550756
1738772128460369400,0.362369384765625,0.0006538060260936618,0.004348675720393658,0.0011558119440451264
1738772128470360300,0.3723603515625,0.0005635248962789774,0.003978762775659561,0.0010005496442317963
1738772128480352500,0.3823525390625,0.001645567244850099,0.0038690404035151005,0.0005555353709496558
1738772128490343400,0.392343505859375,0.0015840481501072645,0.003409378696233034,-0.00022184131375979632
1738772128500334300,0.402334228515625,0.0020413128659129143,0.0028418591246008873,0.0007339671719819307
1738772128510325500,0.412325439453125,0.0019387812353670597,0.003629089565947652,-0.00024101608141791075
1738772128520316400,0.42231640625,0.0015305186389014125,0.0036402747500687838,0.0002950782363768667
1738772128530307300,0.432307373046875,0.0021544971968978643,0.003049852093681693,-0.0006807039608247578
1738772128540298500,0.442298583984375,0.0012996225850656629,0.004910602699965239,-0.0012990899849683046
1738772128550290400,0.45229052734375,0.0002814961189869791,0.00321843009442091,0.000050866376113845035
1738772128560281300,0.46228125,0.0015307849971577525,0.0026913906913250685,-0.00015472965606022626
1738772128570272500,0.4722724609375,0.0025984463281929493,0.0037257622461766005,0.00038456046604551375
1738772128580263400,0.482263427734375,0.00007270430069183931,0.003376355627551675,0.0009147958480753005
1738772128590254300,0.49225439453125,0.0020221380982548,0.0033364081755280495,-0.0005970807396806777
1738772128600245500,0.50224560546875,0.0016724651213735342,0.004236290231347084,0.0014692660188302398
1738772128610236400,0.512236328125,-0.0002836266648955643,0.004625378176569939,-0.00012889699428342283
1738772128620228400,0.522228271484375,0.0008761800127103925,0.004343615844845772,0.0007850998663343489
1738772128630219500,0.532219482421875,0.0020692760590463877,0.0038482677191495895,-0.00027031084755435586
1738772128640210400,0.54221044921875,0.0011912320042029023,0.0025102957151830196,0.0004929511342197657
1738772128650201300,0.552201416015625,0.0003581951605156064,0.0032080437522381544,0.00036511936923488975
1738772128660192300,0.562192138671875,0.0004767058417201042,0.0029441246297210455,0.0011046791914850473
1738772128670183400,0.572183349609375,0.0011544802691787481,0.004674646537750959,-0.0004982774262316525
1738772128680174300,0.58217431640625,0.0014628743520006537,0.0030216225422918797,0.0015731292078271508
1738772128690166500,0.59216650390625,0.0012357067316770554,0.004593953024595976,0.0004511394945438951
1738772128700157400,0.602157470703125,-0.0005691175465472043,0.0039020637050271034,0.0005699164466932416
1738772128710148400,0.6121484375,0.0022916500456631184,0.004351072479039431,-0.0003603257064241916
1738772128720139300,0.62213916015625,0.0016085492679849267,0.0034229608718305826,-0.001070857048034668
1738772128730130400,0.63213037109375,0.001014131703414023,0.003442135639488697,0.0010426276130601764
1738772128740121300,0.642121337890625,0.001614940818399191,0.00472418125718832,0.0007331682136282325
1738772128750112300,0.6521123046875,-0.0007254450465552509,0.0033838124945759773,0.00019414443522691727
1738772128760104400,0.6621044921875,0.0022660838440060616,0.002284459536895156,-0.0004058657505083829
1738772128770095400,0.672095458984375,0.0009262474486604333,0.00446931691840291,0.0007933556917123497
1738772128780086300,0.682086181640625,0.0028706213925033808,0.004344148561358452,0.0004665858286898583
1738772128790077400,0.692077392578125,0.001820803270675242,0.0037609159480780363,0.001392300589941442
1738772128800068400,0.702068359375,0.0027451864443719387,0.002371012233197689,0.00008149272616719827
1738772128810059300,0.712059326171875,0.0006719155353493989,0.004865861497819424,0.00045087316539138556
1738772128820050400,0.722050537109375,0.00021145498612895608,0.0034024545457214117,-0.0009100021561607718
1738772128830042400,0.73204248046875,0.0007744472241029143,0.0043683829717338085,0.001050350721925497
1738772128840033300,0.742033203125,0.0012293151812627912,0.0049215215258300304,-0.0004990763845853508
1738772128850024400,0.7520244140625,0.0007997472421266139,0.003683151677250862,0.0017872473690658808
1738772128860015400,0.762015380859375,0.00007323692989302799,0.003742273896932602,0.00015046859334688634
1738772128870006300,0.77200634765625,0.0012474246323108673,0.004171575419604778,-0.000018375811123405583
1738772128879997200,0.7819970703125,0.0011994877131655812,0.0036368127912282944,0.00018322547839488834
1738772128889988400,0.79198828125,0.0015968313673511147,0.002861566608771682,-0.00036192359402775764
1738772128899980300,0.801980224609375,0.000538491178303957,0.004278101958334446,-0.0002466087171342224
1738772128909971500,0.811971435546875,0.0014314490836113691,0.0036045885644853115,-0.0006258428329601884
1738772128919962400,0.82196240234375,0.0005946838646195829,0.003153448924422264,0.0006894923863001168
1738772128929953300,0.831953369140625,-0.00036139096482656896,0.004194744862616062,0.0005299690528772771
1738772128939944200,0.841944091796875,0.0005408879951573908,0.0029294772539287806,-0.00003462109452812001
1738772128949935400,0.851935302734375,0.002549177734181285,0.0024085629265755415,0.0007123955874703825
1738772128959927300,0.86192724609375,0.001285241567529738,0.002679672557860613,0.0003448793722782284
1738772128969918200,0.871918212890625,0.0010612696642056108,0.0031470574904233217,-0.0005896238726563752
1738772128979909400,0.881909423828125,0.0017843178939074278,0.002552639925852418,0.0004647216119337827
1738772128989901600,0.891901611328125,0.0021084246691316366,0.0036605149507522583,0.002412291243672371
1738772128999892500,0.901892578125,0.000985103310085833,0.004483964294195175,0.0007001450285315514
1738772129009883400,0.91188330078125,0.0012341088149696589,0.003228283952921629,0.0008372978190891445
1738772129019874300,0.921874267578125,0.000316916179144755,0.0017062872648239136,-0.0007805725326761603
1738772129029866500,0.931866455078125,0.0010586065473034978,0.0034679684322327375,0.00040320257539860904
1738772129039857400,0.941857421875,0.0010104032699018717,0.004836034029722214,0.0015403723809868097
1738772129049848600,0.9518486328125,0.0012333098566159606,0.005524461157619953,0.0023928501177579165
1738772129059839500,0.961839599609375,0.0013185309944674373,0.0032589102629572153,0.00036964676110073924
1738772129069830400,0.971830322265625,0.0015699334908276796,0.0005821670056320727,0.0002719087351579219
1738772129079821300,0.9818212890625,0.0018032263033092022,0.002650644164532423,0.0006221143994480371
1738772129089812500,0.9918125,0.0018852517241612077,0.004076766781508923,0.0011976235546171665
1738772129099804400,1.001804443359375,0.0024288028944283724,0.003772101365029812,-0.0011733887949958444
1738772129109795300,1.01179541015625,0.00048123320448212326,0.001814677962101996,0.0005733785801567137
1738772129119786500,1.021786376953125,0.0003462109307292849,0.0038456046022474766,0.0012183962389826775
1738772129129777400,1.03177734375,0.0008080030675046146,0.005633917171508074,0.0011014834744855762
1738772129139768300,1.041768310546875,0.00016644757124595344,0.004986769054085016,0.00056219327962026
1738772129149759500,1.051759521484375,0.0017622136510908604,0.0004346278728917241,0.0009017463307827711
1738772129159750400,1.06175048828125,0.0036008600145578384,0.003418699838221073,-0.0001893507578643039
1738772129169742300,1.071742431640625,0.0008998821140266955,0.005576126743108034,0.0013539510546252131
1738772129179733500,1.0817333984375,0.0017547567840665579,0.0034416031558066607,0.0002801645314320922
1738772129189724400,1.091724365234375,0.0023941819090396166,0.0017656758427619934,-0.00020053602929692715
1738772129199715300,1.10171533203125,0.0013877731980755925,0.0032613070216029882,-0.0017720673931762576
1738772129209706500,1.11170654296875,0.0004338289436418563,0.004973985720425844,-0.00013369068619795144
1738772129219697400,1.121697509765625,0.0005336974863894284,0.003026149934157729,-0.000284159294096753
1738772129229688300,1.131688232421875,0.001493234420195222,0.0026517093647271395,0.00014807176194153726
1738772129239679200,1.14167919921875,0.0006508765509352088,0.004292482975870371,0.0002817624481394887
1738772129249671400,1.15167138671875,0.0023299995809793472,0.004244279582053423,0.000055660068028373644
1738772129259662300,1.161662353515625,0.0008186557097360492,0.0052112736739218235,0.0005970807396806777
1738772129269653500,1.171653564453125,0.0011800467036664486,0.0021813951898366213,-0.0005273058777675033
1738772129279644400,1.18164453125,0.0012178635224699974,0.0025126924738287926,-0.0003856257244478911
1738772129289635300,1.19163525390625,0.0011747203534469008,0.0043870252557098866,-0.0001448759576305747
1738772129299626200,1.201626220703125,0.0005605954211205244,0.004172640852630138,-0.00009054747351910919
1738772129309617400,1.211617431640625,0.001998702296987176,0.0022295983508229256,-0.0010186590952798724
1738772129319609300,1.221609375,0.00395799009129405,0.0022503710351884365,0.0015630092239007354
1738772129329600300,1.231600341796875,0.00047617321251891553,0.004119910299777985,0.0005105279851704836
1738772129339591400,1.24159130859375,-0.0004569984448608011,0.004973187111318111,0.0014090784825384617
1738772129349582300,1.251582275390625,0.0010255833622068167,0.0025363946333527565,-0.00006205165118444711
1738772129359573200,1.2615732421875,0.0013310478534549475,0.0038434739690274,0.000493750034365803
1738772129369564400,1.271564453125,0.00022610237647313625,0.0027324033435434103,0.0010964233661070466
1738772129379555600,1.2815556640625,0.0010612696642056108,0.0032471923623234034,-0.0007994809420779347
1738772129389547300,1.29154736328125,0.0025928535033017397,0.0032804817892611027,0.0010138654615730047
1738772129399538400,1.301538330078125,0.0014921691035851836,0.0018165421206504107,-0.00022503710351884365
1738772129409529300,1.311529296875,0.0011832424206659198,0.004326305352151394,0.00043542683124542236
1738772129419520300,1.321520263671875,0.0011731224367395043,0.0033100428991019726,0.0003414172388147563
1738772129429511400,1.331511474609375,0.0016980315558612347,0.004471713677048683,-0.00000852211542223813
1738772129439502600,1.341502685546875,0.0005528722540475428,0.004752144683152437,0.0011259844759479165
1738772129449493500,1.351493408203125,0.0018098842119798064,0.0027662254869937897,-0.0018940401496365666
1738772129459485400,1.3614853515625,0.003305781865492463,0.003930293023586273,0.0008189220097847283
1738772129469476400,1.371476318359375,0.0015965650090947747,0.005496498197317123,0.0007811051327735186
1738772129479467300,1.38146728515625,0.001487641828134656,0.0035350800026208162,0.0006058691651560366
1738772129489458700,1.391458740234375,0.0024261397775262594,0.002118811011314392,0.0015717976493760943
1738772129499449600,1.40144970703125,0.0023582291323691607,0.0032168321777135134,0.0010801780736073852
1738772129509440500,1.4114404296875,0.00025033715064637363,0.004023503512144089,0.0010333064710721374
1738772129519431400,1.421431396484375,0.0002788329729810357,0.004780906718224287,-0.00044288369826972485
1738772129529423400,1.43142333984375,0.001835716888308525,0.002424541860818863,0.0004697816038969904
1738772129539414500,1.44141455078125,0.001443166984245181,0.003518834710121155,0.0007118629291653633
1738772129549405400,1.451405517578125,0.0018192053539678454,0.004209924954921007,0.00024501082953065634
1738772129559396600,1.461396728515625,0.00096086849225685,0.00421338714659214,-0.0012458267156034708
1738772129569387500,1.471387451171875,0.001978728687390685,0.0037609159480780363,0.0017089504981413484
1738772129579378400,1.48137841796875,0.0005448827287182212,0.0036543896421790123,0.00017417073831893504
1738772129589369600,1.49136962890625,0.0011885687708854675,0.005386775825172663,0.0002846919232979417
1738772129599361500,1.501361572265625,0.00027031084755435586,0.004284759983420372,0.000013582121027866378
1738772129609352400,1.5113525390625,0.0017486315919086337,0.0020186761394143105,-0.002088717184960842
1738772129619343600,1.521343505859375,0.000215716048842296,0.0014447649009525776,0.0008117315010167658
1738772129629334500,1.53133447265625,-0.0007952199084684253,0.0054853130131959915,0.0020391824655234814
1738772129639325400,1.541325439453125,0.0019718045368790627,0.005841377656906843,0.00034674355993047357
1738772129649316600,1.551316650390625,-0.0002788329729810357,0.0018519621808081865,-0.0011374361347407103
1738772129659307500,1.5613076171875,0.0015459649730473757,0.00018189390539191663,0.0001424791116733104
1738772129669299500,1.571299560546875,0.00027084347675554454,0.0043840957805514336,0.003674363251775503
1738772129679290600,1.58129052734375,0.0002990729990415275,0.0054725296795368195,0.0009528790251351893
1738772129689281500,1.591281494140625,0.0024375913199037313,0.0011946940794587135,-0.00007909588020993397
1738772129699272400,1.6012724609375,0.0023459785152226686,0.0009741843095980585,0.0014032195322215557
1738772129709263600,1.611263671875,-0.0008783105295151472,0.00503870053216815,0.0014969628537073731
1738772129719254500,1.621254638671875,0.001847967505455017,0.006509032100439072,-0.00032623723382130265
1738772129729245400,1.631245361328125,0.0010626012226566672,0.0027180220931768417,0.000898550555575639
1738772129739236400,1.641236328125,0.0006921555614098907,0.0010466222884133458,-0.000075101139373146
1738772129749228500,1.651228515625,-0.001056476030498743,0.005821137689054012,0.0021704763639718294
1738772129759219500,1.661219482421875,-0.0006559365428984165,0.006302903406322002,0.001826395862735808
1738772129769210400,1.67121044921875,0.0022690133191645145,0.003049053018912673,-0.00019281286222394556
1738772129779201500,1.681201416015625,0.000010652644050423987,0.0002561961009632796,-0.0017571536591276526
1738772129789192400,1.6911923828125,0.0009893643436953425,0.0041039311327040195,0.0007355650886893272
1738772129799183400,1.701183349609375,-0.0000428768944402691,0.006512760184705257,0.001076982356607914
1738772129809174500,1.711174560546875,0.0009512811084277928,0.00364693277515471,-0.0006937534781172872
1738772129819166500,1.72116650390625,0.0017574200173839927,0.0009677927591837943,-0.0017576862592250109
1738772129829157400,1.731157470703125,-0.0003278351214248687,0.003772634081542492,-0.0001882854849100113
1738772129839148500,1.7411484375,0.0023587618488818407,0.00455879932269454,0.000278300343779847
1738772129849139500,1.751139404296875,0.0017896442441269755,0.0059566921554505825,-0.0010735202813521028
1738772129859130400,1.76113037109375,0.003790477057918906,0.00037390782381407917,-0.0005475459038279951
1738772129869121500,1.77112158203125,-0.00027537086862139404,0.0032983249984681606,0.0008162588928826153
1738772129879112400,1.781112548828125,0.0012199940392747521,0.008420915342867374,0.0011736550368368626
1738772129889104400,1.7911044921875,0.00015686018741689622,0.004600876942276955,-0.0013174657942727208
1738772129899095600,1.801095458984375,0.000300404557492584,-0.00025060345069505274,0.00034354778472334146
1738772129909086500,1.81108642578125,0.003750795964151621,0.003430950455367565,0.00043036683928221464
1738772129919077400,1.821077392578125,0.00021145498612895608,0.006743123754858971,0.000675377668812871
1738772129929068500,1.831068603515625,0.0008977515972219408,0.002718821167945862,-0.0010271812789142132
1738772129939059500,1.8410595703125,0.000630902883131057,0.0011760519118979573,0.0009259810904040933
1738772129949051400,1.851051513671875,-0.00023915186466183513,0.003296460723504424,0.0003414172388147563
1738772129959042600,1.86104248046875,-0.00007882956560933962,0.006935936864465475,0.00035180358099751174
1738772129969033500,1.871033447265625,0.0002724413643591106,0.0029768813401460648,0.0013305152533575892
1738772129979024400,1.8810244140625,0.0014793860027566552,0.0016354472609236836,-0.0011526161106303334
1738772129989015000,1.89101513671875,0.0006657902849838138,0.00339126936160028,0.0005121259018778801
1738772129999006000,1.901005859375,0.003489539958536625,0.006284261122345924,0.001933987601660192
1738772130008996900,1.910996826171875,0.0022714100778102875,0.005359611473977566,0.0011680624447762966
1738772130018989000,1.920989013671875,0.001520132296718657,0.0013587448047474027,0.00019867181254085153
1738772130028980000,1.93097998046875,0.0015880429418757558,0.004720453172922134,-0.0006412891671061516
1738772130038971000,1.940970947265625,0.0013603427214547992,0.005362807307392359,0.000461259507574141
1738772130048961800,1.9509619140625,0.0013148026773706079,0.003748132847249508,0.0014389059506356716
1738772130058953000,1.960952880859375,0.001329982653260231,0.002871420234441757,-0.0008021441171877086
1738772130068944000,1.97094384765625,0.0003123887872789055,0.0016844493802636862,0.000011717908819264267
1738772130078934800,1.980934814453125,0.0005808354471810162,0.0023337281309068203,0.0004013383586425334
1738772130088927000,1.990927001953125,0.0003563309437595308,0.004923119675368071,-0.000040746363083599135
1738772130098918000,2.00091796875,-0.0009632653673179448,0.003349457634612918,-0.0003158508916385472
1738772130108908800,2.01090869140625,0.0027419906109571457,0.0012982910266146064,-0.001228516222909093
1738772130118900000,2.02089990234375,0.0007752461824566126,0.0029555761720985174,0.00037710359902121127
1738772130128891000,2.030890869140625,0.0014620753936469555,0.0041731735691428185,0.00045566685730591416
1738772130138882000,2.040882080078125,-0.00024474450037814677,0.004989964887499809,0.0002990729990415275
1738772130148873200,2.050873291015625,0.00088976213010028,0.003090598387643695,-0.0007185208378359675
1738772130158865000,2.060864990234375,0.00046392265358008444,0.002579005202278495,0.000752875639591366
1738772130168855800,2.070855712890625,0.002049302449449897,0.004150004126131535,-0.0003818972909357399
1738772130178847000,2.080846923828125,0.0015062838792800903,0.003864246653392911,0.0009480853332206607
1738772130188838000,2.090837890625,0.0009480853332206607,0.0033867419697344303,0.00027750138542614877
1738772130198829000,2.1008291015625,0.00014700648898724467,0.0024141555186361074,-0.0000601874417043291
1738772130208820200,2.1108203125,0.0018410432385280728,0.0033103092573583126,0.0005829659639857709
1738772130218811100,2.12081103515625,0.000844754686113447,0.004837632179260254,0.00007217166421469301
1738772130228802800,2.130802734375,0.002383795566856861,0.004594751633703709,0.0012977584265172482
1738772130238794000,2.1407939453125,0.002103364560753107,0.000850879936479032,-0.0016729978378862143
1738772130248785000,2.150784912109375,0.002198439557105303,0.003153448924422264,0.00037923414492979646
1738772130258776000,2.160776123046875,0.00036245622322894633,0.002377936616539955,0.00245090713724494
1738772130268767000,2.17076708984375,0.001755023142322898,0.004058657679706812,0.0015792545164003968
1738772130278758100,2.180758056640625,0.0014000238152220845,0.002360093407332897,-0.0009195895399898291
1738772130288749000,2.1907490234375,0.0017675400013104081,0.0018130800453945994,0.0002719087351579219
1738772130298741000,2.200740966796875,0.0019172097090631723,0.004514856729656458,0.0009653958841226995
1738772130308732200,2.210732177734375,0.000711064029019326,0.004999019671231508,0.000716922979336232
1738772130318723000,2.22072314453125,0.0006103964988142252,0.0012650014832615852,-0.0014961638953536749
1738772130328714000,2.2307138671875,0.0022514364682137966,0.0018271948210895061,-0.0007579356315545738
1738772130338705200,2.240705078125,0.0008732505375519395,0.006127667147666216,0.0016998957144096494
1738772130348696000,2.250696044921875,0.00003382214708835818,0.004209392238408327,-0.00011691277177305892
1738772130358687000,2.26068701171875,0.0003808320325333625,0.0030975225381553173,-0.000254331884207204
1738772130368679200,2.27067919921875,0.002519350266084075,0.0029356025625020266,-0.0009416937828063965
1738772130378670000,2.280670166015625,0.00013369068619795144,0.005095958709716797,0.00195129809435457
1738772130388661000,2.290660888671875,0.0015925703337416053,0.0052264537662267685,-0.0001930791768245399
1738772130398652200,2.300652099609375,0.0017188041238114238,0.004255731590092182,0.0010599381057545543
1738772130408643000,2.31064306640625,0.001672198879532516,0.0032061797101050615,-0.0006535397260449827
1738772130418634000,2.320634033203125,0.0019382486352697015,0.004727110732346773,0.00041278995922766626
1738772130428625200,2.330625244140625,0.002154231071472168,0.004226436838507652,0.0016655409708619118
1738772130438617000,2.3406171875,0.0020218719728291035,0.004744953941553831,-0.00034434671397320926
1738772130448608000,2.35060791015625,-0.0005544701125472784,0.0034120420459657907,-0.0008748483960516751
1738772130458599200,2.36059912109375,0.000060986389144090936,0.0043678502552211285,-0.0013451626291498542
1738772130468590000,2.370590087890625,0.0015997608425095677,0.005294098053127527,0.00012303804396651685
1738772130478581000,2.3805810546875,0.0020072245970368385,0.0024916534312069416,0.0013701963471248746
1738772130488572000,2.390572021484375,-0.000505734293255955,0.003079679561778903,0.0001203748834086582
1738772130498564000,2.400564208984375,-0.00020453077740967274,0.0034328147303313017,0.002062085550278425
1738772130508555000,2.410554931640625,0.0018703379901126027,0.003959055058658123,0.001258343574590981
1738772130518546200,2.420546142578125,0.0016314524691551924,0.0046517434529960155,0.0008681904873810709
1738772130528537000,2.430537109375,0.0024626250378787518,0.002758502261713147,-0.00036245622322894633
1738772130538528000,2.440528076171875,0.0012458267156034708,0.002606702037155628,0.00038775624125264585
1738772130548519000,2.450518798828125,0.003221892286092043,0.004129497334361076,-0.0007600661483593285
1738772130558510000,2.460510009765625,0.0023670175578445196,0.004560397006571293,-0.00014674017438665032
1738772130568502000,2.470501953125,0.0021795309148728848,0.0032320122700184584,0.00040240364614874125
1738772130578493000,2.480492919921875,0.004375840071588755,0.0026053704787045717,-0.0006085322820581496
1738772130588484000,2.490484130859375,0.002171008847653866,0.003640541108325124,-0.0003307645965833217
1738772130598475000,2.50047509765625,0.0009576727170497179,0.0033308155834674835,0.00013369068619795144
1738772130608466000,2.5104658203125,0.0004540689697023481,0.0031883365008980036,0.00037151097785681486
1738772130618457000,2.52045703125,0.0017475662752985954,0.0027260116767138243,-0.0006881608278490603
1738772130628448000,2.530447998046875,0.00011611382069531828,0.0046879625879228115,0.0006620618514716625
1738772130638440000,2.54043994140625,0.0012950951931998134,0.005152950529009104,0.0010934938909485936
1738772130648431000,2.55043115234375,0.0016168050933629274,0.004020840395241976,0.001094825565814972
1738772130658422000,2.560422119140625,0.001689775730483234,0.0032778186723589897,0.0006407565670087934
1738772130668413000,2.570412841796875,0.0003760383406188339,0.00344479875639081,-0.00018429075134918094
1738772130678404000,2.580404052734375,-0.00009960222087102011,0.004451473709195852,0.00018455706594977528
1738772130688395000,2.59039501953125,0.0015137407463043928,0.0036762275267392397,-0.0008066715090535581
1738772130698386000,2.600385986328125,0.0002287655370309949,0.003829625668004155,0.0008135957177728415
1738772130708378000,2.610378173828125,-0.0006026733317412436,0.0043473439291119576,0.00032863407977856696
1738772130718369000,2.620369140625,0.002347842790186405,0.0037444045301526785,-0.0005696501466445625
1738772130728360000,2.63035986328125,-0.0008945558220148087,0.0027273432351648808,-0.00012144014181103557
1738772130738351000,2.64035107421875,0.0014980280539020896,0.0036701022181659937,0.00036751621519215405
1738772130748342000,2.650342041015625,-0.00027377295191399753,0.005574262235313654,0.0007366303470917046
1738772130758333000,2.6603330078125,0.0007211840129457414,0.0036077843979001045,0.00011611382069531828
1738772130768323800,2.67032373046875,-0.000597879639826715,0.0030828751623630524,-0.0008969526388682425
1738772130778316000,2.68031591796875,0.0007339671719819307,0.0021137509029358625,-0.000556600687559694
1738772130788307000,2.690306884765625,0.0015137407463043928,0.0046719834208488464,0.0016429040115326643
1738772130798297900,2.7002978515625,0.001714010490104556,0.004602741450071335,-0.00018668759730644524
1738772130808289000,2.7102890625,0.0018439727136865258,0.002525741932913661,0.0004772384709212929
1738772130818280000,2.720280029296875,0.0006862966110929847,0.004030960611999035,0.0008524778531864285
1738772130828270800,2.730270751953125,0.0008940231637097895,0.005772934295237064,0.0020208065398037434
1738772130838262000,2.740261962890625,0.0005600627628155053,0.003992611076682806,0.0004090615548193455
1738772130848254000,2.75025390625,0.00039468047907575965,0.0026996464002877474,-0.0006777744856663048
1738772130858244900,2.760244873046875,0.0003888215287588537,0.00224930583499372,0.0002798982313834131
1738772130868236000,2.770236083984375,0.0004780374001711607,0.00618066405877471,0.0014942996203899384
1738772130878227000,2.78022705078125,0.0006892260862514377,0.004698348697274923,0.0015949672088027
1738772130888217900,2.7902177734375,0.0006162554491311312,0.004098871257156134,0.0001675128296483308
1738772130898209000,2.800208984375,0.0006503439508378506,0.002120675053447485,-0.0001174454009742476
1738772130908200000,2.810199951171875,0.0002463423879817128,0.005536978133022785,-0.00009374327055411413
1738772130918191900,2.82019189453125,0.001669269404374063,0.003950266633182764,0.0010554107138887048
1738772130928183000,2.83018310546875,0.001472728094086051,0.0019086875254288316,-0.0006407565670087934
1738772130938174000,2.840174072265625,0.0015816513914614916,0.002481267089024186,0.00042104575550183654
1738772130948164900,2.850164794921875,0.0014676681021228433,0.004905809182673693,-0.00023968449386302382
1738772130958156000,2.860156005859375,0.0024620923213660717,0.00333134806714952,0.00008388957212446257
1738772130968147000,2.87014697265625,0.0027363980188965797,0.0038626487366855145,0.0017393104499205947
1738772130978137900,2.880137939453125,0.0011353056179359555,0.004976116586476564,0.00011371697473805398
1738772130988130000,2.890130126953125,-0.0005083974683657289,0.0032985913567245007,-0.0006194512825459242
1738772130998121200,2.900121337890625,0.0021254688035696745,0.004260791465640068,-0.00043276368523947895
1738772131008112000,2.910112060546875,0.0013523531379178166,0.00390339526347816,0.0015068164793774486
1738772131018103000,2.92010302734375,0.0018548916559666395,0.0044019389897584915,0.0011739213950932026
1738772131028094200,2.93009423828125,0.0012229235144332051,0.0028338697738945484,0.00019467707898002118
1738772131038085000,2.940085205078125,0.0016016251174733043,0.0027153589762747288,-0.0007901599165052176
1738772131048076000,2.950075927734375,0.001883121207356453,0.002356631215661764,0.0007611314067617059
1738772131058068200,2.960068115234375,0.0018016285030171275,0.005286374595016241,0.00040000680019147694
1738772131068059100,2.97005908203125,0.0017441042000427842,0.0039007319137454033,0.00041731735109351575
1738772131078050000,2.980050048828125,0.0013185309944674373,0.003760383464396,0.0008815063047222793
1738772131088041200,2.990041259765625,0.0017177389236167073,0.005005144979804754,-0.0010338390711694956
1738772131098032000,3.0000322265625,0.0017813884187489748,0.003940413240343332,0.00039707732503302395
1738772131108023000,3.01002294921875,0.0019169433508068323,0.0036402747500687838,0.001213602488860488
1738772131118015200,3.02001513671875,0.001680987305007875,0.004768389742821455,-0.00006844323797849938
1738772131128006100,3.030006103515625,0.00026312030968256295,0.00407383730635047,0.00014274542627390474
1738772131137997000,3.0399970703125,0.0006599313346669078,0.0034469293896108866,-0.0005009406013414264
1738772131147988200,3.04998828125,0.0011350392596796155,0.0032682311721146107,0.0018969696247950196
1738772131157979100,3.059979248046875,0.001883121207356453,0.00427171029150486,0.0012357067316770554
1738772131167970300,3.06997021484375,0.0017062872648239136,0.004260791465640068,-0.0002860235108528286
1738772131177961200,3.079961181640625,0.0009068063227459788,0.0019600866362452507,-0.0001323590986430645
1738772131187952400,3.089952392578125,0.0008804410463199019,0.0033625070936977863,0.001365668955259025
1738772131197944000,3.099944091796875,0.002273007994517684,0.004565190523862839,-0.0006647250265814364
1738772131207935000,3.10993505859375,-0.0003081277245655656,0.00407623453065753,-0.0005249090609140694
1738772131217926100,3.119926025390625,-0.001278849900700152,0.002442385070025921,0.0003121224872302264
1738772131227917300,3.129917236328125,0.0009709885343909264,0.0037111148703843355,0.0006636597099713981
1738772131237908200,3.139908203125,-0.0006777744856663048,0.004614459350705147,0.0011970909545198083
1738772131247899400,3.1498994140625,0.0014170679496601224,0.0037563887890428305,-0.0002817624481394887
1738772131257890300,3.159890380859375,0.000972852751147002,0.004376106429845095,0.0018644790397956967
1738772131267882000,3.169882080078125,0.0005334311863407493,0.004065847955644131,0.0014911039033904672
1738772131277873200,3.179873046875,0.00166580721270293,0.003165433183312416,-0.0006998787284828722
1738772131287864300,3.1898642578125,0.0008463526028208435,0.0041004689410328865,-0.00021997711155563593
1738772131297855200,3.199855224609375,0.002266616327688098,0.0028399948496371508,0.0005123922019265592
1738772131307846400,3.209846435546875,-0.0013275857781991363,0.0052086105570197105,0.0016951019642874599
1738772131317837300,3.21983740234375,0.00036991306114941835,0.00487198680639267,0.0014077469240874052
1738772131327828200,3.229828125,0.00006924218905624002,0.0035872780717909336,-0.0002364887041039765
1738772131337820400,3.2398203125,0.0010554107138887048,0.0031443943735212088,-0.0007574030314572155
1738772131347811300,3.249811279296875,-0.0011369034182280302,0.0031284152064472437,-0.0001270327775273472
1738772131357802200,3.25980224609375,0.0017355820164084435,0.004178233444690704,0.0009123989730142057
1738772131367793200,3.269793212890625,0.0010852381819859147,0.0040948763489723206,0.0011944277212023735
1738772131377784300,3.279784423828125,0.002371012233197689,0.0022857910953462124,-0.00004314320904086344
1738772131387775200,3.289775146484375,-0.0007022755453363061,0.004564924165606499,0.00014034859486855567
1738772131397766100,3.29976611328125,0.0018903117161244154,0.003061836352571845,0.0002724413643591106
1738772131407758300,3.30975830078125,-0.0002463423879817128,0.004485828336328268,0.0004966795677319169
1738772131417749200,3.319749267578125,0.0004572647449094802,0.003964648116379976,0.000678307143971324
1738772131427740200,3.329740234375,0.0016974988393485546,0.003162770066410303,0.0002769687562249601
1738772131437731300,3.3397314453125,0.0003731088654603809,0.0034788872580975294,0.0005083974683657289
1738772131447722200,3.34972216796875,-0.00045912896166555583,0.004796086810529232,0.00046631949953734875
1738772131457713200,3.359713134765625,0.0021699436474591494,0.004026433452963829,-0.00028575718170031905
1738772131467704300,3.369704345703125,0.0018181400373578072,0.002633600030094385,-0.0006253102328628302
1738772131477696300,3.3796962890625,0.0007038734620437026,0.0035979305393993855,0.0008692557457834482
1738772131487687200,3.389687255859375,0.0017001620726659894,0.003954261541366577,0.001279116258956492
1738772131497678300,3.39967822265625,0.0014777880860492587,0.0035518580116331577,0.00008335694292327389
1738772131507669200,3.409669189453125,0.0009062737226486206,0.0023643544409424067,0.00039281626231968403
1738772131517660200,3.41966015625,0.001990180229768157,0.0023094932548701763,0.001430916483514011
1738772131527651300,3.4296513671875,0.002198439557105303,0.0049215215258300304,0.00038535939529538155
1738772131537642200,3.439642333984375,0.0016961672808974981,0.0027806065045297146,-0.00017310546536464244
1738772131547634200,3.44963427734375,0.0003246393462177366,0.0029915287159383297,-0.0005723133217543364
1738772131557625300,3.459625244140625,0.0005470133037306368,0.0030660973861813545,0.0011227887589484453
1738772131567616300,3.4696162109375,0.0025814019609242678,0.004880775231868029,0.0015132081462070346
1738772131577607200,3.479607177734375,0.002529204124584794,0.004607268609106541,0.0008950884221121669
1738772131587598000,3.48959814453125,0.0028570392169058323,0.0022040321491658688,0.0004743089957628399
1738772131597589200,3.49958935546875,0.0007321029552258551,0.0019182749092578888,0.00045912896166555583
1738772131607580200,3.509580078125,0.002008023438975215,0.0046879625879228115,-0.0008096009842120111
1738772131617572400,3.519572265625,0.0015600797487422824,0.004236822947859764,-0.0014016216155141592
1738772131627563300,3.529563232421875,-0.00007669904152862728,0.0021347899455577135,0.0016450346447527409
1738772131637554200,3.53955419921875,0.0011741877533495426,0.0031340080313384533,0.0024953819811344147
1738772131647545000,3.549545166015625,-0.00007962851668708026,0.0025654230266809464,0.0013819142477586865
1738772131657536300,3.559536376953125,0.00034354778472334146,0.005160140804946423,-0.00005352953667170368
1738772131667527200,3.569527099609375,0.0017624800093472004,0.0033814155030995607,0.0006346312584355474
1738772131677518000,3.57951806640625,0.0003043993201572448,0.0032988577149808407,0.0002540655550546944
1738772131687510300,3.58951025390625,0.0016072177095338702,0.0038490667939186096,0.0008005462004803121
1738772131697501200,3.599501220703125,-0.0010543455136939883,0.004431233741343021,0.001713744131848216
1738772131707492000,3.6094921875,0.0015102786710485816,0.004129763692617416,0.0014807175612077117
1738772131717483300,3.619483154296875,0.0006154565489850938,0.002508165081962943,-0.0010450243717059493
1738772131727474200,3.62947412109375,0.001193096162751317,0.0054642739705741405,-0.0008546083699911833
1738772131737465000,3.639465087890625,0.0010109359864145517,0.004563060123473406,-0.0005190501105971634
1738772131747456300,3.649456298828125,0.0017214673571288586,0.0037795582320541143,-0.0008266451768577099
1738772131757448200,3.6594482421875,0.0008298410102725029,0.002100168727338314,-0.0006601976347155869
1738772131767439000,3.669439208984375,0.00020905814017169178,0.00427224300801754,0.001139300293289125
1738772131777430300,3.67943017578125,0.0006149238906800747,0.003992611076682806,0.0012037487467750907
1738772131787421200,3.689421142578125,0.00043809000635519624,0.003306314582005143,-0.0000929443194763735
1738772131797412000,3.699412109375,0.00041864890954457223,0.003603257006034255,-0.00017656758427619934
1738772131807403000,3.709403076171875,0.001776328426785767,0.002031991956755519,0.0007757788407616317
1738772131817394200,3.719394287109375,0.0006719155353493989,0.004855209030210972,0.00011957593233091757
1738772131827385000,3.729385009765625,0.0007829693495295942,0.005221926141530275,0.0013760552974417806
1738772131837377300,3.739377197265625,0.0011046791914850473,0.0033712955191731453,0.00166633992921561
1738772131847368200,3.7493681640625,0.0014112089993432164,0.0020567593164741993,0.000011717908819264267
1738772131857359000,3.759359130859375,0.0014540859265252948,0.004126834217458963,-0.0011427623685449362
1738772131867350000,3.76935009765625,-0.0001131843455368653,0.004516454879194498,0.00020506340661086142
1738772131877341200,3.779341064453125,0.0012519520241767168,0.0028818065766245127,0.0006434197421185672
1738772131887332000,3.78933203125,0.001674595638178289,0.002626942005008459,0.0012777847005054355
1738772131897323000,3.799322998046875,0.0019984361715614796,0.004457332659512758,0.00122558674775064
1738772131907315200,3.809315185546875,0.002296443795785308,0.0032836776226758957,-0.000035420041967881843
1738772131917306000,3.81930615234375,0.0005350290448404849,0.00378994457423687,-0.0012721919920295477
1738772131927297000,3.829297119140625,0.0010700580896809697,0.0018639464396983385,0.0007291734800674021
1738772131937288200,3.8392880859375,0.0023672839161008596,0.003049852093681693,0.00007430219557136297
1738772131947279000,3.849279052734375,0.0005603290628641844,0.003784351982176304,-0.00020160128769930452
1738772131957270300,3.859270263671875,0.00019574233738239855,0.00404454255476594,-0.00020639497961383313
1738772131967261400,3.869261474609375,0.0009827064350247383,0.0034874093253165483,-0.0014442323008552194
1738772131977253000,3.879253173828125,0.0012724583502858877,0.0035140409599989653,0.0017648768844082952
1738772131987244000,3.889244140625,0.001118527608923614,0.00458569684997201,0.00034674355993047357
1738772131997235000,3.89923486328125,0.0008964200387708843,0.003792874049395323,-0.0007787083159200847
1738772132007226000,3.90922607421875,0.0010607370641082525,0.003363838652148843,0.0015632755821570754
1738772132017217000,3.919217041015625,0.002163019496947527,0.002463690238073468,0.0002996056282427162
1738772132027208200,3.929208251953125,0.0013646037550643086,0.0035539884120225906,-0.00012223910016473383
1738772132037199000,3.93919921875,0.0003379551344551146,0.003531085327267647,0.0005691175465472043
1738772132047190800,3.949190673828125,0.0019182749092578888,0.0036493295338004827,0.000022370553779182956
1738772132057182000,3.959181884765625,0.001981924520805478,0.004054662771522999,0.0017038905061781406
1738772132067173000,3.969173095703125,0.0007211840129457414,0.004727110732346773,0.000319845654303208
1738772132077164000,3.9791640625,0.0003861583536490798,0.004070375580340624,0.0002609897928778082
1738772132087155200,3.9891552734375,0.0019563580863177776,0.0035289546940475702,0.001927862293086946
1738772132097147000,3.99914697265625,0.0017209346406161785,0.001898034941405058,-0.000978978001512587
1738772132107137800,4.0091376953125,-0.000505734293255955,0.004793423693627119,-0.0002442118711769581
1738772132117129000,4.01912890625,0.002237321576103568,0.004722050856798887,0.0003379551344551146
1738772132127120100,4.0291201171875,0.0028937908355146646,0.0032466596458107233,-0.0007736482657492161
1738772132137111000,4.039111083984375,0.002781405346468091,0.004209924954921007,0.0011520835105329752
1738772132147102000,4.04910205078125,-0.00012889699428342283,0.0037175065372139215,0.0008823052630759776
1738772132157093000,4.059093017578125,0.0016141419764608145,0.003906857222318649,-0.00046152580762282014
1738772132167084000,4.069083984375,0.0008988168556243181,0.0037286917213350534,0.0015611450653523207
1738772132177076200,4.079076171875,0.0003129214164800942,0.00367116741836071,-0.0007291734800674021
1738772132187067100,4.089067138671875,0.0011054781498387456,0.005315935704857111,0.002269279444590211
1738772132197058000,4.09905810546875,0.0019491675775498152,0.004824848845601082,0.00015233281010296196
1738772132207049000,4.109049072265625,-0.0000015978966985130683,0.004038683604449034,0.0006993460701778531
1738772132217040100,4.1190400390625,0.002127599436789751,0.0037412086967378855,-0.0005422196118161082
1738772132227031000,4.129031005859375,0.0010729875648394227,0.005130313336849213,0.0010303769959136844
1738772132237022000,4.13902197265625,0.0016607472207397223,0.0031965922098606825,0.0017454357584938407
1738772132247014100,4.14901416015625,0.0009432916413061321,0.004477572627365589,-0.0007068029372021556
1738772132257005000,4.159005126953125,0.0005347627447918057,0.003863980295136571,-0.0003355582884978503
1738772132266996000,4.168995849609375,0.0014687333023175597,0.003353186184540391,-0.000258859246969223
1738772132276987100,4.178987060546875,0.000711064029019326,0.0030716899782419205,0.0004961469094268978
1738772132286978000,4.18897802734375,0.002240783767774701,0.004129497334361076,0.0009962886106222868
1738772132296969000,4.198968994140625,0.0001549959706608206,0.0031827439088374376,0.0001816275907913223
1738772132306960100,4.208960205078125,-0.00016698020044714212,0.0018698053900152445,-0.00003808320252574049
1738772132316952000,4.2189521484375,0.0005880259559489787,0.0030538467690348625,-0.00029055087361484766
1738772132326943000,4.22894287109375,0.002074069809168577,0.003269562730565667,0.0001930791768245399
1738772132336934100,4.23893408203125,0.0013483584625646472,0.0033457293175160885,0.0001304948964389041
1738772132346925000,4.248925048828125,0.001817873795516789,0.003519367426633835,0.0013920343481004238
1738772132356916000,4.258916015625,0.0013736584223806858,0.00461712246760726,0.0008458199445158243
1738772132366907000,4.268906982421875,0.0013456953456625342,0.002731071785092354,-0.00045566685730591416
1738772132376898000,4.27889794921875,0.0016524913953617215,0.0033329459838569164,0.0012325108982622623
1738772132386889000,4.288888916015625,0.0020042951218783855,0.005406749434769154,-0.0006849650526419282
1738772132396881200,4.298881103515625,0.0022058964241296053,0.0038778288289904594,0.00018109494703821838
1738772132406872000,4.3088720703125,0.0010602044640108943,0.003947603516280651,0.00003009372085216455
1738772132416863000,4.318863037109375,0.0017584852175787091,0.0030160299502313137,-0.0004809668753296137
1738772132426854000,4.32885400390625,0.0010290454374626279,0.0029846045654267073,0.0007986819837242365
1738772132436845000,4.338844970703125,0.0016287893522530794,0.005255215801298618,0.0005763080553151667
1738772132446836000,4.3488359375,0.002027997048571706,0.0031009847298264503,0.00019414443522691727
1738772132456827000,4.358826904296875,0.0015576828736811876,0.0032583775464445353,-0.0013539510546252131
1738772132466819000,4.368819091796875,0.0015009575290605426,0.004486094694584608,0.0006122607155703008
1738772132476810000,4.37881005859375,0.0001739044237183407,0.0036858150269836187,0.0015686018159613013
1738772132486801000,4.38880078125,0.00152332813013345,0.003312173532322049,0.0008439557277597487
1738772132496792000,4.3987919921875,-0.0005185174522921443,0.00270657055079937,0.00000958738019107841
1738772132506783000,4.408782958984375,0.0010993528412654996,0.0038285604678094387,-0.0005518069956451654
1738772132516774000,4.41877392578125,0.0008756473544053733,0.0048829056322574615,-0.00040666470886208117
1738772132526765000,4.42876513671875,0.00023329291434492916,0.003894074121490121,-0.001237571006640792
1738772132536757000,4.438757080078125,0.0013869742397218943,0.003656253917142749,0.00001917476038215682
1738772132546748000,4.448747802734375,-0.0009454221581108868,0.0032586439047008753,-0.002153964713215828
1738772132556739000,4.458739013671875,0.002275937469676137,0.0047835698351264,0.0010050770360976458
1738772132566730000,4.46872998046875,0.001303084660321474,0.0033712955191731453,-0.00018908442871179432
1738772132576721000,4.478720947265625,0.00031079089967533946,0.00458756135776639,-0.000574177538510412
1738772132586711800,4.4887119140625,0.0019630161114037037,0.004834436345845461,0.00014381069922819734
1738772132596703000,4.498702880859375,0.002070607617497444,0.004565456882119179,0.0011614045361056924
1738772132606694000,4.50869384765625,0.002942526713013649,0.00304692261852324,0.0010753844399005175
1738772132616686000,4.51868603515625,0.0019169433508068323,0.004565456882119179,0.001106809708289802
1738772132626677000,4.528677001953125,0.002519616624340415,0.003722566645592451,0.0009424926829524338
1738772132636668000,4.53866796875,0.003204315435141325,0.0008572715451009572,0.0001257012045243755
1738772132646658800,4.548658935546875,0.001213336130604148,0.004351338837295771,0.0002442118711769581
1738772132656650000,4.55864990234375,0.00043302998528815806,0.0038924762047827244,0.002213619416579604
1738772132666641000,4.568640869140625,0.0021763353142887354,0.0031470574904233217,0.00012783173588104546
1738772132676631800,4.5786318359375,0.0019241338595747948,0.002945189829915762,0.0007454187725670636
1738772132686624000,4.5886240234375,0.002229065867140889,0.0036424053832888603,0.0009515474666841328
1738772132696615000,4.598614990234375,0.0015339808305725455,0.0049191247671842575,0.0005704491049982607
1738772132706605800,4.608605712890625,0.0013765880139544606,0.00418462511152029,0.00016058860637713224
1738772132716597000,4.618596923828125,0.0011124024167656898,0.002270611235871911,-0.00024314661277458072
1738772132726588000,4.628587890625,0.00293373828753829,0.004866926930844784,0.0009057410643436015
1738772132736578800,4.638578857421875,0.00011398329661460593,0.003546265186741948,0.0008679241873323917
1738772132746570000,4.648570068359375,0.0002311623829882592,0.0033782199025154114,-0.0010420948965474963
1738772132756562000,4.65856201171875,0.002728142309933901,0.003805390791967511,0.0007747135823592544
1738772132766552800,4.668552734375,0.0006857639527879655,0.004674380179494619,0.0013046825770288706
1738772132776544000,4.6785439453125,0.001186970854178071,0.005093029234558344,-0.00013422331539914012
1738772132786535000,4.688534912109375,0.0004918858758173883,0.0034791536163538694,-0.0015635418239980936
1738772132796526000,4.698526123046875,-0.0007494135061278939,0.001975799212232232,-0.0006593986763618886
1738772132806517000,4.70851708984375,0.001204547705128789,0.004930043593049049,-0.00017949705943465233
1738772132816508200,4.718508056640625,0.0006034722900949419,0.0052080778405070305,0.0007038734620437026
1738772132826499800,4.728499755859375,0.000107858024421148,0.0043774377554655075,-0.0011020160745829344
1738772132836491000,4.738490966796875,0.0004423510399647057,0.002621083054691553,-0.0005347627447918057
1738772132846482000,4.74848193359375,0.0029462550301104784,0.004004595335572958,-0.000254331884207204
1738772132856473000,4.75847314453125,0.0011350392596796155,0.002523345174267888,0.000258859246969223
1738772132866464000,4.768464111328125,0.0015779229579493403,0.003710848744958639,0.000734766130335629
1738772132876455200,4.778455078125,0.0023518374655395746,0.004304999951273203,0.00016405072528868914
1738772132886446000,4.788446044921875,0.0009081379394046962,0.0029640982393175364,0.0012540825409814715
1738772132896437800,4.798437744140625,0.0011611381778493524,0.003186738584190607,0.0013257216196507215
1738772132906429000,4.808428955078125,0.0010381002211943269,0.003375822911038995,0.0019254654180258512
1738772132916420000,4.818420166015625,-0.0005765743553638458,0.0041705104522407055,0.0008799084462225437
1738772132926411000,4.828410888671875,0.0027473168447613716,0.004042412154376507,-0.00008921589324017987
1738772132936402200,4.838402099609375,0.0006801713607273996,0.003369963960722089,-0.00009081379539566115
1738772132946393000,4.84839306640625,0.002716158051043749,0.003629355924203992,-0.00009267800487577915
1738772132956384000,4.858384033203125,0.0014016216155141592,0.004063451196998358,-0.0002695118892006576
1738772132966376200,4.868376220703125,0.0016207997687160969,0.0046903593465685844,-0.0011624698527157307
1738772132976367000,4.8783671875,0.0014594122767448425,0.002508165081962943,-0.00046392265358008444
1738772132986358000,4.88835791015625,0.00039068571641109884,0.0029795446898788214,-0.0011342403013259172
1738772132996349000,4.898348876953125,0.000841825210954994,0.004988367203623056,0.0021046961192041636
1738772133006340000,4.908340087890625,0.001127316034398973,0.0049185920506715775,0.0008530105114914477
1738772133016331000,4.9183310546875,0.0006436860421672463,0.0048855687491595745,0.000511593243572861
1738772133026322000,4.928322021484375,0.0026756778825074434,0.005563876125961542,0.0008202536264434457
1738772133036314000,4.938314208984375,0.0013941648649051785,0.00301762786693871,-0.0007057376787997782
1738772133046305000,4.948304931640625,0.0002692455891519785,0.0033393376506865025,0.0010913633741438389
1738772133056296000,4.9582958984375,0.0006559365428984165,0.0039175101555883884,0.0012175972806289792
1738772133066287000,4.968287109375,-0.0010751180816441774,0.0031198931392282248,0.0005688511882908642
1738772133076278000,4.978278076171875,0.0023007048293948174,0.004279966000467539,0.00010492854926269501
1738772133086269000,4.98826904296875,0.0012572783743962646,0.005379585549235344,0.000916393706575036
1738772133096259800,4.998259765625,0.0018676748732104897,0.004691957030445337,0.0008189220097847283
1738772133106252000,5.008251953125,0.001201884588226676,0.003355582943186164,0.0005470133037306368
1738772133116243000,5.018242919921875,0.002365952357649803,0.0030099046416580677,-0.00025060345069505274
1738772133126234000,5.028234130859375,0.00105354655534029,0.003260774305090308,0.000009321063771494664
1738772133136225000,5.03822509765625,0.00023808660625945777,0.003540406236425042,0.0004551342281047255
1738772133146216000,5.0482158203125,0.0006815029191784561,0.003674629610031843,-0.00029348034877330065
1738772133156206800,5.058206787109375,0.0007864314829930663,0.0028626318089663982,0.0010657970560714602
1738772133166198000,5.068197998046875,0.0009081379394046962,0.0041374871507287025,-0.0006149238906800747
1738772133176190000,5.07818994140625,0.0011741877533495426,0.004492752719670534,-0.0011057445080950856
1738772133186181000,5.08818115234375,0.0009542105835862458,0.0034732946660369635,0.0011134676169604063
1738772133196172000,5.098172119140625,0.000963797967415303,0.00395745737478137,0.0006463492172770202
1738772133206163000,5.108162841796875,0.001698564155958593,0.0038626487366855145,0.000010652644050423987
1738772133216153900,5.11815380859375,0.0036016590893268585,0.0032461269292980433,0.0014122743159532547
1738772133226145000,5.12814501953125,0.0002609897928778082,0.0035635759122669697,-0.0012359730899333954
1738772133236136000,5.138135986328125,0.0026794064324349165,0.004877046681940556,0.0004215783847030252
1738772133246126800,5.148126953125,0.00007270430069183931,0.004381432663649321,0.0013877731980755925
1738772133256119000,5.158119140625,0.0010660634143278003,0.003868241561576724,-0.0019984361715614796
1738772133266110000,5.16810986328125,0.00038988678716123104,0.0015720640076324344,-0.0005520732956938446
1738772133276100900,5.178100830078125,0.0010607370641082525,0.003070624778047204,-0.0002181128947995603
1738772133286092000,5.188092041015625,0.0013707289472222328,0.006238188594579697,-0.0008226504432968795
1738772133296083000,5.1980830078125,0.0011640676530078053,0.004175037611275911,0.000008788431841821875
1738772133306073900,5.208073974609375,0.0024980450980365276,0.002228533150628209,-0.0008482168195769191
1738772133316064800,5.218064697265625,0.003609115956351161,0.003341201925650239,-0.0008223841432482004
1738772133326057000,5.228056884765625,0.001463673310354352,0.00407516909763217,-0.0007755124825052917
1738772133336047900,5.2380478515625,0.0013936321483924985,0.00439075380563736,0.0030061763245612383
1738772133346039000,5.2480390625,0.0004822984628845006,0.003923901356756687,0.00040746363811194897
1738772133356030000,5.258030029296875,0.001326786819845438,0.004547347314655781,-0.0009195895399898291
1738772133366020900,5.268020751953125,-0.00031664984999224544,0.0031856733839958906,0.0011808456620201468
1738772133376011800,5.27801171875,0.0010237190872430801,0.005074386950582266,0.0009984191274270415
1738772133386003000,5.2880029296875,0.0018381137633696198,0.0026160231791436672,0.000179230744834058
1738772133395995000,5.297994873046875,0.00207673292607069,0.0032346753869205713,-0.0010327738709747791
1738772133405985800,5.30798583984375,0.0011472897604107857,0.003123621689155698,-0.00016964336100500077
1738772133415977000,5.31797705078125,0.0016306535108014941,0.004825381562113762,0.0009645969257690012
1738772133425967900,5.3279677734375,0.0005795038305222988,0.0021371867042034864,-0.0007249124464578927
1738772133435958800,5.337958740234375,0.0015401060227304697,0.0031675638165324926,0.0003608583356253803
1738772133445950000,5.347949951171875,0.0021291973534971476,0.0051806471310555935,0.001136637176387012
1738772133455940900,5.35794091796875,0.00048389637959189713,0.004697815980762243,0.0012234562309458852
1738772133465931800,5.367931884765625,0.0013310478534549475,0.0028671592008322477,-0.0002468750171829015
1738772133475924000,5.377924072265625,0.00020399813365656883,0.00412417110055685,0.0016458334866911173
1738772133485915000,5.387914794921875,0.000975782226305455,0.0030482541769742966,-0.000002663161012605997
1738772133495905800,5.39790576171875,0.00006498113361885771,0.0037169738207012415,0.00009880327706923708
1738772133505897000,5.40789697265625,0.0016088156262412667,0.004892493132501841,0.0006450176006183028
1738772133515887900,5.417887939453125,0.0010253170039504766,0.0023425165563821793,-0.00011957593233091757
1738772133525878800,5.427878662109375,0.001674861996434629,0.0020871192682534456,0.000886566296685487
1738772133535870000,5.437869873046875,0.0008263788768090308,0.0034938009921461344,0.0007582019316032529
1738772133545862000,5.44786181640625,0.0010189254535362124,0.003716174978762865,0.0011092065833508968
1738772133555852800,5.457852783203125,0.0008410262526012957,0.004208060912787914,-0.0013683321885764599
1738772133565844000,5.467843994140625,0.0009424926829524338,0.0034618431236594915,-0.00040746363811194897
1738772133575835000,5.4778349609375,0.00122558674775064,0.005291700828820467,0.00036724991514347494
1738772133585826000,5.487825927734375,0.0015909724170342088,0.0035020567011088133,0.00013528858835343271
1738772133595817000,5.49781689453125,0.0016990967560559511,0.0023608922492712736,0.0005528722540475428
1738772133605808000,5.50780810546875,0.000075101139373146,0.0029678267892450094,0.001543568097986281
1738772133615799800,5.5177998046875,0.0007608651067130268,0.004999552387744188,0.0009664611425250769
1738772133625790700,5.527790771484375,0.0024383901618421078,0.003941478207707405,0.00004500742215896025
1738772133635782000,5.537781982421875,0.0008506136364303529,0.003123355330899358,-0.00010998855577781796
1738772133645773000,5.54777294921875,0.0019656792283058167,0.0037209687288850546,0.0006058691651560366
1738772133655764000,5.557763916015625,0.0009206547983922064,0.004559597931802273,0.0017273263074457645
1738772133665755100,5.567755126953125,0.00028389296494424343,0.003913248889148235,0.00011478224041638896
1738772133675746000,5.57774609375,0.0010295780375599861,0.003915645647794008,-0.0007456850726157427
1738772133685737700,5.58773779296875,-0.00011638013529591262,0.0048797097988426685,0.0007084008539095521
1738772133695729000,5.59772900390625,0.000586161739192903,0.00267727579921484,-0.0001227717293659225
1738772133705720000,5.607719970703125,0.0009195895399898291,0.00224877311848104,-0.0005542038124985993
1738772133715711000,5.6177109375,0.000969923275988549,0.003946538548916578,0.0007107976707629859
1738772133725702100,5.6277021484375,0.0005938849062658846,0.0047028763219714165,0.0007984156836755574
1738772133735693000,5.637693115234375,0.0005584649043157697,0.003897003596648574,-0.00014460964302998036
1738772133745684000,5.64768408203125,0.0009576727170497179,0.0034615767654031515,0.0004370247188489884
1738772133755675000,5.6576748046875,0.000365918327588588,0.0031579763162881136,-0.0013366405619308352
1738772133765667000,5.6676669921875,0.0015923039754852653,0.0031702269334346056,0.0005174521938897669
1738772133775658000,5.677657958984375,0.001419198582880199,0.0031076427549123764,-0.000523843802511692
1738772133785649200,5.687649169921875,0.002311091171577573,0.0045585329644382,0.0009973538108170033
1738772133795640000,5.69764013671875,0.0004623247659765184,0.0032956618815660477,-0.0008594020619057119
1738772133805631000,5.707630859375,0.002487658755853772,0.003108974313363433,0.0002825613773893565
1738772133815622000,5.717621826171875,0.0013824469642713666,0.0034197650384157896,-0.00040266994619742036
1738772133825613000,5.727613037109375,0.002656236756592989,0.005224056541919708,0.0008756473544053733
1738772133835605000,5.73760498046875,0.002514024032279849,0.0035483958199620247,0.00020825919636990875
1738772133845596000,5.747595947265625,0.0008482168195769191,0.0036719664931297302,0.0002426139690214768
1738772133855587000,5.757587158203125,0.0010282464791089296,0.0051774512976408005,-0.00042211104300804436
1738772133865578000,5.767577880859375,0.0020823257509618998,0.004191815387457609,0.00009427589975530282
1738772133875569000,5.77756884765625,0.00173771264962852,0.003442401997745037,0.0003454120014794171
1738772133885560000,5.78756005859375,0.00270630419254303,0.0029260150622576475,0.0006652576266787946
1738772133895551000,5.797551025390625,0.0012125372886657715,0.003732952754944563,-0.0003707120195031166
1738772133905542000,5.8075419921875,0.00039281626231968403,0.004244812298566103,0.0020354539155960083
1738772133915534000,5.8175341796875,0.0006508765509352088,0.0034194989129900932,0.0009211873984895647
1738772133925525000,5.82752490234375,0.0005677859298884869,0.002252501668408513,0.0014024205738678575
1738772133935516000,5.837515869140625,0.0020671456586569548,0.0016074840677902102,-0.0004087952256668359
1738772133945507000,5.847507080078125,0.0017243968322873116,0.003930559381842613,0.0011113371001556516
1738772133955498000,5.857498046875,0.0011768508702516556,0.002305498579517007,-0.0008620652370154858
1738772133965489000,5.867489013671875,0.00015925703337416053,0.003882888937368989,0.0002412823960185051
1738772133975479800,5.877479736328125,0.0015254586469382048,0.0034024545457214117,-0.0010346380295231938
1738772133985472000,5.887471923828125,0.0024810009635984898,0.004517253953963518,0.0004977448261342943
1738772133995463000,5.897462890625,0.001898034941405058,0.004768922459334135,0.0005230448441579938
1738772134005453800,5.907453857421875,0.0011491540353745222,0.0032024511601775885,-0.00023036343918647617
1738772134015444700,5.91744482421875,0.0007960188668221235,0.0028794098179787397,0.0001280980504816398
1738772134025436000,5.927435791015625,0.002115082461386919,0.0036695697344839573,-0.0007057376787997782
1738772134035426800,5.9374267578125,0.0009800433181226254,0.0038535939529538155,0.00123783724848181
1738772134045417700,5.947417724609375,0.000990962260402739,0.003555319970473647,-0.000004261057711119065
1738772134055408600,5.95740869140625,0.001300155185163021,0.0027233485598117113,0.0009086705395020545
1738772134065400800,5.96740087890625,0.0016737966798245907,0.00390286254696548,-0.0005243764026090503
1738772134075391700,5.977391845703125,0.0019507654942572117,0.004013383761048317,0.002097771968692541
1738772134085383000,5.9873828125,0.000907338981050998,0.002377137541770935,0.0002969424531329423
1738772134095373800,5.997373779296875,0.0019680759869515896,0.004631769843399525,-0.00016405072528868914
1738772134105364700,6.00736474609375,0.0012546151410788298,0.003698598127812147,0.0007350324303843081
1738772134115355600,6.017355712890625,0.0013696637470275164,0.0035510589368641376,0.0006458165589720011
1738772134125346800,6.027346923828125,0.0009257147903554142,0.004266916774213314,0.0022453111596405506
1738772134135338800,6.0373388671875,0.002261556452140212,0.003239202778786421,-0.0017624800093472004
1738772134145329700,6.04732958984375,0.001386175281368196,0.0041244374588131905,0.0003709783486556262
1738772134155320800,6.05732080078125,0.002597114769741893,0.003555053612217307,0.0006194512825459242
1738772134165311700,6.067311767578125,0.001484179636463523,0.005341768264770508,0.00018375810759607702
1738772134175302700,6.077302734375,0.0016943031223490834,0.0025632926262915134,0.00005725796290789731
1738772134185293800,6.0872939453125,0.00290391081944108,0.002683667466044426,-0.001752093667164445
1738772134195284700,6.09728466796875,0.0019654128700494766,0.0032804817892611027,0.0007531419396400452
1738772134205275600,6.107275634765625,0.0007507451227866113,0.005135905928909779,0.0017659420846030116
1738772134215267800,6.117267822265625,0.0008769789128564298,0.0034226945135742426,-0.0005352954030968249
1738772134225258800,6.1272587890625,0.0003371562052052468,0.0034077810123562813,-0.000764593540225178
1738772134235249700,6.137249755859375,0.00039654469583183527,0.0028607675340026617,-0.00012650014832615852
1738772134245240800,6.14724072265625,0.0013377057621255517,0.005939115304499865,-0.00040852889651432633
1738772134255231700,6.157231689453125,0.0023904533591121435,0.0059835901483893394,-0.0001459412305848673
1738772134265223000,6.167222900390625,0.0015249260468408465,0.0023270701058208942,-0.00020453077740967274
1738772134275213800,6.1772138671875,0.0021843246649950743,0.004489024169743061,-0.00001917476038215682
1738772134285205800,6.187205810546875,0.002008023438975215,0.006304767448455095,0.0003352919884491712
1738772134295196700,6.19719677734375,0.0003145193331874907,0.003179814200848341,0.0001704423048067838
1738772134305187800,6.207187744140625,0.0006601976347155869,0.002525741932913661,-0.0013768542557954788
1738772134315178800,6.2171787109375,0.0016359798610210419,0.004991296678781509,-0.00009347695595351979
1738772134325170000,6.227169921875,0.001446096459403634,0.005389971658587456,0.00039707732503302395
1738772134335160800,6.237160888671875,0.0011680624447762966,0.003073021536692977,0.0005406216951087117
1738772134345152000,6.247152099609375,0.002070873975753784,0.0032684975303709507,-0.00022290658671408892
1738772134355143000,6.257142822265625,0.000037017940485384315,0.004448810592293739,0.0012660667998716235
1738772134365134600,6.267134521484375,0.0013086773687973619,0.003964115399867296,0.0019430422689765692
1738772134375125800,6.277125732421875,0.0007416903390549123,0.003079413203522563,-0.0006130596739239991
1738772134385117000,6.287116943359375,0.00044554684427566826,0.0031135017052292824,0.0011619371362030506
1738772134395107800,6.29710791015625,0.002484462922438979,0.004373443312942982,-0.00027031084755435586
1738772134405099000,6.30709912109375,0.002095375210046768,0.004962267819792032,0.001600559800863266
1738772134415090000,6.31708984375,0.0029933929909020662,0.005182245280593634,-0.0007874967413954437
1738772134425080800,6.327080810546875,0.0028133634477853775,0.0014026869321241975,-0.001002413802780211
1738772134435073000,6.337072998046875,0.0008335694437846541,0.0014775217277929187,-0.00035979304811917245
1738772134445064000,6.34706396484375,0.0016588830621913075,0.004226969089359045,0.0015763250412419438
1738772134455054800,6.357054931640625,0.0017584852175787091,0.0054608117789030075,0.00026525085559114814
1738772134465046000,6.3670458984375,0.0025806031189858913,0.0021939121652394533,-0.0002822950773406774
1738772134475037000,6.377036865234375,0.000597879639826715,0.0018466358305886388,-0.0005808354471810162
1738772134485027800,6.38702783203125,0.0019342538435012102,0.002520149340853095,0.001079911831766367
1738772134495018800,6.397018798828125,0.0023968450259417295,0.006164152640849352,-0.0007203850545920432
1738772134505010000,6.407010009765625,-0.00006604639202123508,0.0027292075101286173,-0.000029827404432580806
1738772134515001900,6.417001953125,0.0011680624447762966,0.002813895931467414,-0.0003097256412729621
1738772134524993000,6.426992919921875,-0.00013448962999973446,0.004421379882842302,0.00013875069271307439
1738772134534984000,6.43698388671875,0.0013571468880400062,0.004396879114210606,0.0016966998809948564
1738772134544974800,6.446974853515625,0.0009398295660503209,0.0023760723415762186,0.000014114753867033869
1738772134554965800,6.4569658203125,0.0013353090034797788,0.0046762446872889996,0.001704689348116517
1738772134564957000,6.46695703125,0.0008609999786131084,0.004114849958568811,-0.00008788431296125054
1738772134574947800,6.47694775390625,0.0011558119440451264,0.002945722546428442,0.00022397184511646628
1738772134584939800,6.486939697265625,-0.00014460964302998036,0.0038272286765277386,0.00029081720276735723
1738772134594931000,6.496930908203125,0.0001675128296483308,0.0037377465050667524,-0.00039521310827694833
1738772134604921900,6.506921875,0.0018239989876747131,0.0038983351550996304,0.00040533312130719423
1738772134614912800,6.516912841796875,0.0010671286145225167,0.0031550468411296606,0.0009089368977583945
1738772134624904000,6.526904052734375,0.0022266688756644726,0.004277036525309086,-0.0014591459184885025
1738772134634894800,6.536894775390625,0.00040293627534992993,0.0024823325220495462,-0.0017606157343834639
1738772134644885800,6.5468857421875,0.0017539578257128596,0.004908205941319466,-0.0006482133758254349
1738772134654876700,6.556876708984375,0.002639192622154951,0.004744421225041151,-0.00030067088664509356
1738772134664868900,6.566868896484375,0.0012868394842371345,0.004459463059902191,-0.0000977380113909021
1738772134674859800,6.57685986328125,0.0017694041598588228,0.00242107966914773,0.00025992453447543085
1738772134684851000,6.586850830078125,0.001734783174470067,0.005407015793025494,-0.00017070861940737814
1738772134694841900,6.596841796875,0.0014735270524397492,0.004551874939352274,0.0003808320325333625
1738772134704832800,6.606832763671875,0.0012692625168710947,0.004252003040164709,0.0004498079069890082
1738772134714823700,6.61682373046875,0.00032863407977856696,0.003183010034263134,0.000987766426987946
1738772134724814800,6.62681494140625,0.00045673211570829153,0.00458836043253541,0.0013526194961741567
1738772134734805800,6.6368056640625,0.002017078222706914,0.005672799423336983,-0.0006916229031048715
1738772134744797700,6.646797607421875,0.002526008291170001,0.0023784691002219915,-0.0011994877131655812
1738772134754788900,6.656788818359375,0.0017153420485556126,0.0024802018888294697,-0.0009566074586473405
1738772134764779800,6.66677978515625,0.0011022823164239526,0.003632818115875125,0.0006522081675939262
1738772134774770700,6.676770751953125,0.0014122743159532547,0.0051710596308112144,0.002010952914133668
1738772134784761900,6.686761962890625,0.0007515440811403096,0.0029643645975738764,0.0004546015989035368
1738772134794752800,6.696752685546875,0.0001233043585671112,0.002371544949710369,0.00006684534309897572
1738772134804743700,6.70674365234375,0.000303334032651037,0.004072772338986397,-0.00029827404068782926
1738772134814736000,6.71673583984375,0.001600826159119606,0.004506334662437439,-0.00038003307417966425
1738772134824726800,6.726726806640625,0.0009645969257690012,0.0043830303475260735,0.0003944141499232501
1738772134834717700,6.7367177734375,0.0020240023732185364,0.0036996633280068636,0.0007350324303843081
1738772134844708900,6.746708984375,0.002377137541770935,0.004179831128567457,0.0008873652550391853
1738772134854699800,6.75669970703125,0.0010373012628406286,0.00523790530860424,0.0008293083519674838
1738772134864690700,6.766690673828125,0.0012279836228117347,0.005637645721435547,0.0006327670416794717
1738772134874681600,6.776681640625,0.0006785734440200031,0.0036160401068627834,0.0001382180635118857
1738772134884672800,6.7866728515625,0.000916393706575036,0.003138801548629999,-0.0005648564547300339
1738772134894664700,6.796664794921875,0.00013395700079854578,0.003316967049613595,0.002007757080718875
1738772134904656000,6.80665576171875,0.001514273346401751,0.005510080140084028,-0.00021678130724467337
1738772134914646800,6.816646728515625,0.00041332258842885494,0.0029912625905126333,-0.0005257080192677677
1738772134924637700,6.8266376953125,0.0008825715631246567,0.002360093407332897,-0.0005864280392415822
1738772134934628600,6.836628662109375,0.0010373012628406286,0.004831240512430668,0.00006631271389778703
1738772134944619800,6.846619873046875,0.0006375607335940003,0.004434429574757814,0.001773132593370974
1738772134954611000,6.85661083984375,0.002520149340853095,0.00430073868483305,0.0006141249323263764
1738772134964601900,6.866601806640625,0.0007358313887380064,0.0034045851789414883,-0.0006942860782146454
1738772134974593800,6.87659375,0.0030868700705468655,0.004405933897942305,0.00021891183860134333
1738772134984584700,6.886584716796875,-0.0002234392159152776,0.004421113524585962,0.0018679412314668298
1738772134994576100,6.896576171875,0.002176867797970772,0.0041497377678751945,-0.0008671252289786935
1738772135004567000,6.906567138671875,0.0008615325787104666,0.0017278589075431228,0.00112438655924052
1738772135014558200,6.91655810546875,0.0019765980541706085,0.004594751633703709,-0.0007912251749075949
1738772135024549000,6.926549072265625,0.00010279801790602505,0.003111104713752866,-0.0005078648100607097
1738772135034540300,6.936540283203125,0.0015560849569737911,0.003710049670189619,0.000508663768414408
1738772135044532200,6.9465322265625,0.0015688681742176414,0.0032056469935923815,-0.00019121496006846428
1738772135054523100,6.956523193359375,0.0006460828590206802,0.004337224178016186,-0.0004141215467825532
1738772135064514000,6.96651416015625,0.0017273263074457645,0.0035928706638514996,-0.00015819176041986793
1738772135074505200,6.976505126953125,-0.0001656486128922552,0.004289819858968258,-0.00004713794987765141
1738772135084496400,6.986496337890625,0.0023270701058208942,0.0025542378425598145,-0.00025246766745112836
1738772135094487300,6.9964873046875,0.0008929579053074121,0.003932956140488386,0.00044554684427566826
1738772135104478500,7.006478515625,0.0017539578257128596,0.004542820155620575,-0.0006799050024710596
1738772135114469400,7.016469482421875,0.00039707732503302395,0.003911917097866535,0.0010673949727788568
1738772135124461000,7.0264609375,0.0018365158466622233,0.00392816262319684,-0.0017771273851394653
1738772135134452200,7.0364521484375,0.0011590076610445976,0.0034527883399277925,0.0016852483386173844
1738772135144443400,7.046443359375,0.0022056300658732653,0.0037955371662974358,0.0024868599139153957
1738772135154434300,7.056434326171875,0.0016165387351065874,0.0036916739773005247,0.000014647385796706658
1738772135164425200,7.06642529296875,0.001112935016863048,0.003157177474349737,-0.00025832661776803434
1738772135174416400,7.07641650390625,0.0017986990278586745,0.005291700828820467,0.0012863067677244544
1738772135184407300,7.0864072265625,0.0023342606145888567,0.005224855616688728,0.0017100156983360648
1738772135194399200,7.096399169921875,-0.0012322446564212441,0.003328951308503747,-0.0004649879119824618
1738772135204390400,7.106390380859375,0.0031457259319722652,0.003067961661145091,0.0013137373607605696
1738772135214381300,7.11638134765625,0.000046871635277057067,0.004593686666339636,0.0019022959750145674
1738772135224372200,7.126372314453125,0.0019105518003925681,0.004735366906970739,0.0010729875648394227
1738772135234363400,7.13636328125,-0.0010761833982542157,0.00267754215747118,-0.0009150621481239796
1738772135244354300,7.146354248046875,0.0009406284661963582,0.0037771612405776978,-0.00019973708549514413
1738772135254345200,7.15634521484375,0.0007629956235177815,0.004351605195552111,0.00014514227223116904
1738772135264336400,7.16633642578125,-0.0005171858938410878,0.005340969655662775,-0.000511593243572861
1738772135274328300,7.176328369140625,0.0018045579781755805,0.004605404566973448,0.0011400992516428232
1738772135284319200,7.1863193359375,0.0008996158139780164,0.002633866388350725,0.0012322446564212441
1738772135294310400,7.196310302734375,0.001745968358591199,0.004340686369687319,0.0011022823164239526
1738772135304301300,7.20630126953125,0.000642354425508529,0.004517520312219858,0.0010713896481320262
1738772135314292200,7.216292236328125,0.0009629990672692657,0.0037084517534822226,0.0009116000146605074
1738772135324283100,7.226283203125,0.000957939017098397,0.0036482643336057663,-0.00007909588020993397
1738772135334274300,7.2362744140625,0.00138084904756397,0.0032863407395780087,-0.00025513084256090224
1738772135344265200,7.24626513671875,0.0011997540714219213,0.006112221162766218,-0.0005150553770363331
1738772135354257400,7.25625732421875,0.0008056062506511807,0.005342300981283188,-0.00029108350281603634
1738772135364248300,7.266248291015625,0.0024865935556590557,0.0024620923213660717,0.000026897927455138415
1738772135374239200,7.2762392578125,0.000752875639591366,0.004319647327065468,0.0008996158139780164
1738772135384230100,7.286230224609375,-0.0002956108655780554,0.005441104527562857,-0.00002956108801299706
1738772135394221300,7.29622119140625,0.00006924218905624002,0.0033190976828336716,-0.0010000169277191162
1738772135404212200,7.306212158203125,0.0005520732956938446,0.0038181741256266832,0.0006743124104104936
1738772135414203100,7.316203125,0.0009353021741844714,0.0029875340405851603,-0.0013648699969053268
1738772135424195300,7.3261953125,0.0005632585380226374,0.005027248989790678,-0.0007198524544946849
1738772135434186200,7.336186279296875,0.0011984225129708648,0.0028730181511491537,0.00040666470886208117
1738772135444177200,7.34617724609375,0.002796585438773036,0.0031846079509705305,-0.00013502225920092314
1738772135454168300,7.356168212890625,-0.00015472965606022626,0.004425374791026115,-0.0017028251895681024
1738772135464159200,7.3661591796875,-0.0003051982494071126,0.005403819959610701,-0.0008862999966368079
1738772135474150100,7.376150146484375,0.001315068919211626,0.003829892026260495,0.001130245509557426
1738772135484141300,7.386141357421875,0.0015267902053892612,0.005362807307392359,0.0014381069922819734
1738772135494132200,7.39613232421875,0.0027241474017500877,0.002956375014036894,-0.0007590008899569511
1738772135504124200,7.406124267578125,0.0017899106023833156,0.0029430591966956854,0.00040027310024015605
1738772135514115300,7.416115234375,0.0023121563717722893,0.0041369544342160225,0.0005182511522434652
1738772135524106200,7.426106201171875,0.0008756473544053733,0.004720985423773527,0.00014274542627390474
1738772135534097200,7.43609716796875,0.0021403825376182795,0.0012245214311406016,-0.0005613943794742227
1738772135544088000,7.446088134765625,-0.0008024104172363877,0.0022945795208215714,0.00002103897168126423
1738772135554079200,7.456079345703125,0.00205249828286469,0.005594768561422825,0.0027411917690187693
1738772135564070100,7.466070068359375,0.0003656520275399089,0.0046304380521178246,0.0010894992155954242
1738772135574062300,7.476062255859375,0.0003557983145583421,0.0026341325137764215,-0.0005858954391442239
1738772135584053200,7.48605322265625,0.0009496832499280572,0.0029947245493531227,-0.00012223910016473383
1738772135594044200,7.496044189453125,0.000603738590143621,0.0059873186983168125,0.0014090784825384617
1738772135604035000,7.50603515625,0.001615473534911871,0.004787564743310213,0.0009009473724290729
1738772135614026200,7.516026123046875,-0.00010679275874281302,0.0021291973534971476,0.001449292292818427
1738772135624017200,7.52601708984375,0.0009004147723317146,0.004181695636361837,0.0017337178578600287
1738772135634008000,7.536008056640625,0.0017201356822624803,0.0041188448667526245,0.0015188007382676005
1738772135643999200,7.545999267578125,0.0017560884589329362,0.00358754419721663,0.000030360035452758893
1738772135653991200,7.5559912109375,0.0018002968281507492,0.0018282600212842226,-0.0005547364708036184
1738772135663982000,7.565982177734375,0.0020999026019126177,0.006387591827660799,-0.0007105313707143068
1738772135673973200,7.57597314453125,0.001639441936276853,0.0037294907961040735,-0.000441818410763517
1738772135683964200,7.585964111328125,0.0025329324416816235,0.0037918086163699627,0.00002450108149787411
1738772135693955000,7.595955078125,0.0016247945604845881,0.001585646066814661,0.0014572817599400878
1738772135703946200,7.6059462890625,0.0007486145477741957,0.0043654534965753555,-0.0010191916953772306
1738772135713937400,7.6159375,0.0015552861150354147,0.00520674604922533,0.0014764565275982022
1738772135723929000,7.62592919921875,0.0015464976895600557,0.004785700235515833,0.0004873584839515388
1738772135733920300,7.635920166015625,0.00040080572944134474,0.0033135050907731056,-0.0007672567153349519
1738772135743911200,7.6459111328125,0.0016325177857652307,0.0035116442013531923,0.0007669904152862728
1738772135753902000,7.655902099609375,0.001838646363466978,0.0032032502349466085,-0.0002287655370309949
1738772135763893200,7.665893310546875,0.002173938322812319,0.003918308764696121,0.0005696501466445625
1738772135773884400,7.675884521484375,0.001588841900229454,0.004263987299054861,-0.0011323761427775025
1738772135783875300,7.685875244140625,0.001288171042688191,0.0034815503749996424,-0.00035926041891798377
1738772135793866200,7.6958662109375,0.00041278995922766626,0.0027236149180680513,-0.0003350256592966616
1738772135803858200,7.705858154296875,0.0007129282457754016,0.005359079223126173,0.0015547533985227346
1738772135813849000,7.71584912109375,0.0004577973741106689,0.0054360441863536835,-0.0002580603177193552
1738772135823840300,7.72584033203125,0.001412806916050613,0.002674879040569067,-0.0008546083699911833
1738772135833831400,7.73583154296875,0.001967010786756873,0.0043774377554655075,-0.001290834159590304
1738772135843822300,7.745822265625,0.00004420847471919842,0.005310609471052885,0.0015198660548776388
1738772135853813200,7.755813232421875,0.0028277444653213024,0.004581436049193144,0.00021598236344289035
1738772135863804400,7.765804443359375,0.0028754149097949266,0.0017781927017495036,-0.0006838997360318899
1738772135873796400,7.77579638671875,0.004009122494608164,0.0035217641852796078,0.0003680488734971732
1738772135883787300,7.785787353515625,0.001439971150830388,0.00464694993570447,0.00003941478280466981
1738772135893778400,7.7957783203125,0.00065460498444736,0.0034109766129404306,0.00013182646944187582
1738772135903769300,7.805769287109375,0.0019686087034642696,0.0025933862198144197,0.00015446334145963192
1738772135913760300,7.81576025390625,0.0011859056539833546,0.0036107138730585575,-0.0014911039033904672
1738772135923751400,7.82575146484375,0.0013725932221859694,0.006193713750690222,0.00044474788592197
1738772135933742300,7.835742431640625,-0.00017470336752012372,0.003933755215257406,0.00007350324449362233
1738772135943733200,7.845733154296875,0.0011880361707881093,0.003810983384028077,0.00030413299100473523
1738772135953725400,7.855725341796875,0.0020695424173027277,0.0032322786282747984,-0.000011717908819264267
1738772135963716400,7.86571630859375,0.0015931029338389635,0.004837632179260254,0.0003938815207220614
1738772135973707300,7.875707275390625,0.00047697214176878333,0.003925233148038387,0.00024474450037814677
1738772135983698200,7.8856982421875,0.003352120751515031,0.0029582392890006304,0.0008847020799294114
1738772135993689300,7.895689453125,0.0022357236593961716,0.003713778220117092,0.00047830372932367027
1738772136003680300,7.90568017578125,0.00058323226403445,0.0038301581516861916,-0.0005262406193651259
1738772136013671200,7.915671142578125,0.0008793757879175246,0.0014618091518059373,-0.0005001416429877281
1738772136023663400,7.925663330078125,0.0001627191377338022,0.004378769546747208,0.0004644552827812731
1738772136033654300,7.935654296875,0.0014168017078191042,0.003564907470718026,0.00008202536264434457
1738772136044894200,7.946894287109375,0.0008093346259556711,0.00475507415831089,-0.0008815063047222793
1738772136054885000,7.956885009765625,0.0019656792283058167,0.0043657198548316956,-0.00023329291434492916
1738772136064876300,7.966876220703125,0.0017563547007739544,0.0041308291256427765,0.0003057308786083013
1738772136074867200,7.9768671875,0.0007251787465065718,0.0037348170299082994,-0.0002711098059080541
1738772136084858000,7.986858154296875,0.001987517112866044,0.004596882499754429,0.00042104575550183654
1738772136094849000,7.99684912109375,0.0016695356462150812,0.004782238509505987,-0.0002069276088150218
1738772136104841200,8.00684130859375,0.00044314999831840396,0.004039482679218054,0.000021837920940015465
1738772136114832100,8.01683203125,0.0011084076249971986,0.002805107505992055,0.0005166532355360687
1738772136124823000,8.026822998046875,0.000056459015468135476,0.002086320426315069,-0.0006849650526419282
1738772136134814200,8.036814208984374,0.0021547635551542044,0.006158560048788786,-0.0014658038271591067
1738772136144805000,8.04680517578125,0.0009190568816848099,0.0046781087294220924,-0.000051132694352418184
1738772136154796000,8.056796142578126,0.002633600030094385,0.0026498453225940466,0.0007251787465065718
1738772136164787200,8.066787109375,0.003008040366694331,0.0010570086305961013,-0.0006407565670087934
1738772136174778000,8.076778076171875,0.001868207473307848,0.004366252571344376,0.0002937466779258102
1738772136184770000,8.08677001953125,0.0001536643976578489,0.006358297076076269,0.00048070057528093457
1738772136194761200,8.09676123046875,0.0009976201690733433,0.0032653016969561577,-0.00030173614504747093
1738772136204752100,8.106752197265624,0.001237571006640792,0.0018583538476377726,0.0007006776868365705
1738772136214743000,8.116742919921874,0.0016186692519113421,0.004344148561358452,-0.0005518069956451654
1738772136224734200,8.126734130859376,0.0006173207075335085,0.004549744538962841,0.001820270554162562
1738772136234725000,8.13672509765625,0.0032871398143470287,0.0027505126781761646,0.0010237190872430801
1738772136244716300,8.14671630859375,0.002120941411703825,0.0036282907240092754,0.00046046054922044277
1738772136254707200,8.156707275390625,0.0002378202771069482,0.0036762275267392397,0.0014176006661728024
1738772136264699100,8.16669921875,0.0003105245705228299,0.004205131437629461,-0.00013901700731366873
1738772136274690000,8.17668994140625,-0.0005014732014387846,0.00350365461781621,-0.0004926847759634256
1738772136284681000,8.186680908203124,-0.000336090917699039,0.0033843449782580137,-0.00048123320448212326
1738772136294672100,8.196672119140626,0.00221947836689651,0.0034416031558066607,0.001258876291103661
1738772136304663300,8.206663330078126,0.0004982774262316525,0.0037348170299082994,0.000758734589908272
1738772136314654200,8.216654296875,0.0014759238110855222,0.002977680414915085,-0.0008684568456374109
1738772136324645400,8.226645263671875,0.0006159891490824521,0.0015472965314984322,0.0009134642314165831
1738772136334637000,8.236636962890625,0.0025004418566823006,0.004199272487312555,0.0012993563432246447
1738772136344628000,8.2466279296875,0.002205097349360585,0.005066397599875927,-0.0003374225052539259
1738772136354619400,8.256619384765624,0.0019712718203663826,0.003994741477072239,0.0008162588928826153
1738772136364610300,8.2666103515625,0.0016040218761190772,0.0028064390644431114,-0.00025486451340839267
1738772136374601200,8.276601318359376,0.002255164785310626,0.004771052859723568,0.0007203850545920432
1738772136384592400,8.28659228515625,0.002582467393949628,0.0032202943693846464,0.00017736652807798237
1738772136394583300,8.296583251953125,-0.0005400890368036926,0.00213585514575243,-0.0008141283178701997
1738772136404574200,8.30657421875,0.0019390475936233997,0.0038842204958200455,-0.00009134642459684983
1738772136414565000,8.316565185546875,0.000838895735796541,0.004760666750371456,-0.0015342470724135637
1738772136424557300,8.326557373046874,0.0005526058957912028,0.004888232331722975,0.0016711335629224777
1738772136434548200,8.33654833984375,0.002959304489195347,0.0034104441292583942,0.0017321199411526322
1738772136444539400,8.346539306640626,0.0012548814993351698,0.003320695599541068,-0.0006402239087037742
1738772136454530300,8.3565302734375,0.0025126924738287926,0.00301682879216969,-0.00041758365114219487
1738772136464521200,8.366521240234375,0.0008298410102725029,0.004010720644146204,0.0024058998096734285
1738772136474512100,8.37651220703125,0.001978462329134345,0.004102333448827267,0.0014466290595009923
1738772136484503300,8.38650341796875,-0.00011158645065734163,0.0029284118209034204,0.00011185276525793597
1738772136494494200,8.396494140625,0.001719603082165122,0.0036479979753494263,-0.0009616674506105483
1738772136504486100,8.406486083984374,0.0016884441720321774,0.0038373488932847977,0.001157143502496183
1738772136514477300,8.416477294921876,0.002028263406828046,0.005273591727018356,0.0023070964962244034
1738772136524468200,8.42646826171875,0.001076982356607914,0.004321245010942221,-0.0007209177128970623
1738772136534459100,8.436459228515625,0.0009912285022437572,0.0023044333793222904,-0.0006135923322290182
1738772136544450300,8.4464501953125,0.002103897277265787,0.004881307948380709,-0.0007182545377872884
1738772136554441200,8.456441162109375,0.0018261295044794679,0.004555337131023407,-0.00039974047103896737
1738772136564432100,8.46643212890625,0.0016860472969710827,0.0036570527590811253,-0.0012450277572497725
1738772136574424300,8.47642431640625,-0.00020985709852539003,0.003394198836758733,0.0006119944155216217
1738772136584415200,8.486415283203126,0.0012450277572497725,0.0038509308360517025,-0.0000029294772048160667
1738772136594406100,8.49640625,0.0012450277572497725,0.0016077503096312284,-0.001234907773323357
1738772136604397300,8.506397216796875,0.0008535431115888059,0.0025132251903414726,0.0002287655370309949
1738772136614388200,8.51638818359375,0.000046339002437889576,0.004866394214332104,0.0013723268639296293
1738772136624379100,8.526379150390625,0.0019470370607450604,0.004730572924017906,-0.00016458335448987782
1738772136634370000,8.5363701171875,0.0013811152894049883,0.0035143073182553053,0.0002663161139935255
1738772136644361200,8.546361328125,0.0012918994762003422,0.002636263146996498,0.0014306501252576709
1738772136654353200,8.556353271484374,0.0002985403698403388,0.005167065188288689,0.00009054747351910919
1738772136664344300,8.56634423828125,0.00022210762836039066,0.005017395596951246,0.0004308994684834033
1738772136674335200,8.576335205078125,0.0024253407027572393,0.004037085920572281,0.001184041379019618
1738772136684326100,8.586326171875,0.0009432916413061321,0.0026908579748123884,0.0011502192355692387
1738772136694317000,8.596317138671875,0.00202240445651114,0.005063734482973814,0.0006436860421672463
1738772136704308200,8.60630810546875,0.0012996225850656629,0.0039023298304528,0.00014194648247212172
1738772136714299100,8.616299072265624,0.0017153420485556126,0.004577174782752991,0.0002697782183531672
1738772136724291000,8.626291015625,0.0013195963110774755,0.0037649108562618494,0.0017779263434931636
1738772136734282200,8.6362822265625,0.0008516788948327303,0.004061320796608925,0.0007270429632626474
1738772136744273200,8.646273193359375,0.0018940401496365666,0.003879160387441516,-0.0018064221367239952
1738772136754264000,8.65626416015625,0.0012343751732259989,0.005154814571142197,0.0008982842555269599
1738772136764255200,8.666255126953125,0.0007448861724697053,0.0037886130157858133,0.0004386226355563849
1738772136774246100,8.67624609375,0.00019041601626668125,0.002424808219075203,-0.00043888893560506403
1738772136784237000,8.686237060546874,0.002368349116295576,0.002641589380800724,-0.0005334311863407493
1738772136794228200,8.696228271484374,0.0031009847298264503,0.004637362435460091,0.0016234630020335317
1738772136804220200,8.70622021484375,0.0015659386990591884,0.0044019389897584915,-0.00045566685730591416
1738772136814211000,8.716211181640626,0.0015339808305725455,0.003964115399867296,0.0002287655370309949
1738772136824202200,8.7262021484375,0.0013257216196507215,0.002778475871309638,0.0007584682898595929
1738772136834193200,8.736193115234375,0.002892192918807268,0.005283178761601448,-0.00034647725988179445
1738772136844184000,8.74618408203125,0.0006799050024710596,0.003992344718426466,0.0012687299167737365
1738772136854175000,8.756175048828124,0.0017339842161163688,0.0049465554766356945,0.00037976677413098514
1738772136864166100,8.766166259765624,0.002335858531296253,0.0026114957872778177,-0.0005523395957425237
1738772136874158000,8.776157958984374,0.0021909826900810003,0.004748948849737644,0.0005850964807905257
1738772136884149200,8.786149169921876,-0.0009243832319043577,0.005363340023905039,-0.00014993596414569765
1738772136894140200,8.79614013671875,-0.00005406216951087117,0.005337773822247982,-0.0008695221040397882
1738772136904131000,8.806131103515625,0.0007912251749075949,0.002523611532524228,-0.0013499563792720437
1738772136914122000,8.8161220703125,0.0016234630020335317,0.003221359569579363,-0.0008969526388682425
1738772136924113200,8.826113037109375,0.0018876485992223024,0.005116465035825968,0.0028788771014660597
1738772136934104300,8.836104248046874,0.00036511936923488975,0.004342017695307732,-0.001076715998351574
1738772136944096000,8.846095947265624,0.0025710156187415123,0.0033933997619897127,-0.00043036683928221464
1738772136954087200,8.856087158203126,0.0013648699969053268,0.0032029838766902685,0.002290318487212062
1738772136964078000,8.866078125,0.0010596717474982142,0.0036448021419346333,0.0013813816476613283
1738772136974069000,8.876069091796875,0.0004673847579397261,0.004269047174602747,-0.000041811628761934116
1738772136984060200,8.88606005859375,0.0008793757879175246,0.001421861699782312,0.001210406655445695
1738772136994051300,8.89605126953125,0.002532399957999587,0.0027478495612740517,0.0016170714516192675
1738772137004041700,8.906041748046874,0.0015209312550723553,0.00387276872061193,0.0015102786710485816
1738772137014032600,8.91603271484375,0.0017638115677982569,0.0044075315818190575,-0.0007323693134821951
1738772137024024800,8.92602490234375,0.0007531419396400452,0.0034911378752440214,-0.0009811085183173418
1738772137034015700,8.936015625,0.0009049421059899032,0.004277036525309086,0.00145195540972054
1738772137044006700,8.946006591796875,0.0021726067643612623,0.0055092815309762955,0.0006351639167405665
1738772137053997800,8.955997802734375,0.0009406284661963582,0.004148139618337154,-0.00013209278404247016
1738772137063988700,8.96598876953125,0.002831206424161792,0.0031039142049849033,0.00007643271965207532
1738772137073979600,8.975979736328124,0.0021017666440457106,0.0025276062078773975,0.0005989448982290924
1738772137083970800,8.985970703125,0.0011944277212023735,0.005284776911139488,-0.000006391586794052273
1738772137093962800,8.995962646484376,0.0013142699608579278,0.004604339133948088,0.0009685916593298316
1738772137103953700,9.00595361328125,0.0016042882343754172,0.002793655963614583,0.00024740767548792064
1738772137113944800,9.01594482421875,0.002427204977720976,0.00401631323620677,0.00221947836689651
1738772137123935700,9.025935791015625,0.003180879633873701,0.00566933723166585,-0.00014887070574332029
1738772137133926700,9.0359267578125,0.0015933692920953035,0.005005944054573774,0.000969656917732209
1738772137143917800,9.045917724609374,0.00021917815320193768,0.0025094966404139996,-0.00014274542627390474
1738772137153908700,9.05590869140625,0.000857005245052278,0.0028333370573818684,0.0007656587986275554
1738772137163899600,9.065899658203126,0.0014671353856101632,0.004887166898697615,0.0015643407823517919
1738772137173891800,9.075891845703126,0.0002359560749027878,0.00452817277982831,0.001645567244850099
1738772137183882800,9.0858828125,0.003681021276861429,0.0017686053179204464,0.0006828344776295125
1738772137193873700,9.095873779296875,0.0006143912323750556,0.0027917916886508465,0.0007416903390549123
1738772137203864800,9.10586474609375,0.0013667342718690634,0.005691441707313061,0.0006828344776295125
1738772137213855700,9.115855712890625,0.0008223841432482004,0.005113535560667515,0.0016325177857652307
1738772137223846700,9.1258466796875,0.00293373828753829,0.0019371833186596632,0.000021305288100847974
1738772137233837600,9.135837646484376,0.001460477476939559,0.0027627632953226566,-0.001541171339340508
1738772137243829800,9.145829833984376,0.0010671286145225167,0.0055028898641467094,-0.0005944175645709038
1738772137253820700,9.155820556640625,0.0010716560063883662,0.006839796435087919,0.0018674085149541497
1738772137263811600,9.1658115234375,-0.0006303702248260379,0.004384362138807774,-0.0003206445835530758
1738772137273802800,9.175802734375,0.0010436928132548928,0.0022210762836039066,-0.00012250541476532817
1738772137283793700,9.185793701171875,0.001389637473039329,0.004095142707228661,0.0012247877893969417
1738772137293784600,9.19578466796875,0.0019321233266964555,0.005642705596983433,0.0008604673203080893
1738772137303775700,9.205775634765626,0.0016421051695942879,0.0032442628871649504,0.00036618465674109757
1738772137313766700,9.2157666015625,0.00025273399660363793,0.0019025622168555856,0.0001507349224993959
1738772137323758600,9.225758544921876,0.0010713896481320262,0.0036581179592758417,0.0010713896481320262
1738772137333749800,9.235749755859375,0.0020058928057551384,0.005346828605979681,0.0007424892974086106
1738772137343740700,9.24574072265625,0.00020506340661086142,0.0030836742371320724,0.0006111954571679235
1738772137353731600,9.255731689453125,0.0026554379146546125,0.0018695390317589045,-0.0005744438385590911
1738772137363722800,9.26572265625,0.002719087526202202,0.004384628497064114,0.0002412823960185051
1738772137373713700,9.275713623046874,0.001612544059753418,0.005842442624270916,0.0010109359864145517
1738772137383704600,9.28570458984375,0.003228283952921629,0.003425357863306999,0.0004271710349712521
1738772137393696800,9.29569677734375,-0.0005014732014387846,0.0043867588974535465,-0.0007486145477741957
1738772137403687700,9.305687744140625,0.0003936151915695518,0.0030594393610954285,-0.0009126652730628848
1738772137413678600,9.3156787109375,0.0007118629291653633,0.004165982827544212,0.0008860336965881288
1738772137423669800,9.325669677734375,0.00162426196038723,0.00395825644955039,-0.000809068325906992
1738772137433660700,9.33566064453125,0.0029553098138421774,0.0031257520895451307,-0.0003531351685523987
1738772137443651600,9.345651611328124,0.002141980454325676,0.003347060875967145,-0.00026019083452410996
1738772137453642500,9.355642578125,0.0005020058597438037,0.005817675497382879,0.001056476030498743
1738772137463633700,9.365633544921875,0.0009366337326355278,0.00449941074475646,0.00047590688336640596
1738772137473625600,9.37562548828125,0.00035180358099751174,0.003379285102710128,0.0007920240750536323
1738772137483616500,9.385616455078125,0.001181111903861165,0.0024953819811344147,0.0015725966077297926
1738772137493607700,9.395607666015625,0.0008170577930286527,0.00376011710613966,-0.0003374225052539259
1738772137503598600,9.4055986328125,0.0020807278342545033,0.005689843557775021,0.0004588626616168767
1738772137513589500,9.415589599609374,0.0008711199625395238,0.0027973842807114124,-0.0015299860388040543
1738772137523580700,9.42558056640625,0.0017326525412499905,0.0035324168857187033,-0.00040000680019147694
1738772137533571800,9.43557177734375,0.0005496764206327498,0.005053880624473095,-0.0001150485550169833
1738772137543563500,9.4455634765625,0.0001757686259225011,0.00549223693087697,-0.000020772657080669887
1738772137553554700,9.4555546875,0.0007856325246393681,0.0023366576060652733,-0.00046685212873853743
1738772137563545600,9.465545654296875,0.0006609965930692852,0.0021848573815077543,0.00035366779775358737
1738772137573536500,9.47553662109375,0.0013273194199427962,0.004430701024830341,0.0005877596559002995
1738772137583527700,9.485527587890624,0.0006508765509352088,0.0031553131993860006,0.0002926813904196024
1738772137593518800,9.495518798828124,0.00015419702685903758,0.002543851500377059,-0.000333161442540586
1738772137603509800,9.505509765625,0.0015811186749488115,0.0035380094777792692,0.00036458674003370106
1738772137613500700,9.515500732421875,0.0021965752821415663,0.004667189903557301,-0.0018218684708699584
1738772137623492600,9.52549267578125,0.0010138654615730047,0.003887682454660535,0.0003153182624373585
1738772137633483800,9.53548388671875,0.0014924354618415236,0.0037145770620554686,-0.000050600061513250694
1738772137643475000,9.545474853515625,0.0019502328941598535,0.004751345608383417,-0.0005643238546326756
1738772137653465900,9.5554658203125,0.0007446198142133653,0.004290352575480938,0.0019797938875854015
1738772137663456800,9.565456787109374,-0.0002412823960185051,0.004197141621261835,0.0005824333056807518
1738772137673447700,9.57544775390625,0.001056476030498743,0.00433029979467392,0.00035499935620464385
1738772137683438800,9.58543896484375,0.0020066918805241585,0.00392683083191514,0.0007688545738346875
1738772137693430800,9.5954306640625,0.0016591493040323257,0.00455613574013114,0.0010381002211943269
1738772137703421700,9.605421630859375,-0.00011291803093627095,0.005320463329553604,-0.0006964165950194001
1738772137713412900,9.615412841796875,0.00044554684427566826,0.005250688176602125,0.0009504822082817554
1738772137723403800,9.62540380859375,0.0010804444318637252,0.0038490667939186096,0.0003992078418377787
1738772137733394700,9.635394775390624,0.003982490859925747,0.004225371405482292,0.001306014135479927
1738772137743385900,9.6453857421875,0.0029846045654267073,0.004462126176804304,0.00003462109452812001
1738772137753376800,9.655376708984376,0.0012389025650918484,0.002426938619464636,-0.000472977408207953
1738772137763367700,9.66536767578125,0.003111104713752866,0.003093527862802148,0.00202320353128016
1738772137773359900,9.67535986328125,0.0012578109744936228,0.0041465419344604015,-0.0002897519152611494
1738772137783350800,9.685350830078125,0.002183792181313038,0.002614957746118307,0.0003757720405701548
1738772137793341700,9.695341796875,0.0010074737947434187,0.0029995182994753122,-0.0003177151083946228
1738772137803332900,9.705332763671874,0.0010050770360976458,0.0041129859164357185,-0.0004114583716727793
1738772137813323800,9.71532373046875,0.0010892328573390841,0.0034298852551728487,0.0010540791554376483
1738772137823314700,9.725314697265626,0.001966478070244193,0.003686613868921995,-0.0006620618514716625
1738772137833305600,9.7353056640625,0.0014626081101596355,0.003466370515525341,0.0007339671719819307
1738772137843296800,9.745296875,0.0023350596893578768,0.0032048479188233614,0.0010705908061936498
1738772137853288700,9.755288818359375,0.0013004215434193611,0.004856008104979992,-0.0005531385540962219
1738772137863279900,9.76527978515625,0.0026522420812398195,0.0035369442775845528,0.0011486213188618422
1738772137873270800,9.775270751953125,0.001817873795516789,0.0032197616528719664,0.001591771375387907
1738772137883261700,9.78526171875,0.0015227955300360918,0.004553472623229027,0.00037923414492979646
1738772137893252600,9.795252685546876,0.001463673310354352,0.0028008464723825455,-0.0005440838285721838
1738772137903243800,9.805243896484376,0.0014466290595009923,0.001862082164734602,0.0004697816038969904
1738772137913234700,9.815234619140625,0.0005169195355847478,0.00410552928224206,0.0003158508916385472
1738772137923226600,9.8252265625,0.0006271744496189058,0.006969226058572531,-0.00006657902849838138
1738772137933217800,9.8352177734375,0.002597647253423929,0.003913515247404575,-0.0003281014505773783
1738772137943208700,9.845208740234375,0.002094309777021408,0.0019145464757457376,0.0004218447138555348
1738772137953199600,9.85519970703125,0.0013230583863332868,0.005446430761367083,-0.000675111310556531
1738772137963190800,9.865190673828126,0.0005281048361212015,0.006613694131374359,0.0011763182701542974
1738772137973181700,9.875181640625,0.0035803536884486675,0.0034642398823052645,0.0014226606581360102
1738772137983172600,9.885172607421875,0.0010458233300596476,0.001961684552952647,-0.00040480049210600555
1738772137993163500,9.89516357421875,0.0016405072528868914,0.004803809802979231,0.0011369034182280302
1738772138003155700,9.90515576171875,0.0006253102328628302,0.0033843449782580137,-0.0007962851668708026
1738772138013146600,9.915146728515625,0.0017624800093472004,0.002201635157689452,0.001398425898514688
1738772138023137800,9.9251376953125,0.001186970854178071,0.003793140407651663,0.0005147890187799931
1738772138033128700,9.935128662109374,0.0011827098205685616,0.005671733990311623,0.00047084689140319824
1738772138043119600,9.94511962890625,0.0028421254828572273,0.003344131400808692,-0.001133707701228559
1738772138053110800,9.95511083984375,0.0009432916413061321,0.00224903947673738,0.00008868326403899118
1738772138063101700,9.965101806640625,0.000300404557492584,0.004729241598397493,-0.0000958738019107841
1738772138073093600,9.97509375,0.0014809839194640517,0.004542021080851555,-0.0006386260502040386
1738772138083084800,9.985084716796875,0.002338788006454706,0.0030514500103890896,-0.00018988338706549257
1738772138093075700,9.99507568359375,0.0003406183095648885,0.0041193775832653046,0.001415736391209066
1738772138103066600,10.005066650390624,0.0015446334145963192,0.0021675468888133764,-0.001817607437260449
1738772138113057800,10.015057861328126,0.00022690132027491927,0.001603222917765379,0.0004122573300264776
1738772138123048700,10.025048583984375,0.002382996492087841,0.002257561543956399,0.0015283881220966578
1738772138133039600,10.03503955078125,0.001386707997880876,0.004947620443999767,0.0004527373821474612
1738772138143030500,10.045030517578125,0.0003352919884491712,0.0020724718924611807,0.001181111903861165
1738772138153022700,10.055022705078125,0.000049801110435510054,0.0015864450251683593,0.00040027310024015605
1738772138163013600,10.065013671875,0.0026192190125584602,0.004238420631736517,0.00021225394448265433
1738772138173004500,10.075004638671874,0.00038056570338085294,0.005844307132065296,0.0024351945612579584
1738772138182995700,10.08499560546875,0.0007621967233717442,0.003628556849434972,0.001660480978898704
1738772138192986600,10.094986572265626,0.002775546396151185,0.0024679512716829777,-0.0018865832826122642
1738772138202977500,10.1049775390625,0.0007012102869339287,0.00282055395655334,0.0006948187365196645
1738772138212968700,10.11496875,-0.000018375811123405583,0.004764928016811609,0.0025036376900970936
1738772138222959900,10.1249599609375,0.0007403587806038558,0.005034706089645624,0.0013811152894049883
1738772138232951600,10.13495166015625,0.0008847020799294114,0.0031638352666050196,-0.001401089015416801
1738772138242942700,10.144942626953124,0.0007203850545920432,0.001912948559038341,0.0011486213188618422
1738772138252933600,10.15493359375,0.0014365090755745769,0.003943609073758125,0.000928377965465188
1738772138262924500,10.164924560546876,0.001071123406291008,0.005402754992246628,0.0007475492893718183
1738772138272916000,10.174916015625,0.0016024239594116807,0.004642955027520657,0.0007073355955071747
1738772138282907000,10.184906982421875,0.0023987090680748224,0.000993625377304852,-0.0018807243322953582
1738772138292897800,10.194897705078125,0.0019536949694156647,0.0028546424582600594,0.0018242653459310532
1738772138302888700,10.204888671875,0.0011475561186671257,0.0040946099907159805,0.0013677994720637798
1738772138312880600,10.214880615234375,0.0011563445441424847,0.0062307314947247505,-0.0013086773687973619
1738772138322871800,10.224871826171874,0.00169563468080014,0.003427221905440092,-0.002287389012053609
1738772138332863000,10.234863037109376,0.0010210559703409672,0.0005731122801080346,0.0011046791914850473
1738772138342854000,10.24485400390625,0.003266899613663554,0.0031164311803877354,0.0008074704091995955
1738772138352844800,10.2548447265625,0.0007366303470917046,0.0041129859164357185,0.0018442390719428658
1738772138362835700,10.264835693359375,0.0013840447645634413,0.004187820944935083,-0.0012602078495547175
1738772138372827000,10.274826904296875,0.001686579897068441,0.0020426444243639708,-0.0011792477453127503
1738772138382817800,10.28481787109375,0.0006197175825946033,0.006087187211960554,0.0009246495319530368
1738772138392809700,10.294809814453124,0.001674595638178289,0.006081594619899988,0.0008556736283935606
1738772138402801000,10.30480078125,0.002005093963816762,0.002447977662086487,-0.000708134553860873
1738772138412791800,10.314791748046876,0.0009528790251351893,0.0023334617726504803,0.00042024682625196874
1738772138422782700,10.32478271484375,0.0018634138396009803,0.003192064817994833,0.0018815232906490564
1738772138432774000,10.33477392578125,0.001844505313783884,0.006071740761399269,0.0013422331539914012
1738772138442764800,10.344764892578125,0.0032120386604219675,0.00347435986623168,0.0009749832679517567
1738772138452755700,10.354755615234374,0.0016415724530816078,0.0027363980188965797,0.00008175904804375023
1738772138462748000,10.364747802734374,0.000743820914067328,0.004111920483410358,0.000032490566809428856
1738772138472738800,10.37473876953125,0.0010516822803765535,0.004836300387978554,0.0003009371866937727
1738772138482729700,10.384729736328126,0.002290851203724742,0.003486077766865492,0.0006671218434348702
1738772138492721000,10.394720947265625,-0.00022130868455860764,0.004135356284677982,-0.00027377295191399753
1738772138502711800,10.4047119140625,0.00012756542128045112,0.00421205535531044,-0.0011949603212997317
1738772138512702700,10.41470263671875,0.000841825210954994,0.003876230912283063,0.00022770027862861753
1738772138522693600,10.424693603515625,0.0013869742397218943,0.0037294907961040735,-0.0015595471486449242
1738772138532684800,10.434684814453124,0.0017835189355537295,0.004098871257156134,0.0008492820779792964
1738772138542676700,10.4446767578125,0.000824248360004276,0.004123372491449118,-0.0021763353142887354
1738772138552668000,10.45466796875,0.0012420982820913196,0.003996073268353939,-0.00011851066665258259
1738772138562658800,10.464658935546876,0.0024293356109410524,0.004794222768396139,0.0009888317435979843
1738772138572649700,10.474649658203125,0.0014154701493680477,0.0049406965263187885,0.0015630092239007354
1738772138582640600,10.484640625,0.0005467469454742968,0.0034562505315989256,0.0008319715270772576
1738772138592631800,10.4946318359375,0.002100168727338314,0.00401604687795043,-0.0004809668753296137
1738772138602622700,10.504622802734374,0.0013787185307592154,0.0032754219137132168,0.0007257114048115909
1738772138612613600,10.514613525390626,0.001919340225867927,0.004765992984175682,0.0006807039608247578
1738772138622605800,10.524605712890626,-0.0008210525847971439,0.004742290824651718,-0.00010386328358436003
1738772138632596700,10.5345966796875,0.00047351003740914166,0.002968625631183386,0.0012594088912010193
1738772138642587600,10.544587646484375,0.0009587379754520953,0.004304467234760523,0.0018218684708699584
1738772138652578800,10.554578857421875,0.000949150591623038,0.004408597014844418,0.0012418320402503014
1738772138662569700,10.56456982421875,0.0018783274572342634,0.0035947347059845924,-0.0007235808880068362
1738772138672560600,10.574560546875,0.0006282397080212831,0.002983539365231991,0.00036192359402775764
1738772138682551800,10.5845517578125,0.0014037522487342358,0.003620034782215953,0.0008647284121252596
1738772138692542700,10.594542724609376,0.0010290454374626279,0.006118878722190857,0.00027057717670686543
1738772138702534700,10.60453466796875,-0.00011078749957960099,0.0015480954898521304,0.0009688580175861716
1738772138712525800,10.61452587890625,0.0014615427935495973,0.003953728824853897,-0.00017417073831893504
1738772138722516700,10.624516845703125,0.0018666095566004515,0.003129746997728944,0.00199364242143929
1738772138732507600,10.634507568359375,0.000472977408207953,0.003900199430063367,0.0014855111949145794
1738772138742498600,10.64449853515625,0.0021198762115091085,0.0037316211964935064,-0.00031611722079105675
1738772138752489700,10.65448974609375,0.0002591255761217326,0.002727875951677561,-0.001023186487145722
1738772138762480600,10.664480712890626,-0.000002663161012605997,0.0031278827227652073,-0.00009454221435589716
1738772138772471600,10.674471435546875,-0.000150202278746292,0.005419532768428326,0.0022423816844820976
1738772138782463700,10.684463623046875,0.0017781927017495036,0.0035204326268285513,-0.0006418218254111707
1738772138792454700,10.69445458984375,0.0031180288642644882,0.0018905780743807554,-0.0002892192860599607
1738772138802445600,10.704445556640625,0.001020523370243609,0.0034639735240489244,-0.0004980111261829734
1738772138812436700,10.714436767578125,0.002651443239301443,0.005143895745277405,0.0000876179983606562
1738772138822427600,10.724427734375,0.0022301310673356056,0.00443895673379302,-0.00005219795639277436
1738772138832418600,10.73441845703125,0.00044314999831840396,0.0038986015133559704,-0.00019121496006846428
1738772138842409700,10.74440966796875,-0.000010386328540334944,0.0033899378031492233,-0.0008436894277110696
1738772138852401000,10.75440087890625,0.0007451524725183845,0.004415520932525396,0.0006764429272152483
1738772138862392600,10.764392578125,0.001041562296450138,0.00261868629604578,-0.00006578007742064074
1738772138872383700,10.7743837890625,0.0003025351034011692,0.004500209353864193,0.0018053569365292788
1738772138882374700,10.784374755859375,0.0018122810870409012,0.0036812876351177692,-0.00024048343766480684
1738772138892365600,10.794365478515624,0.0012221246724948287,0.003338006092235446,-0.0002103897277265787
1738772138902356700,10.804356689453124,0.000952080066781491,0.004150270018726587,0.0017843178939074278
1738772138912348000,10.814347900390626,0.0026844663079828024,0.004904743749648333,0.002417883835732937
1738772138922338800,10.8243388671875,0.0017805894603952765,0.004455202259123325,-0.001674861996434629
1738772138932329700,10.834329833984375,0.0006207828409969807,0.0034618431236594915,-0.00014088122406974435
1738772138942321700,10.84432177734375,0.0018487664638087153,0.0017707358347252011,0.0005097290268167853
1738772138952312800,10.854312744140625,0.0006149238906800747,0.005628324579447508,0.0010804444318637252
1738772138962303700,10.8643037109375,0.0014386395923793316,0.004308994393795729,0.0010940266074612737
1738772138972295000,10.874294921875,0.0018421085551381111,0.002686330582946539,0.0018463695887476206
1738772138982285800,10.884285888671876,0.000150202278746292,0.0031310785561800003,0.002231462625786662
1738772138992276700,10.89427685546875,0.001401355373673141,0.005642172880470753,0.00019654128118418157
1738772139002268400,10.904268310546875,0.0030722226947546005,0.005899700801819563,-0.0005811017472296953
1738772139012260000,10.914260009765625,0.0033720945939421654,0.0021856562234461308,0.00025220136740244925
1738772139022251000,10.9242509765625,0.0016974988393485546,0.003849332919344306,-0.00009187905379803851
1738772139032242200,10.9342421875,0.001576857641339302,0.0041310954838991165,0.0005243764026090503
1738772139042233300,10.9442333984375,0.0027507790364325047,0.0020903151016682386,-0.0009408948244526982
1738772139052224300,10.954224365234374,0.0017512947088107467,0.002162220422178507,-0.0014599448768422008
1738772139062215200,10.964215087890626,0.0004138552176300436,0.0054581486620008945,-0.00007483482477255166
1738772139072206300,10.974206298828125,0.0004165183927398175,0.005625128746032715,0.0014333132421597838
1738772139082197200,10.984197265625,0.0018453042721375823,0.0008229167433455586,-0.0014085458824411035
1738772139092189200,10.994189208984375,0.0014495585346594453,0.0018881811993196607,0.00022610237647313625
1738772139102180400,11.004180419921875,0.0013004215434193611,0.004941761493682861,0.0010221211705356836
1738772139112171300,11.014171142578125,0.0016085492679849267,0.005275988485664129,0.0005696501466445625
1738772139122162200,11.024162109375,0.0006950850365683436,0.0016980315558612347,-0.0008988168556243181
1738772139132153300,11.0341533203125,0.00027750138542614877,0.0015704660909250379,0.0008833705214783549
1738772139142144300,11.044144287109376,0.0006362291751429439,0.005650429055094719,0.0010125337867066264
1738772139152135200,11.05413525390625,0.001419198582880199,0.004865328781306744,0.0022154836915433407
1738772139162126300,11.064126220703125,0.002650910522788763,0.002516953507438302,0.00009986854274757206
1738772139172118300,11.0741181640625,0.0005627259379252791,0.0009462211164645851,0.000248472933890298
1738772139182109200,11.084109130859375,0.00010439591278554872,0.0035116442013531923,0.00023755396250635386
1738772139192100400,11.094100341796874,0.0011467571603134274,0.006969758775085211,0.002397643867880106
1738772139202091300,11.10409130859375,0.0019494339358061552,0.004936701618134975,-0.0008380967774428427
1738772139212082200,11.114082275390626,0.001130245509557426,0.0007371630053967237,-0.0018788601737469435
1738772139222073300,11.1240732421875,0.0029017801862210035,0.0027262780349701643,-0.00014061490946915
1738772139232064300,11.134064208984375,0.0012711267918348312,0.006708769127726555,0.003200586885213852
1738772139242056200,11.14405615234375,0.00037284253630787134,0.006037119776010513,0.0001882854849100113
1738772139252047400,11.15404736328125,0.001904160133562982,0.0022652847692370415,-0.000055393749789800495
1738772139262038300,11.164038330078125,0.0011464908020570874,0.0005278385360725224,-0.0007036071619950235
1738772139272029200,11.174029296875,0.0004974784678779542,0.004324973560869694,0.001193362521007657
1738772139282020000,11.18402001953125,0.0009273127070628107,0.006905310321599245,0.001141963410191238
1738772139292011300,11.19401123046875,-0.0005270395777188241,0.002171807922422886,-0.00044794369023293257
1738772139302002200,11.204002197265625,0.00023302659974433482,0.0028032432310283184,0.000018109494703821838
1738772139311993000,11.2139931640625,0.0014689996605738997,0.004336957819759846,0.0014136058744043112
1738772139321985300,11.2239853515625,0.0002002697146963328,0.0031763522420078516,0.0010876349406316876
1738772139331976200,11.23397607421875,0.027875306084752083,-0.009257680736482143,-0.004349208436906338
1738772139341967000,11.243967041015624,0.008925317786633968,0.009602293372154236,0.002129729837179184
1738772139351958300,11.253958251953126,0.0027856663800776005,-0.0010636665392667055,-0.00021305288828443736
1738772139361949200,11.26394921875,-0.0011488876771181822,0.007326888851821423,0.002453836612403393
1738772139371940000,11.273940185546875,0.0006298375665210187,0.010435064323246479,0.001659948262386024
1738772139381931300,11.28393115234375,-0.0010482202051207423,0.00678253872320056,0.0013688647886738181
1738772139391923200,11.293923095703125,-0.008529306389391422,-0.016860205680131912,-0.0038922098465263844
1738772139401914000,11.3039140625,0.016801616176962852,0.017966216430068016,0.007360977120697498
1738772139411905300,11.3139052734375,-0.00851439218968153,-0.00040426786290481687,0.000010652644050423987
1738772139421896200,11.323896240234374,0.01830150932073593,0.01167556457221508,0.0007294398383237422
1738772139431887000,11.33388720703125,-0.010995925404131413,-0.015048458240926266,-0.003754790872335434
1738772139441878300,11.343878173828125,0.01745595596730709,0.017253555357456207,0.0034296188969165087
1738772139451869200,11.353869140625,-0.012828979641199112,-0.004708468914031982,0.0006077333819121122
1738772139461860000,11.363860107421875,0.018969163298606873,0.015284414403140545,0.0009930927772074938
1738772139471852300,11.373852294921875,-0.013544570654630661,-0.010157829150557518,-0.001969407545402646
1738772139481843200,11.38384326171875,0.006620085798203945,0.011714979074895382,-0.0005880259559489787
1738772139491834000,11.393834228515624,0.015208248049020767,0.0008255799184553325,-0.0010527475969865918
1738772139501825000,11.403824951171876,-0.000630902883131057,0.005543636158108711,0.002755040070042014
1738772139511816200,11.413816162109375,0.0016551546286791563,0.0018461032304912806,0.00003834952076431364
1738772139521807000,11.42380712890625,0.0016666061710566282,0.0034706315491348505,-0.0016490293201059103
1738772139531798000,11.433798095703125,0.000958205375354737,0.0018756643403321505,0.00038509309524670243
1738772139541789200,11.4437890625,0.001853293739259243,0.0047055394388735294,0.0011502192355692387
1738772139551781000,11.453781005859375,0.0004527373821474612,0.005757221486419439,0.0017614146927371621
1738772139561772000,11.46377197265625,0.0005882922559976578,0.003968642558902502,-0.00043276368523947895
1738772139571763200,11.47376318359375,0.0006266417913138866,0.001958488719537854,-0.0004796353168785572
1738772139581754000,11.483754150390626,-0.0002490055630914867,0.004267183132469654,0.0011608719360083342
1738772139591745000,11.4937451171875,0.003117496380582452,0.005116465035825968,0.0021134845446795225
1738772139601736200,11.503736083984375,0.0001877528557088226,0.004768656101077795,0.001181378262117505
1738772139611727400,11.513727294921875,0.000499875342939049,0.0018876485992223024,0.00009614011651137844
1738772139621719000,11.523718994140625,0.0027739484794437885,0.0044320328161120415,0.0006945523782633245
1738772139631710200,11.533710205078124,0.0007518103811889887,0.005249090492725372,0.0006535397260449827
1738772139641701000,11.543701171875,0.0030189594253897667,0.004343615844845772,0.0006447513005696237
1738772139651692000,11.553692138671876,0.0011211908422410488,0.003498594742268324,0.0005826996639370918
1738772139661683200,11.56368310546875,0.0021614215802401304,0.003634682158008218,0.00038456046604551375
1738772139671674400,11.57367431640625,0.0015598133904859424,0.003635481232777238,0.0006074670236557722
1738772139681665300,11.583665283203125,0.000883636821527034,0.004021373111754656,0.0017989652696996927
1738772139691657200,11.5936572265625,0.0008138620178215206,0.003525758860632777,0.0006910903030075133
1738772139701648100,11.603648193359374,0.00006125270738266408,0.0023252058308571577,-0.00018482338055036962
1738772139711639000,11.61363916015625,0.0009829727932810783,0.0028644960839301348,-0.00010066748654935509
1738772139721630200,11.623630126953126,0.0004929511342197657,0.004159324802458286,0.00130894361063838
1738772139731621400,11.633621337890625,0.00210629403591156,0.0049500176683068275,0.0005230448441579938
1738772139741612300,11.6436123046875,0.000800279900431633,0.0027987160719931126,-0.00001917476038215682
