time,seconds_elapsed,z,y,x
1738773095584795600,0.023795654296875,-0.205108642578125,-0.0114898681640625,-0.9850311279296875
1738773095594786600,0.03378662109375,-0.199859619140625,-0.0127716064453125,-0.9856109619140625
1738773095604777700,0.04377783203125,-0.22747802734375,-0.01275634765625,-0.9825897216796875
1738773095614768600,0.0537685546875,-0.2211761474609375,-0.011627197265625,-0.984710693359375
1738773095624760600,0.063760498046875,-0.201263427734375,-0.011474609375,-0.9859161376953125
1738773095634751700,0.073751708984375,-0.212677001953125,-0.011444091796875,-0.9846954345703125
1738773095644742700,0.08374267578125,-0.2248992919921875,-0.0107574462890625,-0.98358154296875
1738773095654733600,0.093733642578125,-0.2109375,-0.011566162109375,-0.9853515625
1738773095664724500,0.103724365234375,-0.207366943359375,-0.0117034912109375,-0.984710693359375
1738773095674715600,0.113715576171875,-0.2209625244140625,-0.011138916015625,-0.9841156005859375
1738773095684706600,0.12370654296875,-0.21722412109375,-0.011016845703125,-0.9827117919921875
1738773095694697700,0.13369775390625,-0.205413818359375,-0.0111541748046875,-0.9835052490234375
1738773095704689000,0.14368896484375,-0.2150726318359375,-0.0114898681640625,-0.984344482421875
1738773095714680600,0.1536806640625,-0.220703125,-0.011260986328125,-0.9847412109375
1738773095724671500,0.16367138671875,-0.2101593017578125,-0.0101776123046875,-0.9840850830078125
1738773095734662700,0.17366259765625,-0.2091217041015625,-0.011962890625,-0.9851837158203125
1738773095744653800,0.18365380859375,-0.21807861328125,-0.01092529296875,-0.98382568359375
1738773095754644700,0.193644775390625,-0.2177734375,-0.01214599609375,-0.983978271484375
1738773095764636000,0.203635986328125,-0.2104949951171875,-0.0116729736328125,-0.9850616455078125
1738773095774626800,0.213626708984375,-0.2154541015625,-0.0110015869140625,-0.984344482421875
1738773095784617700,0.22361767578125,-0.2166900634765625,-0.0113067626953125,-0.9839935302734375
1738773095794609700,0.233609619140625,-0.2118682861328125,-0.0103302001953125,-0.98406982421875
1738773095804600800,0.243600830078125,-0.2130584716796875,-0.0112152099609375,-0.983917236328125
1738773095814591700,0.253591796875,-0.217437744140625,-0.01177978515625,-0.9836273193359375
1738773095824582700,0.263582763671875,-0.21405029296875,-0.010711669921875,-0.983734130859375
1738773095834573800,0.27357373046875,-0.210784912109375,-0.0103607177734375,-0.9848175048828125
1738773095844564700,0.283564697265625,-0.2139739990234375,-0.0108489990234375,-0.984039306640625
1738773095854555600,0.2935556640625,-0.2173919677734375,-0.011993408203125,-0.9843597412109375
1738773095864546800,0.303546875,-0.2149200439453125,-0.0113983154296875,-0.9839019775390625
1738773095874538800,0.313538818359375,-0.2129364013671875,-0.010589599609375,-0.9847412109375
1738773095884529700,0.32352978515625,-0.2132720947265625,-0.0102996826171875,-0.9839935302734375
1738773095894520800,0.333520751953125,-0.2128753662109375,-0.01019287109375,-0.9833831787109375
1738773095904511700,0.34351171875,-0.212310791015625,-0.011444091796875,-0.9846954345703125
1738773095914502700,0.353502685546875,-0.2168121337890625,-0.0123138427734375,-0.9837646484375
1738773095924493800,0.363493896484375,-0.214324951171875,-0.0105438232421875,-0.983428955078125
1738773095934484700,0.373484619140625,-0.21209716796875,-0.0105743408203125,-0.9836883544921875
1738773095944475600,0.3834755859375,-0.2156829833984375,-0.010955810546875,-0.9835357666015625
1738773095954466600,0.393466552734375,-0.21661376953125,-0.01177978515625,-0.9840087890625
1738773095964458800,0.403458740234375,-0.2143402099609375,-0.0108489990234375,-0.9839324951171875
1738773095974449700,0.41344970703125,-0.212371826171875,-0.0102081298828125,-0.9830780029296875
1738773095984440800,0.42344091796875,-0.21533203125,-0.0105133056640625,-0.9840850830078125
1738773095994431700,0.433431640625,-0.214752197265625,-0.009552001953125,-0.9850311279296875
1738773096004422700,0.443422607421875,-0.2144317626953125,-0.00958251953125,-0.983673095703125
1738773096014413600,0.45341357421875,-0.214569091796875,-0.0115814208984375,-0.984130859375
1738773096024404700,0.46340478515625,-0.2145538330078125,-0.0101470947265625,-0.983673095703125
1738773096034395600,0.473395751953125,-0.214508056640625,-0.0110015869140625,-0.98419189453125
1738773096044387600,0.4833876953125,-0.2123260498046875,-0.01165771484375,-0.985504150390625
1738773096054378800,0.493378662109375,-0.2159576416015625,-0.0116424560546875,-0.9837646484375
1738773096064369700,0.50336962890625,-0.2146759033203125,-0.011566162109375,-0.98260498046875
1738773096074360600,0.513360595703125,-0.2120819091796875,-0.0117950439453125,-0.984130859375
1738773096084351700,0.523351806640625,-0.2136077880859375,-0.0109100341796875,-0.9840850830078125
1738773096094342700,0.5333427734375,-0.215667724609375,-0.0115814208984375,-0.9842071533203125
1738773096104333600,0.54333349609375,-0.21435546875,-0.0120849609375,-0.9849700927734375
1738773096114324700,0.55332470703125,-0.21319580078125,-0.0115966796875,-0.9842529296875
1738773096124316700,0.563316650390625,-0.2151031494140625,-0.0104522705078125,-0.9847259521484375
1738773096134307600,0.5733076171875,-0.215179443359375,-0.0096588134765625,-0.9835968017578125
1738773096144298800,0.583298828125,-0.213531494140625,-0.010406494140625,-0.9852752685546875
1738773096154289700,0.59328955078125,-0.2150726318359375,-0.0111236572265625,-0.9850311279296875
1738773096164280600,0.603280517578125,-0.2164154052734375,-0.0103302001953125,-0.9841461181640625
1738773096174271500,0.613271484375,-0.2136077880859375,-0.0119476318359375,-0.983612060546875
1738773096184262700,0.6232626953125,-0.21136474609375,-0.0098724365234375,-0.98455810546875
1738773096194253600,0.633253662109375,-0.214630126953125,-0.011322021484375,-0.983856201171875
1738773096204245800,0.643245849609375,-0.215606689453125,-0.0113983154296875,-0.98358154296875
1738773096214236700,0.653236572265625,-0.2127685546875,-0.0116729736328125,-0.98370361328125
1738773096224227600,0.6632275390625,-0.215057373046875,-0.0106201171875,-0.9840240478515625
1738773096234218500,0.673218505859375,-0.2142486572265625,-0.0103759765625,-0.9841461181640625
1738773096244209700,0.683209716796875,-0.21295166015625,-0.011749267578125,-0.98455810546875
1738773096254200600,0.69320068359375,-0.21368408203125,-0.0118865966796875,-0.983795166015625
1738773096264190700,0.703190673828125,-0.2152099609375,-0.0104522705078125,-0.984100341796875
1738773096274182000,0.713181884765625,-0.212921142578125,-0.0107879638671875,-0.98443603515625
1738773096284172800,0.7231728515625,-0.2127685546875,-0.0106658935546875,-0.983673095703125
1738773096294164700,0.733164794921875,-0.2146453857421875,-0.0106201171875,-0.9846954345703125
1738773096304156000,0.743156005859375,-0.2156219482421875,-0.0117950439453125,-0.984710693359375
1738773096314146800,0.753146728515625,-0.21343994140625,-0.0101165771484375,-0.98419189453125
1738773096324137700,0.7631376953125,-0.2142791748046875,-0.010284423828125,-0.9834442138671875
1738773096334129000,0.77312890625,-0.2138824462890625,-0.0110015869140625,-0.9845123291015625
1738773096344119800,0.783119873046875,-0.2140960693359375,-0.0118865966796875,-0.985137939453125
1738773096354110700,0.79311083984375,-0.2139739990234375,-0.0099639892578125,-0.983978271484375
1738773096364101600,0.8031015625,-0.2139129638671875,-0.01043701171875,-0.9837493896484375
1738773096374093800,0.81309375,-0.2140350341796875,-0.010711669921875,-0.9842681884765625
1738773096384084700,0.823084716796875,-0.2122955322265625,-0.0107574462890625,-0.983489990234375
1738773096394075600,0.83307568359375,-0.21441650390625,-0.010894775390625,-0.9840850830078125
1738773096404066800,0.84306689453125,-0.214813232421875,-0.01165771484375,-0.98321533203125
1738773096414057700,0.8530576171875,-0.212982177734375,-0.0103759765625,-0.9837799072265625
1738773096424048600,0.863048583984375,-0.21392822265625,-0.0104217529296875,-0.9843902587890625
1738773096434039800,0.873039794921875,-0.2137451171875,-0.0104827880859375,-0.9838104248046875
1738773096444030700,0.88303076171875,-0.2149200439453125,-0.0113525390625,-0.9842529296875
1738773096454022700,0.893022705078125,-0.21429443359375,-0.0105133056640625,-0.9847869873046875
1738773096464013800,0.903013916015625,-0.2139434814453125,-0.010406494140625,-0.9842529296875
1738773096474004700,0.913004638671875,-0.214935302734375,-0.010162353515625,-0.98480224609375
1738773096483995600,0.92299560546875,-0.2138519287109375,-0.0106964111328125,-0.9852294921875
1738773096493986800,0.93298681640625,-0.213897705078125,-0.0112457275390625,-0.9845123291015625
1738773096503977700,0.942977783203125,-0.213897705078125,-0.012359619140625,-0.9841766357421875
1738773096513968600,0.95296875,-0.2161407470703125,-0.0129547119140625,-0.9846649169921875
1738773096523959600,0.96295947265625,-0.2139892578125,-0.0102691650390625,-0.9845428466796875
1738773096533951700,0.97295166015625,-0.214202880859375,-0.0110626220703125,-0.983306884765625
1738773096543942700,0.982942626953125,-0.2150115966796875,-0.0108795166015625,-0.984375
1738773096553933600,0.99293359375,-0.21527099609375,-0.010589599609375,-0.9841461181640625
1738773096563924700,1.0029248046875,-0.213897705078125,-0.0114593505859375,-0.9854583740234375
1738773096573915600,1.01291552734375,-0.2138519287109375,-0.0106658935546875,-0.9846038818359375
1738773096583906600,1.022906494140625,-0.2135009765625,-0.0091400146484375,-0.9853363037109375
1738773096593897700,1.032897705078125,-0.2152099609375,-0.0113677978515625,-0.983306884765625
1738773096603888600,1.042888671875,-0.2134857177734375,-0.0110931396484375,-0.9837493896484375
1738773096613879800,1.0528798828125,-0.214874267578125,-0.011016845703125,-0.984649658203125
1738773096623871700,1.062871826171875,-0.2156982421875,-0.009521484375,-0.9839630126953125
1738773096633862700,1.072862548828125,-0.2138671875,-0.0100860595703125,-0.9830474853515625
1738773096643853600,1.082853515625,-0.2125701904296875,-0.0121307373046875,-0.9832916259765625
1738773096653844700,1.0928447265625,-0.21331787109375,-0.0106658935546875,-0.9821624755859375
1738773096663835600,1.102835693359375,-0.2132720947265625,-0.0107574462890625,-0.98504638671875
1738773096673826800,1.112826904296875,-0.2131805419921875,-0.0107269287109375,-0.984527587890625
1738773096683817700,1.122817626953125,-0.214935302734375,-0.0118408203125,-0.983306884765625
1738773096693809000,1.132808837890625,-0.2150726318359375,-0.0111083984375,-0.9841156005859375
1738773096703800600,1.142800537109375,-0.2155914306640625,-0.0108184814453125,-0.9849090576171875
1738773096713791700,1.152791748046875,-0.21502685546875,-0.011505126953125,-0.98382568359375
1738773096723782700,1.16278271484375,-0.2135772705078125,-0.0106658935546875,-0.98455810546875
1738773096733773800,1.17277392578125,-0.2156219482421875,-0.0107574462890625,-0.983123779296875
1738773096743764700,1.1827646484375,-0.2136993408203125,-0.0119476318359375,-0.98516845703125
1738773096753756000,1.192755859375,-0.214935302734375,-0.0114593505859375,-0.9845123291015625
1738773096763746800,1.202746826171875,-0.213714599609375,-0.0109100341796875,-0.983551025390625
1738773096773737700,1.21273779296875,-0.2137451171875,-0.010101318359375,-0.98358154296875
1738773096783729000,1.22272900390625,-0.213958740234375,-0.01116943359375,-0.983154296875
1738773096793720800,1.232720947265625,-0.2136077880859375,-0.0115814208984375,-0.9840545654296875
1738773096803711700,1.242711669921875,-0.21319580078125,-0.0116424560546875,-0.9842529296875
1738773096813703000,1.252702880859375,-0.215667724609375,-0.012054443359375,-0.98388671875
1738773096823693800,1.26269384765625,-0.2147979736328125,-0.01190185546875,-0.9837188720703125
1738773096833684700,1.272684814453125,-0.2134552001953125,-0.0117645263671875,-0.9827117919921875
1738773096843676000,1.282676025390625,-0.2127227783203125,-0.01129150390625,-0.984222412109375
1738773096853666800,1.292666748046875,-0.213348388671875,-0.01177978515625,-0.983551025390625
1738773096863657700,1.30265771484375,-0.2139739990234375,-0.0111083984375,-0.984649658203125
1738773096873650000,1.31264990234375,-0.2133026123046875,-0.011138916015625,-0.9841461181640625
1738773096883640800,1.322640869140625,-0.2158050537109375,-0.0119781494140625,-0.9847564697265625
1738773096893631700,1.3326318359375,-0.21307373046875,-0.0104827880859375,-0.9851531982421875
1738773096903622700,1.34262255859375,-0.2138519287109375,-0.01025390625,-0.98382568359375
1738773096913613800,1.35261376953125,-0.2143707275390625,-0.0105133056640625,-0.9838409423828125
1738773096923604700,1.362604736328125,-0.214630126953125,-0.01031494140625,-0.9844207763671875
1738773096933595600,1.372595703125,-0.2128753662109375,-0.0107879638671875,-0.984710693359375
1738773096943586800,1.3825869140625,-0.2142333984375,-0.0107879638671875,-0.9846649169921875
1738773096953577700,1.39257763671875,-0.2148590087890625,-0.0106201171875,-0.9840087890625
1738773096963569700,1.402569580078125,-0.2121734619140625,-0.01251220703125,-0.9835205078125
1738773096973560800,1.412560791015625,-0.213165283203125,-0.010589599609375,-0.9843292236328125
1738773096983551700,1.4225517578125,-0.2166748046875,-0.0103912353515625,-0.9843292236328125
1738773096993542700,1.432542724609375,-0.2127532958984375,-0.010467529296875,-0.98406982421875
1738773097003533800,1.442533935546875,-0.2116546630859375,-0.01171875,-0.983917236328125
1738773097013524700,1.452524658203125,-0.2164154052734375,-0.0118865966796875,-0.9830322265625
1738773097023515600,1.462515625,-0.2157135009765625,-0.011688232421875,-0.9841156005859375
1738773097033506600,1.472506591796875,-0.2130889892578125,-0.0111541748046875,-0.9850006103515625
1738773097043498800,1.482498779296875,-0.2132720947265625,-0.01190185546875,-0.9834747314453125
1738773097053489700,1.49248974609375,-0.2158966064453125,-0.0118560791015625,-0.9849395751953125
1738773097063480800,1.502480712890625,-0.2133026123046875,-0.0113677978515625,-0.9844207763671875
1738773097073471700,1.5124716796875,-0.213226318359375,-0.0107879638671875,-0.9843292236328125
1738773097083462700,1.522462646484375,-0.2147064208984375,-0.0108642578125,-0.9831390380859375
1738773097093453600,1.53245361328125,-0.214019775390625,-0.0106353759765625,-0.9836578369140625
1738773097103444700,1.54244482421875,-0.214569091796875,-0.010711669921875,-0.984375
1738773097113435600,1.552435546875,-0.2171478271484375,-0.0111236572265625,-0.9830780029296875
1738773097123426600,1.562426513671875,-0.2139892578125,-0.0114288330078125,-0.984283447265625
1738773097133418800,1.572418701171875,-0.212432861328125,-0.0107574462890625,-0.9853057861328125
1738773097143409700,1.58240966796875,-0.215667724609375,-0.010009765625,-0.984466552734375
1738773097153400600,1.592400634765625,-0.214874267578125,-0.0106658935546875,-0.9835662841796875
1738773097163391700,1.602391845703125,-0.2111663818359375,-0.00970458984375,-0.984466552734375
1738773097173382700,1.612382568359375,-0.2136077880859375,-0.0099639892578125,-0.983489990234375
1738773097183373600,1.62237353515625,-0.2159881591796875,-0.010711669921875,-0.9841156005859375
1738773097193364700,1.63236474609375,-0.2142486572265625,-0.0108795166015625,-0.9841766357421875
1738773097203356000,1.64235595703125,-0.213836669921875,-0.0111846923828125,-0.9840850830078125
1738773097213347600,1.65234765625,-0.2139739990234375,-0.0113983154296875,-0.984527587890625
1738773097223338800,1.6623388671875,-0.2141571044921875,-0.0113677978515625,-0.9834442138671875
1738773097233329700,1.67232958984375,-0.2137298583984375,-0.011474609375,-0.9837493896484375
1738773097243320600,1.682320556640625,-0.2135162353515625,-0.0111846923828125,-0.9845123291015625
1738773097253311700,1.692311767578125,-0.2130889892578125,-0.0111083984375,-0.98480224609375
1738773097263303000,1.702302978515625,-0.2143707275390625,-0.011505126953125,-0.9847259521484375
1738773097273294600,1.712294677734375,-0.2140960693359375,-0.0118255615234375,-0.9846954345703125
1738773097283285500,1.722285400390625,-0.2129058837890625,-0.010894775390625,-0.9841766357421875
1738773097293276700,1.732276611328125,-0.2140350341796875,-0.0108184814453125,-0.983642578125
1738773097303268600,1.7422685546875,-0.213409423828125,-0.010894775390625,-0.984375
1738773097313259500,1.752259521484375,-0.214569091796875,-0.011260986328125,-0.9835662841796875
1738773097323250700,1.762250732421875,-0.2135772705078125,-0.0108489990234375,-0.98480224609375
1738773097333241600,1.77224169921875,-0.2137908935546875,-0.010955810546875,-0.9837493896484375
1738773097343232500,1.782232421875,-0.2138214111328125,-0.01068115234375,-0.985076904296875
1738773097353223700,1.7922236328125,-0.212554931640625,-0.0115509033203125,-0.9846954345703125
1738773097363214800,1.80221484375,-0.215240478515625,-0.011474609375,-0.9844970703125
1738773097373205800,1.812205810546875,-0.21563720703125,-0.011199951171875,-0.984130859375
1738773097383197700,1.82219775390625,-0.213409423828125,-0.01025390625,-0.9840545654296875
1738773097393188600,1.832188720703125,-0.21405029296875,-0.0101165771484375,-0.98333740234375
1738773097403179500,1.842179443359375,-0.215179443359375,-0.0131072998046875,-0.9836578369140625
1738773097413170700,1.852170654296875,-0.2145233154296875,-0.0103912353515625,-0.9849700927734375
1738773097423161900,1.862161865234375,-0.212677001953125,-0.0109710693359375,-0.9854736328125
1738773097433152800,1.87215283203125,-0.214263916015625,-0.0119476318359375,-0.983245849609375
1738773097443143700,1.882143798828125,-0.214996337890625,-0.009429931640625,-0.9842071533203125
1738773097453134800,1.892134765625,-0.21380615234375,-0.0105133056640625,-0.98468017578125
1738773097463125800,1.902125732421875,-0.213287353515625,-0.010162353515625,-0.984893798828125
1738773097473116700,1.91211669921875,-0.2165679931640625,-0.0110931396484375,-0.9834442138671875
1738773097483108900,1.92210888671875,-0.2128448486328125,-0.0112457275390625,-0.9840850830078125
1738773097493099800,1.932099853515625,-0.21112060546875,-0.0095977783203125,-0.984588623046875
1738773097503090700,1.942090576171875,-0.2144775390625,-0.0118865966796875,-0.9846038818359375
1738773097513081900,1.952081787109375,-0.214569091796875,-0.0103302001953125,-0.983642578125
1738773097523072800,1.96207275390625,-0.212646484375,-0.0096282958984375,-0.9838714599609375
1738773097533063700,1.972063720703125,-0.2125244140625,-0.0115509033203125,-0.9839019775390625
1738773097543054600,1.9820546875,-0.2144927978515625,-0.011871337890625,-0.9838714599609375
1738773097553045800,1.992045654296875,-0.2129669189453125,-0.011199951171875,-0.984649658203125
1738773097563037700,2.00203759765625,-0.2129669189453125,-0.01129150390625,-0.9859619140625
1738773097573028900,2.01202880859375,-0.2145233154296875,-0.010711669921875,-0.983795166015625
1738773097583019800,2.022019775390625,-0.21484375,-0.0101318359375,-0.98516845703125
1738773097593010700,2.0320107421875,-0.2144622802734375,-0.0102081298828125,-0.9846649169921875
1738773097603001600,2.042001708984375,-0.2138519287109375,-0.0110626220703125,-0.983795166015625
1738773097612992800,2.05199267578125,-0.2136993408203125,-0.01116943359375,-0.983642578125
1738773097622983700,2.061983642578125,-0.2129364013671875,-0.0110626220703125,-0.983489990234375
1738773097632974600,2.071974609375,-0.213653564453125,-0.0113525390625,-0.9830169677734375
1738773097642965800,2.0819658203125,-0.2141571044921875,-0.0095977783203125,-0.9827423095703125
1738773097652957700,2.091957763671875,-0.2147064208984375,-0.01141357421875,-0.983734130859375
1738773097662948600,2.101948486328125,-0.2130584716796875,-0.0113372802734375,-0.98394775390625
1738773097672939800,2.111939697265625,-0.2136688232421875,-0.0113525390625,-0.983184814453125
1738773097682930700,2.1219306640625,-0.214630126953125,-0.0110626220703125,-0.982879638671875
1738773097692921600,2.131921630859375,-0.2149200439453125,-0.0115203857421875,-0.9837799072265625
1738773097702912800,2.141912841796875,-0.214324951171875,-0.0103759765625,-0.9849395751953125
1738773097712903700,2.151903564453125,-0.2143096923828125,-0.01104736328125,-0.985137939453125
1738773097722894600,2.16189453125,-0.2148284912109375,-0.0115966796875,-0.9836578369140625
1738773097732885500,2.171885498046875,-0.2156982421875,-0.010711669921875,-0.9837799072265625
1738773097742877700,2.181877685546875,-0.212677001953125,-0.01031494140625,-0.985595703125
1738773097752868600,2.19186865234375,-0.2128448486328125,-0.011474609375,-0.9848175048828125
1738773097762859500,2.201859619140625,-0.2144927978515625,-0.011260986328125,-0.9837799072265625
1738773097772850700,2.2118505859375,-0.2131195068359375,-0.0112762451171875,-0.9837646484375
1738773097782841600,2.221841552734375,-0.21221923828125,-0.009979248046875,-0.9836273193359375
1738773097792832500,2.23183251953125,-0.2152099609375,-0.01092529296875,-0.98388671875
1738773097802823700,2.24182373046875,-0.215911865234375,-0.0105438232421875,-0.9843292236328125
1738773097812814600,2.251814697265625,-0.214508056640625,-0.011383056640625,-0.9840850830078125
1738773097822805800,2.2618056640625,-0.2137451171875,-0.0118560791015625,-0.983489990234375
1738773097832797700,2.271797607421875,-0.2152099609375,-0.011474609375,-0.983245849609375
1738773097842788600,2.28178857421875,-0.2149658203125,-0.0114898681640625,-0.9847564697265625
1738773097852779500,2.291779541015625,-0.2146148681640625,-0.0118255615234375,-0.98394775390625
1738773097862770700,2.301770751953125,-0.2142791748046875,-0.0121917724609375,-0.984344482421875
1738773097872761600,2.31176171875,-0.2149810791015625,-0.01123046875,-0.984375
1738773097882752800,2.321752685546875,-0.21514892578125,-0.009979248046875,-0.9853363037109375
1738773097892743700,2.33174365234375,-0.21356201171875,-0.010894775390625,-0.984375
1738773097902734800,2.34173486328125,-0.214996337890625,-0.0112457275390625,-0.983856201171875
1738773097912726500,2.3517265625,-0.21588134765625,-0.0121612548828125,-0.984710693359375
1738773097922717700,2.3617177734375,-0.212799072265625,-0.0112152099609375,-0.983489990234375
1738773097932708900,2.371708984375,-0.213653564453125,-0.0099029541015625,-0.9841766357421875
1738773097942699800,2.38169970703125,-0.214630126953125,-0.01165771484375,-0.984588623046875
1738773097952690700,2.391690673828125,-0.213531494140625,-0.0117645263671875,-0.9836273193359375
1738773097962681900,2.401681884765625,-0.2121429443359375,-0.0105133056640625,-0.984466552734375
1738773097972672800,2.4116728515625,-0.214599609375,-0.0128326416015625,-0.9842071533203125
1738773097982663700,2.42166357421875,-0.214141845703125,-0.0124664306640625,-0.9847869873046875
1738773097992654800,2.43165478515625,-0.213958740234375,-0.01116943359375,-0.9844970703125
1738773098002646800,2.441646728515625,-0.2144775390625,-0.0125732421875,-0.9847259521484375
1738773098012637700,2.4516376953125,-0.2140960693359375,-0.0111236572265625,-0.9840240478515625
1738773098022628900,2.46162890625,-0.21368408203125,-0.0108489990234375,-0.985382080078125
1738773098032619800,2.471619873046875,-0.214141845703125,-0.0104522705078125,-0.984100341796875
1738773098042610700,2.481610595703125,-0.2136688232421875,-0.0113372802734375,-0.985382080078125
1738773098052601900,2.491601806640625,-0.2146453857421875,-0.0106964111328125,-0.983612060546875
1738773098062592800,2.5015927734375,-0.2141571044921875,-0.010284423828125,-0.984344482421875
1738773098072583700,2.511583740234375,-0.212738037109375,-0.0115966796875,-0.9854278564453125
1738773098082574600,2.52157470703125,-0.21490478515625,-0.011993408203125,-0.9846038818359375
1738773098092566800,2.53156689453125,-0.214691162109375,-0.010894775390625,-0.98382568359375
1738773098102557700,2.5415576171875,-0.2122039794921875,-0.0094757080078125,-0.985321044921875
1738773098112548600,2.551548583984375,-0.2126617431640625,-0.009490966796875,-0.98443603515625
1738773098122539800,2.561539794921875,-0.2153778076171875,-0.0121917724609375,-0.9832916259765625
1738773098132530700,2.57153076171875,-0.2137908935546875,-0.0115814208984375,-0.9852447509765625
1738773098142521600,2.581521484375,-0.2128143310546875,-0.011016845703125,-0.9833831787109375
1738773098152512800,2.5915126953125,-0.21661376953125,-0.0107574462890625,-0.9840087890625
1738773098162503700,2.601503662109375,-0.21453857421875,-0.0121612548828125,-0.98370361328125
1738773098172494600,2.61149462890625,-0.214019775390625,-0.01123046875,-0.984405517578125
1738773098182486800,2.62148681640625,-0.213592529296875,-0.0110321044921875,-0.9832305908203125
1738773098192477700,2.631477783203125,-0.2142791748046875,-0.0108642578125,-0.983612060546875
1738773098202468600,2.641468505859375,-0.2147216796875,-0.0103607177734375,-0.9838409423828125
1738773098212459800,2.651459716796875,-0.2129974365234375,-0.010711669921875,-0.9845733642578125
1738773098222450700,2.66145068359375,-0.2129974365234375,-0.0122528076171875,-0.98492431640625
1738773098232441600,2.671441650390625,-0.2161865234375,-0.0112762451171875,-0.9838409423828125
1738773098242432500,2.6814326171875,-0.2154541015625,-0.0124359130859375,-0.9852142333984375
1738773098252423700,2.691423583984375,-0.2132110595703125,-0.0118865966796875,-0.9840240478515625
1738773098262414600,2.70141455078125,-0.2156219482421875,-0.0105438232421875,-0.9841156005859375
1738773098272405800,2.71140576171875,-0.2142181396484375,-0.010498046875,-0.984405517578125
1738773098282397000,2.72139697265625,-0.2110595703125,-0.0108642578125,-0.9835357666015625
1738773098292387800,2.731387939453125,-0.212493896484375,-0.01031494140625,-0.984100341796875
1738773098302379000,2.74137890625,-0.2154083251953125,-0.010467529296875,-0.9840850830078125
1738773098312370200,2.7513701171875,-0.2138824462890625,-0.011444091796875,-0.9840087890625
1738773098322361000,2.761361083984375,-0.21295166015625,-0.011383056640625,-0.9840850830078125
1738773098332352000,2.77135205078125,-0.2143707275390625,-0.0120697021484375,-0.983673095703125
1738773098342343000,2.781343017578125,-0.216278076171875,-0.0103607177734375,-0.983978271484375
1738773098352334000,2.791333984375,-0.2120513916015625,-0.0120086669921875,-0.9832305908203125
1738773098362326000,2.801325927734375,-0.2127838134765625,-0.01153564453125,-0.9837799072265625
1738773098372317000,2.81131689453125,-0.216522216796875,-0.0115814208984375,-0.9851226806640625
1738773098382308000,2.82130810546875,-0.2147064208984375,-0.0117034912109375,-0.9844818115234375
1738773098392299000,2.831299072265625,-0.2128448486328125,-0.0114288330078125,-0.9842376708984375
1738773098402290000,2.8412900390625,-0.2161102294921875,-0.0119476318359375,-0.9834747314453125
1738773098412281000,2.851281005859375,-0.21600341796875,-0.0100555419921875,-0.983367919921875
1738773098422272000,2.86127197265625,-0.2134552001953125,-0.010986328125,-0.98297119140625
1738773098432263000,2.871262939453125,-0.2140655517578125,-0.01031494140625,-0.9848175048828125
1738773098442253800,2.88125390625,-0.2152557373046875,-0.01019287109375,-0.9833831787109375
1738773098452246000,2.89124609375,-0.21405029296875,-0.0106658935546875,-0.98394775390625
1738773098462237000,2.90123681640625,-0.2109222412109375,-0.0106048583984375,-0.9839019775390625
1738773098472228000,2.91122802734375,-0.2166595458984375,-0.010345458984375,-0.984283447265625
1738773098482219000,2.921218994140625,-0.2157440185546875,-0.0102996826171875,-0.9839019775390625
1738773098492210000,2.9312099609375,-0.2130584716796875,-0.0123138427734375,-0.9838714599609375
1738773098502200800,2.941200927734375,-0.21368408203125,-0.011016845703125,-0.9831695556640625
1738773098512192000,2.95119189453125,-0.21533203125,-0.010345458984375,-0.9841461181640625
1738773098522183000,2.961182861328125,-0.2138214111328125,-0.011505126953125,-0.9848175048828125
1738773098532173800,2.971173828125,-0.2124176025390625,-0.0103912353515625,-0.983612060546875
1738773098542166000,2.981166015625,-0.2153472900390625,-0.0110321044921875,-0.98388671875
1738773098552157000,2.991156982421875,-0.2146453857421875,-0.0105438232421875,-0.984771728515625
1738773098562147800,3.00114794921875,-0.2142486572265625,-0.0102081298828125,-0.9845123291015625
1738773098572139000,3.011138916015625,-0.2133636474609375,-0.0114898681640625,-0.9844818115234375
1738773098582130000,3.0211298828125,-0.21502685546875,-0.010528564453125,-0.983062744140625
1738773098592120800,3.031120849609375,-0.214385986328125,-0.01123046875,-0.9840087890625
1738773098602112000,3.041112060546875,-0.213409423828125,-0.0112457275390625,-0.9850311279296875
1738773098612103000,3.05110302734375,-0.2138824462890625,-0.011016845703125,-0.9844512939453125
1738773098622093800,3.06109375,-0.2150421142578125,-0.0107421875,-0.983978271484375
1738773098632086000,3.0710859375,-0.213409423828125,-0.0115509033203125,-0.9841461181640625
1738773098642077000,3.081076904296875,-0.2129058837890625,-0.0116729736328125,-0.9839324951171875
1738773098652067800,3.09106787109375,-0.214019775390625,-0.0116729736328125,-0.9838409423828125
1738773098662058800,3.101058837890625,-0.2153472900390625,-0.0112762451171875,-0.983795166015625
1738773098672050000,3.1110498046875,-0.2131195068359375,-0.011932373046875,-0.984893798828125
1738773098682040800,3.121040771484375,-0.2149658203125,-0.01116943359375,-0.9840545654296875
1738773098692031700,3.13103173828125,-0.2144012451171875,-0.010711669921875,-0.9845428466796875
1738773098702023000,3.14102294921875,-0.21295166015625,-0.01116943359375,-0.983062744140625
1738773098712014000,3.15101416015625,-0.2139739990234375,-0.0104827880859375,-0.9849395751953125
1738773098722005800,3.161005859375,-0.216796875,-0.0095367431640625,-0.9849090576171875
1738773098731997000,3.170996826171875,-0.2161712646484375,-0.011962890625,-0.983154296875
1738773098741987800,3.18098779296875,-0.2120208740234375,-0.013092041015625,-0.9840240478515625
1738773098751978800,3.190978759765625,-0.2145538330078125,-0.011505126953125,-0.9842529296875
1738773098761970000,3.200969970703125,-0.21502685546875,-0.0112152099609375,-0.984283447265625
1738773098771961000,3.210961181640625,-0.2112884521484375,-0.0112762451171875,-0.98388671875
1738773098781952000,3.220951904296875,-0.2133941650390625,-0.0118408203125,-0.98419189453125
1738773098791943000,3.23094287109375,-0.2136993408203125,-0.011810302734375,-0.9838104248046875
1738773098801934000,3.24093408203125,-0.2148284912109375,-0.0110626220703125,-0.9847869873046875
1738773098811926000,3.250926025390625,-0.21453857421875,-0.0111846923828125,-0.9835052490234375
1738773098821917200,3.260917236328125,-0.2153167724609375,-0.0110931396484375,-0.9829254150390625
1738773098831908000,3.270908203125,-0.2163543701171875,-0.010498046875,-0.9838104248046875
1738773098841899000,3.28089892578125,-0.210845947265625,-0.0112152099609375,-0.9857940673828125
1738773098851890000,3.290889892578125,-0.212554931640625,-0.0123138427734375,-0.9855194091796875
1738773098861881000,3.300881103515625,-0.214813232421875,-0.0121612548828125,-0.983428955078125
1738773098871872000,3.3108720703125,-0.212860107421875,-0.0103607177734375,-0.985137939453125
1738773098881863000,3.32086279296875,-0.2142486572265625,-0.0107879638671875,-0.9848480224609375
1738773098891854000,3.33085400390625,-0.213653564453125,-0.0112762451171875,-0.9846649169921875
1738773098901846000,3.340845947265625,-0.2143707275390625,-0.0112457275390625,-0.9837188720703125
1738773098911837000,3.3508369140625,-0.21453857421875,-0.010833740234375,-0.9848480224609375
1738773098921828000,3.360828125,-0.214111328125,-0.01116943359375,-0.9838714599609375
1738773098931819000,3.370819091796875,-0.2143096923828125,-0.009613037109375,-0.9841461181640625
1738773098941810000,3.380809814453125,-0.2139129638671875,-0.00970458984375,-0.983978271484375
1738773098951801000,3.390801025390625,-0.213958740234375,-0.0106048583984375,-0.9843292236328125
1738773098961792000,3.4007919921875,-0.214141845703125,-0.0113525390625,-0.9840850830078125
1738773098971783000,3.410782958984375,-0.215484619140625,-0.01092529296875,-0.9831390380859375
1738773098981773800,3.42077392578125,-0.2142486572265625,-0.010101318359375,-0.9853363037109375
1738773098991766000,3.43076611328125,-0.2132568359375,-0.0111846923828125,-0.9852752685546875
1738773099001757000,3.4407568359375,-0.212860107421875,-0.01068115234375,-0.9825439453125
1738773099011747800,3.450747802734375,-0.213592529296875,-0.011322021484375,-0.98321533203125
1738773099021739000,3.460739013671875,-0.2133636474609375,-0.0099334716796875,-0.9839630126953125
1738773099031730000,3.47072998046875,-0.2128448486328125,-0.0115966796875,-0.9836883544921875
1738773099041720800,3.480720947265625,-0.2148284912109375,-0.010284423828125,-0.9835205078125
1738773099051712000,3.4907119140625,-0.215423583984375,-0.012298583984375,-0.9829254150390625
1738773099061703000,3.500702880859375,-0.2134857177734375,-0.012298583984375,-0.9833984375
1738773099071693800,3.51069384765625,-0.214324951171875,-0.009735107421875,-0.983795166015625
1738773099081686000,3.52068603515625,-0.2142791748046875,-0.01171875,-0.9837188720703125
1738773099091677000,3.530677001953125,-0.2129974365234375,-0.011810302734375,-0.983673095703125
1738773099101667800,3.540667724609375,-0.2140045166015625,-0.010772705078125,-0.9834136962890625
1738773099111659000,3.550658935546875,-0.2138519287109375,-0.010406494140625,-0.982818603515625
1738773099121650000,3.56064990234375,-0.21435546875,-0.0097503662109375,-0.984771728515625
1738773099131640800,3.570640869140625,-0.21478271484375,-0.009857177734375,-0.9844512939453125
1738773099141631700,3.5806318359375,-0.213592529296875,-0.010406494140625,-0.98541259765625
1738773099151623000,3.590622802734375,-0.2139739990234375,-0.0111083984375,-0.98516845703125
1738773099161613800,3.60061376953125,-0.215911865234375,-0.01080322265625,-0.9846954345703125
1738773099171606000,3.61060595703125,-0.2142486572265625,-0.0114593505859375,-0.985382080078125
1738773099181597000,3.620596923828125,-0.2144317626953125,-0.0114898681640625,-0.9834136962890625
1738773099191587800,3.630587890625,-0.2139739990234375,-0.011444091796875,-0.9826507568359375
1738773099201578800,3.640578857421875,-0.2139129638671875,-0.010498046875,-0.9840240478515625
1738773099211570000,3.65056982421875,-0.21368408203125,-0.0101318359375,-0.9840850830078125
1738773099221560800,3.660560791015625,-0.214111328125,-0.009613037109375,-0.985382080078125
1738773099231552000,3.670552001953125,-0.215240478515625,-0.010833740234375,-0.9843292236328125
1738773099241543200,3.680543212890625,-0.2140655517578125,-0.009429931640625,-0.9830322265625
1738773099251534000,3.6905341796875,-0.2116241455078125,-0.0111846923828125,-0.984375
1738773099261525800,3.70052587890625,-0.2145233154296875,-0.0108795166015625,-0.98468017578125
1738773099271517700,3.710517578125,-0.2155914306640625,-0.0107421875,-0.982879638671875
1738773099281508600,3.720508544921875,-0.2121124267578125,-0.0115814208984375,-0.98388671875
1738773099291499500,3.73049951171875,-0.2139129638671875,-0.0115814208984375,-0.98419189453125
1738773099301490700,3.74049072265625,-0.217803955078125,-0.009796142578125,-0.98272705078125
1738773099311481600,3.750481689453125,-0.212371826171875,-0.0093231201171875,-0.983734130859375
1738773099321472800,3.76047265625,-0.210845947265625,-0.0102081298828125,-0.9849853515625
1738773099331464000,3.7704638671875,-0.2199859619140625,-0.0120391845703125,-0.9830322265625
1738773099341454800,3.780454833984375,-0.2178497314453125,-0.011993408203125,-0.9844818115234375
1738773099351446500,3.790446533203125,-0.2075653076171875,-0.0107421875,-0.983978271484375
1738773099361437700,3.800437744140625,-0.2122039794921875,-0.0110321044921875,-0.9854583740234375
1738773099371428600,3.8104287109375,-0.21990966796875,-0.0108642578125,-0.9826507568359375
1738773099381419800,3.820419677734375,-0.21551513671875,-0.0112457275390625,-0.9844818115234375
1738773099391410700,3.83041064453125,-0.2089080810546875,-0.010467529296875,-0.9845123291015625
1738773099401401900,3.84040185546875,-0.2151336669921875,-0.0099945068359375,-0.985107421875
1738773099411392800,3.850392822265625,-0.2195587158203125,-0.0106048583984375,-0.9838409423828125
1738773099421383700,3.8603837890625,-0.210723876953125,-0.0130767822265625,-0.9838714599609375
1738773099431374800,3.870374755859375,-0.211883544921875,-0.011749267578125,-0.982269287109375
1738773099441366800,3.88036669921875,-0.2171173095703125,-0.0106964111328125,-0.9840240478515625
1738773099451357700,3.890357666015625,-0.2140045166015625,-0.0109405517578125,-0.98394775390625
1738773099461348900,3.900348876953125,-0.2095947265625,-0.011077880859375,-0.9828338623046875
1738773099471339800,3.91033984375,-0.2160491943359375,-0.011444091796875,-0.9846343994140625
1738773099481330700,3.92033056640625,-0.2180023193359375,-0.0102386474609375,-0.98309326171875
1738773099491321900,3.93032177734375,-0.2115020751953125,-0.0123443603515625,-0.9835968017578125
1738773099501312800,3.940312744140625,-0.2116851806640625,-0.0101776123046875,-0.9853668212890625
1738773099515674600,3.954674560546875,-0.216552734375,-0.0105133056640625,-0.9842071533203125
1738773099525665800,3.964665771484375,-0.2110443115234375,-0.0106201171875,-0.9840545654296875
1738773099535657700,3.97465771484375,-0.2126922607421875,-0.0103759765625,-0.98370361328125
1738773099545649000,3.98464892578125,-0.2168731689453125,-0.0108489990234375,-0.984527587890625
1738773099555639800,3.994639892578125,-0.2150726318359375,-0.0124664306640625,-0.9839630126953125
1738773099565630700,4.004630615234375,-0.2116546630859375,-0.0117340087890625,-0.984832763671875
1738773099575621600,4.01462158203125,-0.2147369384765625,-0.009521484375,-0.985198974609375
1738773099585612800,4.02461279296875,-0.2158966064453125,-0.0109405517578125,-0.9836273193359375
1738773099595603700,4.034603759765625,-0.2127685546875,-0.0119171142578125,-0.984100341796875
1738773099605594600,4.0445947265625,-0.2141265869140625,-0.0113983154296875,-0.9841461181640625
1738773099615585800,4.054585693359375,-0.21484375,-0.0113372802734375,-0.9835662841796875
1738773099625577700,4.06457763671875,-0.21240234375,-0.010711669921875,-0.983856201171875
1738773099635568600,4.074568603515625,-0.213714599609375,-0.0111236572265625,-0.9834136962890625
1738773099645559800,4.084559814453125,-0.2142181396484375,-0.0121612548828125,-0.9833221435546875
1738773099655550700,4.09455078125,-0.2129974365234375,-0.0110321044921875,-0.9846649169921875
1738773099665541600,4.104541748046875,-0.2148590087890625,-0.0100860595703125,-0.98492431640625
1738773099675532500,4.114532470703125,-0.21484375,-0.0110321044921875,-0.983978271484375
1738773099685523700,4.124523681640625,-0.2144622802734375,-0.010498046875,-0.984954833984375
1738773099695514600,4.1345146484375,-0.2140350341796875,-0.0106201171875,-0.9839019775390625
1738773099705505500,4.144505615234375,-0.214508056640625,-0.0115509033203125,-0.9837188720703125
1738773099715497700,4.154497802734375,-0.2146759033203125,-0.01092529296875,-0.984039306640625
1738773099725488600,4.164488525390625,-0.21435546875,-0.0104217529296875,-0.9837646484375
1738773099735479600,4.1744794921875,-0.21368408203125,-0.0109710693359375,-0.984344482421875
1738773099745470700,4.184470703125,-0.2142181396484375,-0.011962890625,-0.983917236328125
1738773099755461600,4.194461669921875,-0.2136383056640625,-0.0102081298828125,-0.9847412109375
1738773099765452500,4.20445263671875,-0.213836669921875,-0.00982666015625,-0.983184814453125
1738773099775443700,4.214443603515625,-0.2138671875,-0.010528564453125,-0.9846343994140625
1738773099785434600,4.2244345703125,-0.2162017822265625,-0.0098419189453125,-0.9826507568359375
1738773099795425500,4.234425537109375,-0.21490478515625,-0.010528564453125,-0.9835662841796875
1738773099805417700,4.244417724609375,-0.213348388671875,-0.0115966796875,-0.9853057861328125
1738773099815408600,4.25440869140625,-0.2127685546875,-0.010101318359375,-0.9850006103515625
1738773099825399600,4.264399658203125,-0.2136993408203125,-0.0121002197265625,-0.9832763671875
1738773099835390700,4.274390625,-0.2120361328125,-0.0107574462890625,-0.9840087890625
1738773099845381600,4.284381591796875,-0.2139739990234375,-0.0093841552734375,-0.9829254150390625
1738773099855372500,4.29437255859375,-0.2142486572265625,-0.0105438232421875,-0.984161376953125
1738773099865988600,4.304988525390625,-0.2133941650390625,-0.0113983154296875,-0.9848785400390625
1738773099875979800,4.314979736328125,-0.2146759033203125,-0.011871337890625,-0.984466552734375
1738773099885970700,4.324970703125,-0.2143707275390625,-0.0114288330078125,-0.983734130859375
1738773099895961900,4.3349619140625,-0.21234130859375,-0.01165771484375,-0.98468017578125
1738773099905952800,4.344952880859375,-0.2138214111328125,-0.010467529296875,-0.98486328125
1738773099915944700,4.35494482421875,-0.2135772705078125,-0.01141357421875,-0.985076904296875
1738773099925935900,4.364935791015625,-0.214111328125,-0.0110015869140625,-0.9844207763671875
1738773099935926800,4.3749267578125,-0.2145233154296875,-0.010986328125,-0.983428955078125
1738773099945917700,4.384917724609375,-0.214202880859375,-0.011016845703125,-0.9830322265625
1738773099955908900,4.394908935546875,-0.2142791748046875,-0.0113677978515625,-0.984222412109375
1738773099965899800,4.404899658203125,-0.2144927978515625,-0.0103759765625,-0.9836883544921875
1738773099975890700,4.414890625,-0.2139129638671875,-0.01129150390625,-0.983917236328125
1738773099985881900,4.4248818359375,-0.2140960693359375,-0.0116424560546875,-0.9844818115234375
1738773099995872800,4.434872802734375,-0.214630126953125,-0.009857177734375,-0.984344482421875
1738773100005864700,4.44486474609375,-0.212493896484375,-0.0106353759765625,-0.9839935302734375
1738773100015855900,4.45485595703125,-0.213531494140625,-0.0101776123046875,-0.9844207763671875
1738773100025846800,4.4648466796875,-0.2139892578125,-0.0107421875,-0.9836578369140625
1738773100035837700,4.474837646484375,-0.2148895263671875,-0.0110626220703125,-0.984344482421875
1738773100045828600,4.48482861328125,-0.214202880859375,-0.0108642578125,-0.9840545654296875
1738773100055819800,4.49481982421875,-0.215606689453125,-0.0101776123046875,-0.9835205078125
1738773100065810700,4.504810791015625,-0.215667724609375,-0.0112152099609375,-0.9828033447265625
1738773100075801600,4.514801513671875,-0.212738037109375,-0.0106201171875,-0.98297119140625
1738773100085792800,4.524792724609375,-0.2124786376953125,-0.0096435546875,-0.984161376953125
1738773100095784700,4.53478466796875,-0.21331787109375,-0.0113372802734375,-0.9839324951171875
1738773100105775600,4.544775634765625,-0.213470458984375,-0.01226806640625,-0.9840240478515625
1738773100115766800,4.554766845703125,-0.213653564453125,-0.0107421875,-0.9848785400390625
1738773100125757700,4.5647578125,-0.2166290283203125,-0.0112152099609375,-0.9847259521484375
1738773100135748600,4.57474853515625,-0.2140045166015625,-0.011138916015625,-0.9835968017578125
1738773100145739800,4.58473974609375,-0.2126617431640625,-0.0112762451171875,-0.9843902587890625
1738773100155730700,4.594730712890625,-0.2151031494140625,-0.01116943359375,-0.982452392578125
1738773100165721600,4.6047216796875,-0.216156005859375,-0.0113983154296875,-0.984283447265625
1738773100175713800,4.6147138671875,-0.2127227783203125,-0.010528564453125,-0.9854583740234375
1738773100185704700,4.62470458984375,-0.2124176025390625,-0.00946044921875,-0.9847869873046875
1738773100195695600,4.634695556640625,-0.2142791748046875,-0.01092529296875,-0.9837799072265625
1738773100205686800,4.644686767578125,-0.2149810791015625,-0.0104827880859375,-0.9837493896484375
1738773100215677700,4.654677734375,-0.2165985107421875,-0.010833740234375,-0.9834136962890625
1738773100225668600,4.664668701171875,-0.2136383056640625,-0.0115509033203125,-0.984527587890625
1738773100235659500,4.674659423828125,-0.2124176025390625,-0.0111083984375,-0.98291015625
1738773100245650700,4.684650634765625,-0.2143096923828125,-0.0106964111328125,-0.984710693359375
1738773100255641600,4.6946416015625,-0.2126922607421875,-0.0123138427734375,-0.9843292236328125
1738773100265633500,4.704633544921875,-0.21319580078125,-0.0099639892578125,-0.98382568359375
1738773100275624000,4.7146240234375,-0.2148284912109375,-0.0104522705078125,-0.9835205078125
1738773100285614800,4.72461474609375,-0.2140655517578125,-0.0111083984375,-0.98590087890625
1738773100295606000,4.73460595703125,-0.21539306640625,-0.01025390625,-0.9831390380859375
1738773100305597200,4.74459716796875,-0.2151641845703125,-0.0122222900390625,-0.983795166015625
1738773100315588000,4.754588134765625,-0.2120208740234375,-0.0107269287109375,-0.9850616455078125
1738773100325579000,4.7645791015625,-0.2153472900390625,-0.0106658935546875,-0.98370361328125
1738773100335570200,4.774570068359375,-0.212921142578125,-0.011627197265625,-0.9847869873046875
1738773100345561000,4.78456103515625,-0.212158203125,-0.0124664306640625,-0.9841766357421875
1738773100355553000,4.794552978515625,-0.21514892578125,-0.0117950439453125,-0.983734130859375
1738773100365544200,4.804544189453125,-0.214202880859375,-0.0101318359375,-0.9836883544921875
1738773100375535000,4.81453515625,-0.2121734619140625,-0.01220703125,-0.9840240478515625
1738773100385526000,4.824526123046875,-0.2153778076171875,-0.010955810546875,-0.98370361328125
1738773100395517000,4.834516845703125,-0.215118408203125,-0.0106048583984375,-0.9847412109375
1738773100405508000,4.844508056640625,-0.21258544921875,-0.010986328125,-0.9832763671875
1738773100415499000,4.8544990234375,-0.21539306640625,-0.0100555419921875,-0.9836578369140625
1738773100425490000,4.864489990234375,-0.216064453125,-0.0103607177734375,-0.9846343994140625
1738773100435481000,4.874481201171875,-0.21319580078125,-0.010467529296875,-0.9839324951171875
1738773100445473000,4.88447314453125,-0.21368408203125,-0.011138916015625,-0.982940673828125
1738773100455464000,4.8944638671875,-0.2144622802734375,-0.0123138427734375,-0.984375
1738773100465455000,4.904455078125,-0.21563720703125,-0.011016845703125,-0.98443603515625
1738773100475446000,4.914446044921875,-0.2142333984375,-0.0113983154296875,-0.9849090576171875
1738773100485437000,4.92443701171875,-0.2141876220703125,-0.012115478515625,-0.9857177734375
1738773100495428000,4.934427978515625,-0.2150115966796875,-0.010650634765625,-0.98455810546875
1738773100505419000,4.9444189453125,-0.213623046875,-0.0113067626953125,-0.984375
1738773100515410000,4.954409912109375,-0.2117919921875,-0.01190185546875,-0.9838409423828125
1738773100525402000,4.964402099609375,-0.21539306640625,-0.0106658935546875,-0.983734130859375
1738773100535393000,4.97439306640625,-0.213653564453125,-0.0113525390625,-0.9846649169921875
1738773100545384000,4.984384033203125,-0.214630126953125,-0.0112762451171875,-0.9840240478515625
1738773100555375000,4.994375,-0.2150421142578125,-0.0102691650390625,-0.983856201171875
1738773100565366000,5.004365966796875,-0.21453857421875,-0.010528564453125,-0.9837493896484375
1738773100575357000,5.01435693359375,-0.2137451171875,-0.010955810546875,-0.983642578125
1738773100585347800,5.024347900390625,-0.2134552001953125,-0.01177978515625,-0.983978271484375
1738773100595339000,5.034339111328125,-0.2140350341796875,-0.0108184814453125,-0.985198974609375
1738773100605330000,5.044329833984375,-0.2134857177734375,-0.0101470947265625,-0.9850921630859375
1738773100615321900,5.05432177734375,-0.21453857421875,-0.0114288330078125,-0.9834442138671875
1738773100625313000,5.06431298828125,-0.2142791748046875,-0.012359619140625,-0.98297119140625
1738773100635304000,5.074303955078125,-0.21380615234375,-0.0117645263671875,-0.983245849609375
1738773100645294800,5.084294921875,-0.213775634765625,-0.01025390625,-0.9837493896484375
1738773100655286000,5.0942861328125,-0.2139892578125,-0.010009765625,-0.985382080078125
1738773100665277000,5.10427685546875,-0.2127532958984375,-0.0113677978515625,-0.9830169677734375
1738773100675267800,5.114267822265625,-0.2147979736328125,-0.01055908203125,-0.9833831787109375
1738773100685259000,5.124259033203125,-0.21319580078125,-0.011199951171875,-0.9853973388671875
1738773100695250000,5.13425,-0.2149810791015625,-0.0117340087890625,-0.984375
1738773100705241900,5.144241943359375,-0.2144012451171875,-0.0113372802734375,-0.98345947265625
1738773100715233000,5.15423291015625,-0.2125244140625,-0.011505126953125,-0.9835052490234375
1738773100725224000,5.164223876953125,-0.2143096923828125,-0.0111236572265625,-0.98382568359375
1738773100735214800,5.17421484375,-0.2142791748046875,-0.0100250244140625,-0.98431396484375
1738773100745205800,5.184205810546875,-0.2128143310546875,-0.010711669921875,-0.984344482421875
1738773100755197000,5.194197021484375,-0.2133941650390625,-0.0107421875,-0.98443603515625
1738773100765188000,5.20418798828125,-0.2145843505859375,-0.0123443603515625,-0.98309326171875
1738773100775179000,5.214178955078125,-0.2138214111328125,-0.0110015869140625,-0.9830322265625
1738773100785170200,5.224170166015625,-0.212646484375,-0.011322021484375,-0.9835968017578125
1738773100795161900,5.234161865234375,-0.2136688232421875,-0.01177978515625,-0.98443603515625
1738773100805152800,5.24415283203125,-0.2160797119140625,-0.0105743408203125,-0.9839324951171875
1738773100815144000,5.25414404296875,-0.2142181396484375,-0.0108795166015625,-0.984649658203125
1738773100825135000,5.264135009765625,-0.2136993408203125,-0.01092529296875,-0.9836883544921875
1738773100835126000,5.2741259765625,-0.2144775390625,-0.0107421875,-0.98431396484375
1738773100845117200,5.2841171875,-0.214569091796875,-0.0103302001953125,-0.9840087890625
1738773100855108000,5.294108154296875,-0.215057373046875,-0.0113372802734375,-0.9847869873046875
1738773100865099000,5.30409912109375,-0.213592529296875,-0.01165771484375,-0.984039306640625
1738773100875091200,5.31409130859375,-0.214874267578125,-0.010711669921875,-0.9849853515625
1738773100885082000,5.32408203125,-0.214630126953125,-0.01129150390625,-0.9835357666015625
1738773100895073000,5.334072998046875,-0.2145538330078125,-0.01055908203125,-0.98358154296875
1738773100905064200,5.344064208984375,-0.2144927978515625,-0.011016845703125,-0.98382568359375
1738773100915055000,5.35405517578125,-0.214324951171875,-0.0103759765625,-0.9841461181640625
1738773100925046000,5.3640458984375,-0.21441650390625,-0.01007080078125,-0.9857177734375
1738773100935037000,5.374036865234375,-0.214080810546875,-0.0108489990234375,-0.98455810546875
1738773100945028000,5.384028076171875,-0.2144927978515625,-0.01116943359375,-0.983123779296875
1738773100955019000,5.39401904296875,-0.2138671875,-0.0107421875,-0.98419189453125
1738773100965011000,5.404010986328125,-0.21356201171875,-0.0102996826171875,-0.9849853515625
1738773100975002000,5.414002197265625,-0.2133636474609375,-0.0117340087890625,-0.9839935302734375
1738773100984993000,5.423992919921875,-0.21551513671875,-0.010284423828125,-0.9842071533203125
1738773100994984000,5.43398388671875,-0.2144775390625,-0.01177978515625,-0.9840545654296875
1738773101004975000,5.44397509765625,-0.2127227783203125,-0.0122222900390625,-0.9833221435546875
1738773101014966000,5.453966064453125,-0.2158660888671875,-0.01324462890625,-0.983917236328125
1738773101024957000,5.46395703125,-0.2169036865234375,-0.011383056640625,-0.9837188720703125
1738773101034947800,5.47394775390625,-0.213775634765625,-0.009521484375,-0.983978271484375
1738773101044939000,5.48393896484375,-0.211761474609375,-0.01092529296875,-0.9835205078125
1738773101054931000,5.493930908203125,-0.2144775390625,-0.011810302734375,-0.98492431640625
1738773101064922000,5.503922119140625,-0.214508056640625,-0.010589599609375,-0.98394775390625
1738773101074913000,5.5139130859375,-0.2129364013671875,-0.01123046875,-0.984771728515625
1738773101084904000,5.523904052734375,-0.2150726318359375,-0.011566162109375,-0.9844512939453125
1738773101094894800,5.533894775390625,-0.2136383056640625,-0.0110931396484375,-0.9847259521484375
1738773101104886000,5.543885986328125,-0.2127685546875,-0.0108489990234375,-0.983734130859375
1738773101114877000,5.553876953125,-0.2126922607421875,-0.0118865966796875,-0.9836578369140625
1738773101124867800,5.563867919921875,-0.21514892578125,-0.010711669921875,-0.983642578125
1738773101134859000,5.57385888671875,-0.2143402099609375,-0.010894775390625,-0.984283447265625
1738773101144851000,5.583850830078125,-0.212310791015625,-0.0103912353515625,-0.985565185546875
1738773101154841900,5.593841796875,-0.2143707275390625,-0.0110321044921875,-0.9837646484375
1738773101164833000,5.6038330078125,-0.2153167724609375,-0.0105743408203125,-0.984039306640625
1738773101174824000,5.613823974609375,-0.212982177734375,-0.0105743408203125,-0.984954833984375
1738773101184814800,5.62381494140625,-0.213409423828125,-0.011016845703125,-0.9845733642578125
1738773101194806000,5.633805908203125,-0.2142791748046875,-0.0110015869140625,-0.9844512939453125
1738773101204797000,5.643796875,-0.2135772705078125,-0.0120697021484375,-0.9837646484375
1738773101214787800,5.653787841796875,-0.213104248046875,-0.012542724609375,-0.9836883544921875
1738773101224779000,5.663779052734375,-0.214019775390625,-0.0121917724609375,-0.9837799072265625
1738773101234771000,5.67377099609375,-0.2159576416015625,-0.0109710693359375,-0.98419189453125
1738773101244761900,5.683761962890625,-0.21417236328125,-0.0108184814453125,-0.9843292236328125
1738773101254752800,5.693752685546875,-0.213134765625,-0.0110015869140625,-0.984344482421875
1738773101264744000,5.703743896484375,-0.2157135009765625,-0.0117034912109375,-0.98468017578125
1738773101274734800,5.71373486328125,-0.212554931640625,-0.011505126953125,-0.984100341796875
1738773101284726000,5.72372607421875,-0.21160888671875,-0.0117340087890625,-0.984619140625
1738773101294717000,5.733717041015625,-0.2144927978515625,-0.010528564453125,-0.9839019775390625
1738773101304707800,5.743707763671875,-0.2140045166015625,-0.0096435546875,-0.9846649169921875
1738773101314699000,5.753698974609375,-0.2104339599609375,-0.0120849609375,-0.9848480224609375
1738773101324691000,5.76369091796875,-0.21990966796875,-0.01025390625,-0.9839630126953125
1738773101334681900,5.773681884765625,-0.2234649658203125,-0.0109405517578125,-0.983123779296875
1738773101344673000,5.783673095703125,-0.2081298828125,-0.0107421875,-0.98541259765625
1738773101354664000,5.793663818359375,-0.2141876220703125,-0.011138916015625,-0.984649658203125
1738773101364654800,5.80365478515625,-0.213714599609375,-0.0118255615234375,-0.9850006103515625
1738773101374645800,5.813645751953125,-0.2152252197265625,-0.01361083984375,-0.983856201171875
1738773101384637000,5.823636962890625,-0.2136077880859375,-0.0108642578125,-0.9848480224609375
1738773101394627800,5.8336279296875,-0.21209716796875,-0.009918212890625,-0.984771728515625
1738773101404618800,5.84361865234375,-0.2173614501953125,-0.009246826171875,-0.984375
1738773101414611000,5.85361083984375,-0.2126007080078125,-0.0118865966796875,-0.9840850830078125
1738773101424601900,5.863601806640625,-0.2187347412109375,-0.0123138427734375,-0.9846649169921875
1738773101434592800,5.8735927734375,-0.21722412109375,-0.0096893310546875,-0.983612060546875
1738773101444584000,5.883583984375,-0.2100982666015625,-0.0095367431640625,-0.985076904296875
1738773101454574800,5.893574951171875,-0.211761474609375,-0.0109710693359375,-0.9850006103515625
1738773101464565800,5.903565673828125,-0.215972900390625,-0.0112152099609375,-0.9843292236328125
1738773101474557000,5.913556884765625,-0.2165985107421875,-0.010711669921875,-0.9845428466796875
1738773101484547800,5.9235478515625,-0.2122039794921875,-0.01116943359375,-0.9849700927734375
1738773101494538800,5.933538818359375,-0.213470458984375,-0.01129150390625,-0.984649658203125
1738773101504531000,5.943531005859375,-0.217803955078125,-0.01141357421875,-0.98309326171875
1738773101514521900,5.95352197265625,-0.216064453125,-0.011627197265625,-0.9842987060546875
1738773101524512800,5.9635126953125,-0.2130279541015625,-0.011688232421875,-0.9842376708984375
1738773101534504000,5.97350390625,-0.212310791015625,-0.0106048583984375,-0.9837493896484375
1738773101544494800,5.983494873046875,-0.212738037109375,-0.0104827880859375,-0.98388671875
1738773101554485800,5.99348583984375,-0.2126922607421875,-0.0116119384765625,-0.984649658203125
1738773101564476700,6.0034765625,-0.2151641845703125,-0.0103607177734375,-0.9847869873046875
1738773101574467800,6.0134677734375,-0.21630859375,-0.0105743408203125,-0.983734130859375
1738773101584458800,6.023458740234375,-0.212493896484375,-0.0101318359375,-0.98529052734375
1738773101594450700,6.03345068359375,-0.2140045166015625,-0.0120086669921875,-0.9846649169921875
1738773101604441900,6.04344189453125,-0.2168731689453125,-0.011505126953125,-0.9832000732421875
1738773101614432800,6.053432861328125,-0.2148284912109375,-0.0128173828125,-0.9838714599609375
1738773101624423700,6.063423583984375,-0.21185302734375,-0.0110015869140625,-0.9842529296875
1738773101634414800,6.073414794921875,-0.2141265869140625,-0.011474609375,-0.9839324951171875
1738773101644405800,6.08340576171875,-0.2159423828125,-0.011322021484375,-0.9847564697265625
1738773101654396700,6.093396728515625,-0.21478271484375,-0.0106048583984375,-0.98291015625
1738773101664387600,6.1033876953125,-0.2131195068359375,-0.0102081298828125,-0.9851226806640625
1738773101674378800,6.113378662109375,-0.214385986328125,-0.01055908203125,-0.9842987060546875
1738773101684370700,6.12337060546875,-0.2138519287109375,-0.0112457275390625,-0.983551025390625
1738773101694361900,6.13336181640625,-0.21270751953125,-0.0116729736328125,-0.9845733642578125
1738773101704352800,6.143352783203125,-0.213470458984375,-0.0103302001953125,-0.98468017578125
1738773101714343700,6.15334375,-0.2147216796875,-0.010101318359375,-0.9837493896484375
1738773101724334600,6.16333447265625,-0.2125091552734375,-0.010986328125,-0.985626220703125
1738773101734325800,6.17332568359375,-0.214202880859375,-0.0108184814453125,-0.9843292236328125
1738773101744317000,6.18331689453125,-0.2183837890625,-0.0108795166015625,-0.98291015625
1738773101754307800,6.193307861328125,-0.2160186767578125,-0.0117034912109375,-0.9833984375
1738773101764299000,6.203299072265625,-0.2111358642578125,-0.010498046875,-0.9837646484375
1738773101774290700,6.213290771484375,-0.2145233154296875,-0.0099945068359375,-0.9846649169921875
1738773101784281900,6.22328173828125,-0.217376708984375,-0.010498046875,-0.9851531982421875
1738773101794273000,6.23327294921875,-0.2132110595703125,-0.01177978515625,-0.9851226806640625
1738773101804264000,6.243263916015625,-0.2121124267578125,-0.01043701171875,-0.984832763671875
1738773101814254800,6.2532548828125,-0.2156524658203125,-0.010955810546875,-0.984527587890625
1738773101824246000,6.26324609375,-0.215545654296875,-0.0110015869140625,-0.9839019775390625
1738773101834237000,6.27323681640625,-0.2137451171875,-0.0103302001953125,-0.984100341796875
1738773101844227800,6.283227783203125,-0.21612548828125,-0.0119781494140625,-0.98431396484375
1738773101854218800,6.29321875,-0.214080810546875,-0.0113525390625,-0.984588623046875
1738773101864211000,6.3032109375,-0.210906982421875,-0.00994873046875,-0.9834136962890625
1738773101874201900,6.313201904296875,-0.2150726318359375,-0.0118560791015625,-0.9838409423828125
1738773101884192800,6.32319287109375,-0.215850830078125,-0.0113983154296875,-0.984649658203125
1738773101894184000,6.333183837890625,-0.2122650146484375,-0.011932373046875,-0.9842987060546875
1738773101904174800,6.3431748046875,-0.213836669921875,-0.0112152099609375,-0.9840087890625
1738773101914165800,6.353165771484375,-0.21575927734375,-0.00994873046875,-0.9839630126953125
1738773101924157000,6.363156982421875,-0.2143402099609375,-0.0107269287109375,-0.98370361328125
1738773101934147800,6.37314794921875,-0.2146759033203125,-0.0110015869140625,-0.982879638671875
1738773101944138800,6.383138671875,-0.2155914306640625,-0.011322021484375,-0.983367919921875
1738773101954131000,6.393130859375,-0.2148284912109375,-0.011383056640625,-0.9842681884765625
1738773101964121900,6.403121826171875,-0.2118072509765625,-0.0105743408203125,-0.98406982421875
1738773101974112800,6.41311279296875,-0.212799072265625,-0.0089111328125,-0.9842681884765625
1738773101984104000,6.42310400390625,-0.21734619140625,-0.01226806640625,-0.9829254150390625
1738773101994094800,6.4330947265625,-0.2131500244140625,-0.01214599609375,-0.9841156005859375
1738773102004085800,6.443085693359375,-0.21234130859375,-0.009552001953125,-0.9849700927734375
1738773102014076700,6.45307666015625,-0.21539306640625,-0.0107879638671875,-0.9847564697265625
1738773102024067800,6.46306787109375,-0.214202880859375,-0.0117034912109375,-0.98443603515625
1738773102034058800,6.473058837890625,-0.21160888671875,-0.0113372802734375,-0.9840087890625
1738773102044051000,6.483051025390625,-0.214385986328125,-0.0110931396484375,-0.984039306640625
1738773102054041900,6.493041748046875,-0.2164154052734375,-0.0113525390625,-0.984771728515625
1738773102064032800,6.50303271484375,-0.2147674560546875,-0.0113983154296875,-0.984771728515625
1738773102074023700,6.513023681640625,-0.2148590087890625,-0.0113525390625,-0.983978271484375
1738773102084014800,6.523014892578125,-0.2148284912109375,-0.0117645263671875,-0.9849090576171875
1738773102094005800,6.533005859375,-0.2124481201171875,-0.0117340087890625,-0.983062744140625
1738773102103996700,6.54299658203125,-0.213836669921875,-0.0102386474609375,-0.9834747314453125
1738773102113987800,6.55298779296875,-0.2121734619140625,-0.0115203857421875,-0.9843292236328125
1738773102123978800,6.562978759765625,-0.2138824462890625,-0.0131378173828125,-0.9835662841796875
1738773102133970700,6.572970703125,-0.2146759033203125,-0.0110015869140625,-0.98321533203125
1738773102143961900,6.5829619140625,-0.213104248046875,-0.011749267578125,-0.9850616455078125
1738773102153952800,6.592952880859375,-0.2160186767578125,-0.01123046875,-0.9839324951171875
1738773102163943700,6.602943603515625,-0.21514892578125,-0.01153564453125,-0.984710693359375
1738773102173934800,6.612934814453125,-0.2145538330078125,-0.012054443359375,-0.98382568359375
1738773102183925800,6.62292578125,-0.2154541015625,-0.011474609375,-0.98394775390625
1738773102193916700,6.632916748046875,-0.2145843505859375,-0.0097808837890625,-0.98468017578125
1738773102203907800,6.642907958984375,-0.2127532958984375,-0.0103607177734375,-0.983856201171875
1738773102213899000,6.65289892578125,-0.212890625,-0.0113525390625,-0.9835968017578125
1738773102223890700,6.662890625,-0.21484375,-0.0100860595703125,-0.9829254150390625
1738773102233881600,6.672881591796875,-0.215484619140625,-0.0118560791015625,-0.983917236328125
1738773102243872800,6.682872802734375,-0.2147979736328125,-0.0114898681640625,-0.9846649169921875
1738773102253864000,6.692864013671875,-0.215057373046875,-0.010345458984375,-0.983673095703125
1738773102263854800,6.702854736328125,-0.2154541015625,-0.010894775390625,-0.9842987060546875
1738773102273846000,6.712845947265625,-0.2131195068359375,-0.0114288330078125,-0.983551025390625
1738773102283837200,6.722837158203125,-0.212890625,-0.0114288330078125,-0.9839935302734375
1738773102293828000,6.732828125,-0.2153472900390625,-0.0101470947265625,-0.9838409423828125
1738773102303819800,6.74281982421875,-0.2157745361328125,-0.00970458984375,-0.985443115234375
1738773102313811000,6.75281103515625,-0.213043212890625,-0.011474609375,-0.985137939453125
1738773102323802000,6.762802001953125,-0.2142486572265625,-0.0115509033203125,-0.9830474853515625
1738773102333793000,6.77279296875,-0.216217041015625,-0.0105438232421875,-0.9837188720703125
1738773102343784200,6.7827841796875,-0.2119140625,-0.0111236572265625,-0.984954833984375
1738773102353775000,6.792775146484375,-0.2131805419921875,-0.0102386474609375,-0.9839019775390625
1738773102363766000,6.80276611328125,-0.215484619140625,-0.011627197265625,-0.983428955078125
1738773102373757000,6.8127568359375,-0.2159881591796875,-0.0122528076171875,-0.984710693359375
1738773102383748000,6.822748046875,-0.2134857177734375,-0.0111236572265625,-0.9855804443359375
1738773102393739000,6.832739013671875,-0.2135162353515625,-0.011138916015625,-0.984100341796875
1738773102403731000,6.84273095703125,-0.2157440185546875,-0.011474609375,-0.983795166015625
1738773102413722000,6.85272216796875,-0.212890625,-0.0117645263671875,-0.983551025390625
1738773102423713000,6.862713134765625,-0.2127838134765625,-0.0102081298828125,-0.9838714599609375
1738773102433704000,6.872703857421875,-0.2125091552734375,-0.010986328125,-0.9835968017578125
1738773102443695000,6.882695068359375,-0.213226318359375,-0.011810302734375,-0.9842529296875
1738773102453686000,6.89268603515625,-0.212921142578125,-0.0113983154296875,-0.983734130859375
1738773102463677000,6.902677001953125,-0.21527099609375,-0.01019287109375,-0.98388671875
1738773102473668000,6.912668212890625,-0.2122955322265625,-0.012786865234375,-0.98358154296875
1738773102483660000,6.922659912109375,-0.213958740234375,-0.0112762451171875,-0.9853057861328125
1738773102493651000,6.93265087890625,-0.2152557373046875,-0.0120391845703125,-0.9848175048828125
1738773102503642000,6.94264208984375,-0.2149658203125,-0.0107269287109375,-0.985260009765625
1738773102513633000,6.952633056640625,-0.2133331298828125,-0.0104522705078125,-0.9827880859375
1738773102523624000,6.9626240234375,-0.2142486572265625,-0.010528564453125,-0.983856201171875
1738773102533614800,6.97261474609375,-0.2120819091796875,-0.011016845703125,-0.984649658203125
1738773102543606000,6.98260595703125,-0.2127685546875,-0.010894775390625,-0.983856201171875
1738773102553597000,6.992596923828125,-0.2142181396484375,-0.0121307373046875,-0.982452392578125
1738773102563587800,7.002587890625,-0.212982177734375,-0.0127410888671875,-0.98468017578125
1738773102573580000,7.012580078125,-0.2147064208984375,-0.010833740234375,-0.983551025390625
1738773102583571000,7.022571044921875,-0.21331787109375,-0.011749267578125,-0.9832916259765625
1738773102593561900,7.032561767578125,-0.21337890625,-0.01116943359375,-0.9848175048828125
1738773102603553000,7.042552978515625,-0.213409423828125,-0.0107879638671875,-0.983978271484375
1738773102613544000,7.0525439453125,-0.2143096923828125,-0.011077880859375,-0.9843292236328125
1738773102623534800,7.062534912109375,-0.214202880859375,-0.0117645263671875,-0.9841766357421875
1738773102633526000,7.072526123046875,-0.2144317626953125,-0.0103302001953125,-0.9846954345703125
1738773102643517000,7.082516845703125,-0.2144775390625,-0.0117340087890625,-0.9846343994140625
1738773102653508900,7.0925087890625,-0.2152557373046875,-0.011627197265625,-0.98486328125
1738773102663500000,7.1025,-0.213165283203125,-0.0113525390625,-0.9846954345703125
1738773102673491000,7.112490966796875,-0.213775634765625,-0.0116729736328125,-0.9859619140625
1738773102683481900,7.12248193359375,-0.2164306640625,-0.01092529296875,-0.983734130859375
1738773102693473000,7.13247314453125,-0.214111328125,-0.0115814208984375,-0.984344482421875
1738773102703464000,7.1424638671875,-0.2117156982421875,-0.0107574462890625,-0.983001708984375
1738773102713454800,7.152454833984375,-0.213592529296875,-0.0113372802734375,-0.9840850830078125
1738773102723446000,7.162446044921875,-0.2146759033203125,-0.0106048583984375,-0.9830169677734375
1738773102733437200,7.172437255859375,-0.2127685546875,-0.0110321044921875,-0.9839630126953125
1738773102743428900,7.182428955078125,-0.21331787109375,-0.0109710693359375,-0.984283447265625
1738773102753419800,7.192419677734375,-0.213531494140625,-0.0118408203125,-0.983245849609375
1738773102763411000,7.202410888671875,-0.2176971435546875,-0.0115203857421875,-0.983795166015625
1738773102773401900,7.21240185546875,-0.213897705078125,-0.01019287109375,-0.9841766357421875
1738773102783393000,7.22239306640625,-0.213348388671875,-0.0115509033203125,-0.98333740234375
1738773102793384200,7.23238427734375,-0.216949462890625,-0.0101470947265625,-0.9850006103515625
1738773102803375000,7.242375,-0.2130889892578125,-0.0107269287109375,-0.983612060546875
1738773102813366000,7.252365966796875,-0.2128448486328125,-0.01129150390625,-0.9848785400390625
1738773102823357200,7.262357177734375,-0.2147674560546875,-0.01104736328125,-0.984130859375
1738773102833348900,7.272348876953125,-0.2159576416015625,-0.01116943359375,-0.984161376953125
1738773102843340000,7.282340087890625,-0.21319580078125,-0.010223388671875,-0.9832305908203125
1738773102853331200,7.292331298828125,-0.212921142578125,-0.01025390625,-0.984100341796875
1738773102863322000,7.302322021484375,-0.2136993408203125,-0.010040283203125,-0.9846649169921875
1738773102873313000,7.31231298828125,-0.21484375,-0.0103302001953125,-0.98504638671875
1738773102883304000,7.322303955078125,-0.2141571044921875,-0.0114593505859375,-0.984161376953125
1738773102893295000,7.332295166015625,-0.2128448486328125,-0.01055908203125,-0.98565673828125
1738773102903286000,7.3422861328125,-0.2142181396484375,-0.0107421875,-0.9850311279296875
1738773102913277000,7.35227685546875,-0.2166900634765625,-0.0121002197265625,-0.984619140625
1738773102923269000,7.36226904296875,-0.211578369140625,-0.011138916015625,-0.9845123291015625
1738773102933260000,7.372260009765625,-0.213104248046875,-0.010467529296875,-0.982757568359375
1738773102943251000,7.3822509765625,-0.21759033203125,-0.0118865966796875,-0.9843597412109375
1738773102953242000,7.3922421875,-0.2143707275390625,-0.0113372802734375,-0.9850311279296875
1738773102963233000,7.40223291015625,-0.21185302734375,-0.0108184814453125,-0.9848175048828125
1738773102973224000,7.412223876953125,-0.2143096923828125,-0.012603759765625,-0.9846649169921875
1738773102983215000,7.422215087890625,-0.215240478515625,-0.011444091796875,-0.984649658203125
1738773102993206000,7.4322060546875,-0.2133026123046875,-0.0108795166015625,-0.9843597412109375
1738773103003197000,7.442197021484375,-0.2135009765625,-0.0102386474609375,-0.9843902587890625
1738773103013189000,7.452189208984375,-0.2133636474609375,-0.01104736328125,-0.9837799072265625
1738773103023180000,7.462179931640625,-0.213104248046875,-0.011566162109375,-0.9836578369140625
1738773103033171000,7.4721708984375,-0.2136383056640625,-0.0112152099609375,-0.983978271484375
1738773103043161900,7.482161865234375,-0.2136077880859375,-0.010894775390625,-0.9848785400390625
1738773103053153000,7.492153076171875,-0.213836669921875,-0.010498046875,-0.98394775390625
1738773103063144000,7.50214404296875,-0.2135162353515625,-0.0120697021484375,-0.98309326171875
1738773103073134800,7.512134765625,-0.2139129638671875,-0.0100250244140625,-0.9832763671875
1738773103083126000,7.5221259765625,-0.2133026123046875,-0.0116729736328125,-0.9845733642578125
1738773103093117000,7.532116943359375,-0.21630859375,-0.01190185546875,-0.9845428466796875
1738773103103108900,7.54210888671875,-0.215179443359375,-0.0109405517578125,-0.9837646484375
1738773103113100000,7.55210009765625,-0.212554931640625,-0.0113525390625,-0.9847869873046875
1738773103123091000,7.562091064453125,-0.2134857177734375,-0.0111846923828125,-0.9843597412109375
1738773103133081900,7.572081787109375,-0.2158966064453125,-0.010406494140625,-0.9833526611328125
1738773103143073000,7.582072998046875,-0.2138519287109375,-0.0103912353515625,-0.9840240478515625
1738773103153064000,7.59206396484375,-0.213287353515625,-0.0109405517578125,-0.9857330322265625
1738773103163054800,7.602054931640625,-0.215240478515625,-0.011962890625,-0.98431396484375
1738773103173045800,7.612045654296875,-0.2146148681640625,-0.0107269287109375,-0.9837646484375
1738773103183038000,7.622037841796875,-0.2133026123046875,-0.0104522705078125,-0.9831390380859375
1738773103193028900,7.63202880859375,-0.2137908935546875,-0.0108489990234375,-0.982940673828125
1738773103203020000,7.64202001953125,-0.214752197265625,-0.0112762451171875,-0.9833221435546875
1738773103213011000,7.652010986328125,-0.2138519287109375,-0.01043701171875,-0.9845428466796875
1738773103223001900,7.662001953125,-0.213409423828125,-0.010894775390625,-0.98431396484375
1738773103232992800,7.67199267578125,-0.2149810791015625,-0.0107421875,-0.9845428466796875
1738773103242984000,7.68198388671875,-0.214141845703125,-0.010711669921875,-0.98321533203125
1738773103252975000,7.69197509765625,-0.2118682861328125,-0.01104736328125,-0.9841156005859375
1738773103262966000,7.701966064453125,-0.216461181640625,-0.011627197265625,-0.98260498046875
1738773103272958000,7.7119580078125,-0.216217041015625,-0.01141357421875,-0.9837799072265625
1738773103282949400,7.721949462890625,-0.2119140625,-0.0106658935546875,-0.98516845703125
1738773103292940300,7.731940185546875,-0.21380615234375,-0.0104827880859375,-0.9842681884765625
1738773103302931500,7.741931396484375,-0.2161407470703125,-0.0114898681640625,-0.9833221435546875
1738773103312922400,7.75192236328125,-0.21246337890625,-0.0118408203125,-0.9836883544921875
1738773103322913500,7.76191357421875,-0.213348388671875,-0.0122222900390625,-0.9845123291015625
1738773103332904400,7.771904541015625,-0.215362548828125,-0.0115203857421875,-0.9839630126953125
1738773103342895600,7.7818955078125,-0.215484619140625,-0.011444091796875,-0.9847259521484375
1738773103352886500,7.791886474609375,-0.213714599609375,-0.012054443359375,-0.9850311279296875
1738773103362878500,7.80187841796875,-0.2133026123046875,-0.011810302734375,-0.9844207763671875
1738773103372869400,7.811869384765625,-0.21563720703125,-0.0110015869140625,-0.98468017578125
1738773103382860500,7.821860595703125,-0.2147064208984375,-0.0109100341796875,-0.9851226806640625
1738773103392851500,7.8318515625,-0.21295166015625,-0.0109710693359375,-0.985198974609375
1738773103402842600,7.841842529296875,-0.21539306640625,-0.01141357421875,-0.984771728515625
1738773103412833500,7.85183349609375,-0.214752197265625,-0.010772705078125,-0.984527587890625
1738773103422824400,7.861824462890625,-0.213134765625,-0.0117950439453125,-0.98504638671875
1738773103432815600,7.871815673828125,-0.2137298583984375,-0.011199951171875,-0.9840087890625
1738773103442806500,7.881806640625,-0.214080810546875,-0.010223388671875,-0.9839324951171875
1738773103452798500,7.891798583984375,-0.2122955322265625,-0.0111236572265625,-0.98455810546875
1738773103462789600,7.90178955078125,-0.21246337890625,-0.0108489990234375,-0.9850616455078125
1738773103472780500,7.911780517578125,-0.21466064453125,-0.0101318359375,-0.984283447265625
1738773103482771500,7.921771484375,-0.2140655517578125,-0.01171875,-0.98394775390625
1738773103492762400,7.931762451171875,-0.2130889892578125,-0.0101470947265625,-0.983734130859375
1738773103502753500,7.94175341796875,-0.2147064208984375,-0.011810302734375,-0.9846343994140625
1738773103514617300,7.953617431640625,-0.215484619140625,-0.0110626220703125,-0.9840545654296875
1738773103524608300,7.963608154296875,-0.213226318359375,-0.010284423828125,-0.9840240478515625
1738773103534599400,7.973599365234375,-0.21343994140625,-0.0117645263671875,-0.98455810546875
1738773103544591400,7.98359130859375,-0.21539306640625,-0.01104736328125,-0.984161376953125
1738773103554582300,7.993582275390625,-0.21453857421875,-0.0098876953125,-0.9842376708984375
1738773103564573400,8.003573486328126,-0.212738037109375,-0.01116943359375,-0.985443115234375
1738773103574564400,8.013564453125,-0.213714599609375,-0.011505126953125,-0.9847869873046875
1738773103584555300,8.02355517578125,-0.2165374755859375,-0.011810302734375,-0.98382568359375
1738773103594546400,8.03354638671875,-0.2125091552734375,-0.011260986328125,-0.983917236328125
1738773103604537600,8.04353759765625,-0.214111328125,-0.0108489990234375,-0.9842376708984375
1738773103614528500,8.053528564453124,-0.2162322998046875,-0.0109100341796875,-0.98419189453125
1738773103624519400,8.06351953125,-0.2133026123046875,-0.0107574462890625,-0.9836883544921875
1738773103634511400,8.073511474609376,-0.21282958984375,-0.0100555419921875,-0.9833526611328125
1738773103644502500,8.08350244140625,-0.2131195068359375,-0.010986328125,-0.98370361328125
1738773103654493400,8.093493408203125,-0.21435546875,-0.0112762451171875,-0.983184814453125
1738773103664484600,8.103484619140625,-0.215179443359375,-0.0109405517578125,-0.9845428466796875
1738773103674475500,8.1134755859375,-0.2134246826171875,-0.0115509033203125,-0.98541259765625
1738773103684466400,8.123466552734374,-0.2140045166015625,-0.0115509033203125,-0.983673095703125
1738773103694457600,8.13345751953125,-0.2158355712890625,-0.0100555419921875,-0.98431396484375
1738773103704448500,8.143448486328126,-0.212646484375,-0.012115478515625,-0.984588623046875
1738773103714439400,8.153439453125,-0.215362548828125,-0.010406494140625,-0.9849395751953125
1738773103724431600,8.163431640625,-0.2170867919921875,-0.00970458984375,-0.98443603515625
1738773103734422500,8.173422607421875,-0.210968017578125,-0.010772705078125,-0.98492431640625
1738773103744413400,8.183413330078125,-0.214324951171875,-0.0118408203125,-0.9839630126953125
1738773103754404600,8.193404541015624,-0.214385986328125,-0.012298583984375,-0.9842071533203125
1738773103764395500,8.2033955078125,-0.2128448486328125,-0.010345458984375,-0.9834442138671875
1738773103774386400,8.213386474609376,-0.21337890625,-0.0103607177734375,-0.9842071533203125
1738773103784377300,8.22337744140625,-0.2154541015625,-0.0113372802734375,-0.9843902587890625
1738773103794368500,8.233368408203125,-0.2163543701171875,-0.0114898681640625,-0.9835968017578125
1738773103804359400,8.243359375,-0.2117919921875,-0.0100860595703125,-0.9844818115234375
1738773103814351600,8.2533515625,-0.213623046875,-0.010772705078125,-0.9850006103515625
1738773103824342500,8.263342529296875,-0.215087890625,-0.0098724365234375,-0.983978271484375
1738773103834333400,8.27333349609375,-0.2142486572265625,-0.011199951171875,-0.98345947265625
1738773103844324400,8.283324462890626,-0.212860107421875,-0.0128936767578125,-0.9854583740234375
1738773103854315500,8.2933154296875,-0.2145233154296875,-0.012420654296875,-0.9849090576171875
1738773103864931300,8.303931396484375,-0.2158203125,-0.009796142578125,-0.983734130859375
1738773103874922500,8.313922607421874,-0.2122039794921875,-0.0106048583984375,-0.98492431640625
1738773103884913400,8.323913330078126,-0.2147216796875,-0.01092529296875,-0.983245849609375
1738773103894904300,8.333904296875,-0.2183990478515625,-0.01031494140625,-0.983734130859375
1738773103904895500,8.3438955078125,-0.21405029296875,-0.011871337890625,-0.9856109619140625
1738773103914886400,8.353886474609375,-0.21246337890625,-0.012176513671875,-0.9852447509765625
1738773103924877300,8.363877197265625,-0.2165069580078125,-0.0107421875,-0.9851226806640625
1738773103934869500,8.373869384765625,-0.2155914306640625,-0.0098876953125,-0.9845733642578125
1738773103944860400,8.3838603515625,-0.2121429443359375,-0.0112152099609375,-0.9839935302734375
1738773103954851300,8.393851318359374,-0.21380615234375,-0.01177978515625,-0.9837799072265625
1738773103964842500,8.403842529296876,-0.2154998779296875,-0.0116729736328125,-0.9842376708984375
1738773103974833400,8.41383349609375,-0.2138214111328125,-0.0098114013671875,-0.98468017578125
1738773103984824300,8.42382421875,-0.213836669921875,-0.0106201171875,-0.9829864501953125
1738773103994815200,8.433815185546875,-0.2138671875,-0.0094451904296875,-0.9841461181640625
1738773104004806400,8.443806396484375,-0.214508056640625,-0.0106658935546875,-0.9839630126953125
1738773104014797600,8.453797607421874,-0.212310791015625,-0.0106201171875,-0.9834136962890625
1738773104024789200,8.463789306640624,-0.2130279541015625,-0.0121612548828125,-0.9851837158203125
1738773104034780400,8.473780517578126,-0.2161712646484375,-0.01116943359375,-0.9848480224609375
1738773104044771300,8.483771240234375,-0.214324951171875,-0.010223388671875,-0.9849090576171875
1738773104054762200,8.49376220703125,-0.2137908935546875,-0.0113983154296875,-0.9844818115234375
1738773104064753400,8.50375341796875,-0.2145538330078125,-0.0117645263671875,-0.9842987060546875
1738773104074744600,8.51374462890625,-0.2144775390625,-0.0098876953125,-0.9827423095703125
1738773104084735500,8.523735595703124,-0.21435546875,-0.010406494140625,-0.9833221435546875
1738773104094726700,8.5337265625,-0.213531494140625,-0.0111083984375,-0.98406982421875
1738773104104718300,8.54371826171875,-0.213714599609375,-0.011383056640625,-0.9824981689453125
1738773104114709500,8.55370947265625,-0.2143096923828125,-0.0122833251953125,-0.9844512939453125
1738773104124700700,8.56370068359375,-0.2147064208984375,-0.0110931396484375,-0.9840545654296875
1738773104134691600,8.573691650390625,-0.214569091796875,-0.0114288330078125,-0.983734130859375
1738773104144682500,8.5836826171875,-0.2132720947265625,-0.0110321044921875,-0.9833221435546875
1738773104154673400,8.59367333984375,-0.2136688232421875,-0.0101776123046875,-0.9832000732421875
1738773104164664600,8.60366455078125,-0.2138214111328125,-0.0101470947265625,-0.9849090576171875
1738773104174655500,8.613655517578126,-0.2137603759765625,-0.0116729736328125,-0.984954833984375
1738773104184647700,8.623647705078126,-0.2146148681640625,-0.0102691650390625,-0.9843292236328125
1738773104194638600,8.633638671875,-0.213104248046875,-0.010650634765625,-0.984039306640625
1738773104204629500,8.64362939453125,-0.2155609130859375,-0.0120849609375,-0.9837493896484375
1738773104214620400,8.653620361328125,-0.21307373046875,-0.0116729736328125,-0.9840850830078125
1738773104224611600,8.663611572265625,-0.21221923828125,-0.0117340087890625,-0.9832916259765625
1738773104234602500,8.6736025390625,-0.2138519287109375,-0.0108489990234375,-0.9847564697265625
1738773104244593400,8.683593505859376,-0.2147674560546875,-0.0112152099609375,-0.985626220703125
1738773104254584600,8.69358447265625,-0.2145233154296875,-0.0117645263671875,-0.9845733642578125
1738773104264575500,8.703575439453125,-0.21368408203125,-0.0116119384765625,-0.98394775390625
1738773104274567000,8.71356689453125,-0.2137908935546875,-0.0116119384765625,-0.9843597412109375
1738773104284558000,8.72355810546875,-0.2146453857421875,-0.0109100341796875,-0.9835357666015625
1738773104294549000,8.733549072265625,-0.2136383056640625,-0.01055908203125,-0.9841156005859375
1738773104304540000,8.743539794921874,-0.2138824462890625,-0.0104827880859375,-0.9839019775390625
1738773104314530800,8.75353076171875,-0.2140045166015625,-0.010406494140625,-0.9830322265625
1738773104324522000,8.76352197265625,-0.2149200439453125,-0.0110626220703125,-0.983917236328125
1738773104334513000,8.773512939453125,-0.21490478515625,-0.01007080078125,-0.9841461181640625
1738773104344503800,8.78350390625,-0.2149810791015625,-0.0111236572265625,-0.98388671875
1738773104354495000,8.793494873046875,-0.2144927978515625,-0.010833740234375,-0.9841766357421875
1738773104364487000,8.80348681640625,-0.21453857421875,-0.0121612548828125,-0.984344482421875
1738773104374477800,8.813477783203124,-0.2132720947265625,-0.0117645263671875,-0.98468017578125
1738773104384469000,8.823468994140624,-0.2143707275390625,-0.011749267578125,-0.9850311279296875
1738773104394460000,8.8334599609375,-0.213653564453125,-0.01092529296875,-0.9843597412109375
1738773104404450800,8.843450927734375,-0.21240234375,-0.0114288330078125,-0.9845733642578125
1738773104414442000,8.85344189453125,-0.2122344970703125,-0.010894775390625,-0.9841461181640625
1738773104424433000,8.863432861328125,-0.214080810546875,-0.0104522705078125,-0.982818603515625
1738773104434423800,8.873423828125,-0.2145843505859375,-0.011383056640625,-0.9834442138671875
1738773104444416000,8.883416015625,-0.2129974365234375,-0.01123046875,-0.9856719970703125
1738773104454407000,8.893406982421874,-0.2146453857421875,-0.010955810546875,-0.98419189453125
1738773104464397800,8.903397705078126,-0.2143707275390625,-0.01190185546875,-0.98480224609375
1738773104474388700,8.913388671875,-0.2129364013671875,-0.0117034912109375,-0.984771728515625
1738773104484380000,8.9233798828125,-0.215057373046875,-0.012237548828125,-0.98297119140625
1738773104494370800,8.933370849609375,-0.214447021484375,-0.01141357421875,-0.984375
1738773104504362000,8.943362060546875,-0.2137298583984375,-0.0112762451171875,-0.9827728271484375
1738773104514353200,8.953353271484374,-0.2160491943359375,-0.011199951171875,-0.98284912109375
1738773104524344000,8.963343994140626,-0.2153472900390625,-0.0115814208984375,-0.983856201171875
1738773104534335700,8.973335693359376,-0.213592529296875,-0.010162353515625,-0.9835357666015625
1738773104544327000,8.983326904296876,-0.2122039794921875,-0.0115509033203125,-0.9835968017578125
1738773104554317800,8.99331787109375,-0.2138824462890625,-0.0099029541015625,-0.9847564697265625
1738773104564309000,9.00330908203125,-0.21539306640625,-0.01123046875,-0.983978271484375
1738773104574300200,9.013300048828125,-0.21331787109375,-0.011383056640625,-0.9834442138671875
1738773104584291000,9.023291015625,-0.2142333984375,-0.010040283203125,-0.9834136962890625
1738773104594282000,9.033281982421874,-0.2145233154296875,-0.0108795166015625,-0.984375
1738773104604273000,9.04327294921875,-0.2142333984375,-0.011138916015625,-0.9826202392578125
1738773104614265000,9.05326513671875,-0.212677001953125,-0.0115814208984375,-0.9835357666015625
1738773104624256000,9.063256103515625,-0.2122955322265625,-0.0107574462890625,-0.9852752685546875
1738773104634247200,9.0732470703125,-0.214111328125,-0.0112457275390625,-0.98333740234375
1738773104644238000,9.083238037109375,-0.21551513671875,-0.011444091796875,-0.9847412109375
1738773104654229000,9.09322900390625,-0.212493896484375,-0.01031494140625,-0.98443603515625
1738773104664220000,9.103219970703124,-0.2142791748046875,-0.011474609375,-0.9839019775390625
1738773104674211000,9.113211181640626,-0.2143096923828125,-0.010589599609375,-0.9849853515625
1738773104684202000,9.123201904296875,-0.21405029296875,-0.0111083984375,-0.9837493896484375
1738773104694193000,9.13319287109375,-0.214569091796875,-0.0114593505859375,-0.9844818115234375
1738773104704185000,9.14318505859375,-0.21466064453125,-0.011505126953125,-0.984130859375
1738773104714176000,9.153176025390625,-0.2147979736328125,-0.0107879638671875,-0.984222412109375
1738773104724167000,9.1631669921875,-0.2135772705078125,-0.0098114013671875,-0.9842071533203125
1738773104734158000,9.173157958984374,-0.2117462158203125,-0.010284423828125,-0.9839019775390625
1738773104744149000,9.18314892578125,-0.2141265869140625,-0.0110321044921875,-0.98455810546875
1738773104754140000,9.193139892578126,-0.2145538330078125,-0.011810302734375,-0.98388671875
1738773104764130800,9.203130859375,-0.2131195068359375,-0.01123046875,-0.9828033447265625
1738773104774122000,9.2131220703125,-0.214447021484375,-0.011871337890625,-0.9833526611328125
1738773104784113000,9.22311279296875,-0.2144622802734375,-0.011993408203125,-0.984771728515625
1738773104794105000,9.23310498046875,-0.2139129638671875,-0.0105133056640625,-0.98394775390625
1738773104804096000,9.243095947265624,-0.214385986328125,-0.0110015869140625,-0.9851226806640625
1738773104814087000,9.2530869140625,-0.214874267578125,-0.0111541748046875,-0.9845733642578125
1738773104824077800,9.263077880859376,-0.2115631103515625,-0.0113677978515625,-0.985198974609375
1738773104834069000,9.273069091796875,-0.21331787109375,-0.0113525390625,-0.9846343994140625
1738773104844060000,9.283059814453125,-0.21441650390625,-0.0109405517578125,-0.983612060546875
1738773104854050800,9.29305078125,-0.2135467529296875,-0.01129150390625,-0.98394775390625
1738773104864042000,9.3030419921875,-0.2142791748046875,-0.0117645263671875,-0.984375
1738773104874034000,9.313033935546875,-0.21417236328125,-0.011688232421875,-0.9842681884765625
1738773104884024800,9.32302490234375,-0.2142333984375,-0.010223388671875,-0.984893798828125
1738773104894016000,9.33301611328125,-0.2133636474609375,-0.01031494140625,-0.983673095703125
1738773104904007000,9.3430068359375,-0.213287353515625,-0.0103302001953125,-0.9842376708984375
1738773104913997800,9.352997802734375,-0.214385986328125,-0.010772705078125,-0.98406982421875
1738773104923989000,9.362989013671875,-0.213409423828125,-0.0111083984375,-0.9843597412109375
1738773104933980000,9.37297998046875,-0.2151031494140625,-0.01031494140625,-0.9848480224609375
1738773104943970800,9.382970703125,-0.21466064453125,-0.0118408203125,-0.984527587890625
1738773104953961700,9.392961669921876,-0.2134246826171875,-0.0116729736328125,-0.9843292236328125
1738773104963954000,9.402953857421876,-0.214141845703125,-0.01123046875,-0.9836578369140625
1738773104973944800,9.41294482421875,-0.2142333984375,-0.0105438232421875,-0.983917236328125
1738773104983935700,9.422935791015625,-0.214324951171875,-0.0109405517578125,-0.98370361328125
1738773104993927000,9.432927001953125,-0.213531494140625,-0.010986328125,-0.9850616455078125
1738773105003917800,9.442917724609375,-0.2140350341796875,-0.0118865966796875,-0.9836883544921875
1738773105013908700,9.45290869140625,-0.214263916015625,-0.010955810546875,-0.98443603515625
1738773105023900200,9.462900146484374,-0.212677001953125,-0.0112457275390625,-0.9850616455078125
1738773105033891000,9.47289111328125,-0.2147674560546875,-0.012420654296875,-0.9850616455078125
1738773105043882000,9.482882080078125,-0.21551513671875,-0.01092529296875,-0.9837646484375
1738773105053874000,9.4928740234375,-0.21295166015625,-0.0108184814453125,-0.984130859375
1738773105063864800,9.50286474609375,-0.21502685546875,-0.011199951171875,-0.9830169677734375
1738773105073856000,9.51285595703125,-0.21392822265625,-0.0120697021484375,-0.982421875
1738773105083847200,9.52284716796875,-0.21392822265625,-0.01165771484375,-0.9835968017578125
1738773105093838000,9.532838134765624,-0.2127532958984375,-0.013031005859375,-0.9838104248046875
1738773105103829000,9.5428291015625,-0.21466064453125,-0.01190185546875,-0.9833831787109375
1738773105113820000,9.55281982421875,-0.2155609130859375,-0.0109710693359375,-0.983734130859375
1738773105123811000,9.56281103515625,-0.2139892578125,-0.0101165771484375,-0.9846038818359375
1738773105133803000,9.572802978515625,-0.2147674560546875,-0.0092926025390625,-0.9850616455078125
1738773105143794200,9.582794189453125,-0.2127838134765625,-0.011627197265625,-0.9849395751953125
1738773105153785000,9.59278515625,-0.2139434814453125,-0.011138916015625,-0.9837799072265625
1738773105163776000,9.60277587890625,-0.2142181396484375,-0.01104736328125,-0.98468017578125
1738773105173767000,9.612766845703124,-0.213104248046875,-0.0109710693359375,-0.98492431640625
1738773105183758000,9.622758056640626,-0.21307373046875,-0.01031494140625,-0.984161376953125
1738773105193749000,9.6327490234375,-0.214599609375,-0.0114288330078125,-0.98504638671875
1738773105203740000,9.642739990234375,-0.213897705078125,-0.0108184814453125,-0.984405517578125
1738773105213731000,9.65273095703125,-0.213531494140625,-0.011627197265625,-0.98529052734375
1738773105223723000,9.662722900390625,-0.214263916015625,-0.011322021484375,-0.9845428466796875
1738773105233714000,9.6727138671875,-0.2132568359375,-0.010284423828125,-0.9844970703125
1738773105243705000,9.682705078125,-0.2136077880859375,-0.0104522705078125,-0.9847412109375
1738773105253696000,9.692696044921876,-0.2139434814453125,-0.0115509033203125,-0.983551025390625
1738773105263687000,9.70268701171875,-0.2144775390625,-0.0105743408203125,-0.984161376953125
1738773105273678000,9.712677978515625,-0.2147216796875,-0.0115509033203125,-0.9840240478515625
1738773105283669500,9.72266943359375,-0.2138214111328125,-0.0106658935546875,-0.98431396484375
1738773105293660400,9.732660400390625,-0.214599609375,-0.0100555419921875,-0.984344482421875
1738773105303651300,9.7426513671875,-0.215911865234375,-0.0109710693359375,-0.984283447265625
1738773105313643500,9.7526435546875,-0.2137451171875,-0.01123046875,-0.9839324951171875
1738773105323634400,9.762634521484374,-0.2134857177734375,-0.0107574462890625,-0.9835205078125
1738773105333625600,9.77262548828125,-0.213958740234375,-0.010101318359375,-0.9848175048828125
1738773105343616500,9.782616455078125,-0.2144622802734375,-0.0112152099609375,-0.9841156005859375
1738773105353607400,9.792607421875,-0.215057373046875,-0.0102996826171875,-0.983856201171875
1738773105363598300,9.802598388671875,-0.2137298583984375,-0.011444091796875,-0.9856109619140625
1738773105373589500,9.812589599609375,-0.2149200439453125,-0.012176513671875,-0.984649658203125
1738773105383580400,9.822580322265624,-0.2146453857421875,-0.009613037109375,-0.984405517578125
1738773105393571300,9.8325712890625,-0.2119140625,-0.012115478515625,-0.98388671875
1738773105403563500,9.8425634765625,-0.217071533203125,-0.0118865966796875,-0.9833526611328125
1738773105413554400,9.852554443359375,-0.214447021484375,-0.011688232421875,-0.9832916259765625
1738773105423545300,9.86254541015625,-0.211578369140625,-0.0101318359375,-0.9850616455078125
1738773105433536500,9.87253662109375,-0.212493896484375,-0.011810302734375,-0.983612060546875
1738773105443527400,9.88252734375,-0.2164459228515625,-0.01104736328125,-0.9838104248046875
1738773105453518300,9.892518310546874,-0.2132568359375,-0.0118865966796875,-0.98284912109375
1738773105463509500,9.902509521484374,-0.2123260498046875,-0.0107269287109375,-0.9835052490234375
1738773105473500400,9.91250048828125,-0.21514892578125,-0.01123046875,-0.9829559326171875
1738773105483492400,9.922492431640626,-0.2159271240234375,-0.0115814208984375,-0.9825897216796875
1738773105493483500,9.9324833984375,-0.21160888671875,-0.010894775390625,-0.9842529296875
1738773105503474400,9.942474365234375,-0.213592529296875,-0.0100555419921875,-0.985107421875
1738773105513465300,9.95246533203125,-0.2164764404296875,-0.0107879638671875,-0.984283447265625
1738773105523456300,9.962456298828124,-0.2147064208984375,-0.0111541748046875,-0.98358154296875
1738773105533447400,9.972447509765624,-0.2131500244140625,-0.01129150390625,-0.9857330322265625
1738773105543438300,9.982438232421876,-0.21466064453125,-0.01141357421875,-0.984039306640625
1738773105553429200,9.99242919921875,-0.2152099609375,-0.0110931396484375,-0.9838409423828125
1738773105563420400,10.00242041015625,-0.212005615234375,-0.011993408203125,-0.984100341796875
1738773105573412400,10.012412353515625,-0.2154083251953125,-0.01190185546875,-0.9834136962890625
1738773105583403300,10.0224033203125,-0.2147674560546875,-0.01055908203125,-0.984832763671875
1738773105593394400,10.03239453125,-0.2138214111328125,-0.01129150390625,-0.984466552734375
1738773105603385300,10.04238525390625,-0.212677001953125,-0.0105133056640625,-0.9843597412109375
1738773105613376300,10.052376220703126,-0.2147216796875,-0.01165771484375,-0.983642578125
1738773105623367400,10.062367431640626,-0.2155914306640625,-0.0109405517578125,-0.98455810546875
1738773105633358600,10.072358642578125,-0.212860107421875,-0.010406494140625,-0.983917236328125
1738773105643349500,10.082349609375,-0.213623046875,-0.012908935546875,-0.9852294921875
1738773105653340400,10.09234033203125,-0.2152099609375,-0.011199951171875,-0.9828338623046875
1738773105663332400,10.102332275390625,-0.214447021484375,-0.0096435546875,-0.9846343994140625
1738773105673323500,10.112323486328124,-0.21356201171875,-0.011016845703125,-0.98370361328125
1738773105683314700,10.122314697265624,-0.2151031494140625,-0.010284423828125,-0.98345947265625
1738773105693305600,10.1323056640625,-0.2146148681640625,-0.0115203857421875,-0.9848785400390625
1738773105703296500,10.142296630859375,-0.212890625,-0.0112457275390625,-0.9841766357421875
1738773105713287400,10.152287353515625,-0.2140045166015625,-0.010040283203125,-0.983917236328125
1738773105723278600,10.162278564453125,-0.2161865234375,-0.0112457275390625,-0.983856201171875
1738773105733269500,10.17226953125,-0.2140655517578125,-0.01025390625,-0.984039306640625
1738773105743260400,10.182260498046874,-0.2125244140625,-0.0108642578125,-0.984527587890625
1738773105753252600,10.192252685546874,-0.2150115966796875,-0.0125732421875,-0.9837799072265625
1738773105763243500,10.202243408203126,-0.214019775390625,-0.0098419189453125,-0.9830322265625
1738773105773234400,10.212234375,-0.2153472900390625,-0.01068115234375,-0.983917236328125
1738773105783225600,10.2222255859375,-0.2138824462890625,-0.0112762451171875,-0.9846343994140625
1738773105793216500,10.232216552734375,-0.2149658203125,-0.0110015869140625,-0.9846343994140625
1738773105803207400,10.24220751953125,-0.2132415771484375,-0.01031494140625,-0.983551025390625
1738773105813198300,10.2521982421875,-0.21295166015625,-0.01068115234375,-0.9844207763671875
1738773105823189500,10.262189453125,-0.214324951171875,-0.01080322265625,-0.9827423095703125
1738773105833180400,10.272180419921876,-0.2163238525390625,-0.0108184814453125,-0.9837799072265625
1738773105843172600,10.282172607421876,-0.212860107421875,-0.010711669921875,-0.983642578125
1738773105853163500,10.29216357421875,-0.2129974365234375,-0.0100860595703125,-0.9841766357421875
1738773105863154400,10.302154541015625,-0.215728759765625,-0.01080322265625,-0.983367919921875
1738773105873145300,10.312145263671875,-0.215667724609375,-0.0110321044921875,-0.984710693359375
1738773105883136500,10.322136474609374,-0.2137298583984375,-0.011444091796875,-0.982757568359375
1738773105893127400,10.33212744140625,-0.2136077880859375,-0.010833740234375,-0.984527587890625
1738773105903118300,10.342118408203126,-0.2145843505859375,-0.0113983154296875,-0.9838409423828125
1738773105913109500,10.352109619140625,-0.213287353515625,-0.0118255615234375,-0.9847869873046875
1738773105923100400,10.362100341796875,-0.2129364013671875,-0.0119781494140625,-0.9843902587890625
1738773105933092400,10.37209228515625,-0.2137298583984375,-0.0115966796875,-0.9839630126953125
1738773105943083500,10.38208349609375,-0.21502685546875,-0.009918212890625,-0.984771728515625
1738773105953074400,10.392074462890625,-0.214447021484375,-0.01165771484375,-0.9835205078125
1738773105963065300,10.4020654296875,-0.2154998779296875,-0.0112762451171875,-0.982879638671875
1738773105973056500,10.412056396484376,-0.2125396728515625,-0.0106658935546875,-0.9847564697265625
1738773105983047400,10.42204736328125,-0.21368408203125,-0.0116729736328125,-0.9827117919921875
1738773105993038300,10.432038330078125,-0.2132720947265625,-0.0110931396484375,-0.9828338623046875
1738773106003029200,10.442029296875,-0.2129974365234375,-0.012176513671875,-0.9848175048828125
1738773106013020400,10.4520205078125,-0.21435546875,-0.0109405517578125,-0.98419189453125
1738773106023012400,10.462012451171875,-0.2133941650390625,-0.0106201171875,-0.9837799072265625
1738773106033003300,10.472003173828124,-0.2138824462890625,-0.011566162109375,-0.9844207763671875
1738773106042994400,10.481994384765626,-0.2152099609375,-0.011871337890625,-0.9837799072265625
1738773106052985300,10.4919853515625,-0.2156829833984375,-0.011505126953125,-0.98291015625
1738773106062976300,10.501976318359375,-0.2118988037109375,-0.01220703125,-0.98388671875
1738773106072967400,10.511967529296875,-0.21307373046875,-0.0116729736328125,-0.9832611083984375
1738773106082958300,10.521958251953125,-0.215484619140625,-0.0111236572265625,-0.98388671875
1738773106092949500,10.531949462890625,-0.2137451171875,-0.012908935546875,-0.9844970703125
1738773106102940700,10.541940673828124,-0.2136993408203125,-0.0110626220703125,-0.9846343994140625
1738773106112932400,10.551932373046874,-0.215423583984375,-0.0113677978515625,-0.984588623046875
1738773106122923300,10.56192333984375,-0.2146148681640625,-0.012786865234375,-0.9839019775390625
1738773106132914400,10.57191455078125,-0.212799072265625,-0.011199951171875,-0.9840850830078125
1738773106142905600,10.581905517578125,-0.21533203125,-0.01031494140625,-0.9846038818359375
1738773106152896500,10.591896484375,-0.2150115966796875,-0.0113677978515625,-0.9845428466796875
1738773106162887400,10.601887451171875,-0.2139739990234375,-0.0125579833984375,-0.9832611083984375
1738773106172878600,10.611878662109374,-0.214630126953125,-0.009796142578125,-0.9836578369140625
1738773106182869500,10.621869384765626,-0.2134246826171875,-0.0110931396484375,-0.984710693359375
1738773106192860400,10.6318603515625,-0.214019775390625,-0.011932373046875,-0.9837493896484375
1738773106202852600,10.6418525390625,-0.215484619140625,-0.01116943359375,-0.984619140625
1738773106212843500,10.651843505859375,-0.2141571044921875,-0.0124969482421875,-0.9856109619140625
1738773106222834400,10.66183447265625,-0.2127685546875,-0.011322021484375,-0.9836578369140625
1738773106232825600,10.67182568359375,-0.2147064208984375,-0.0099639892578125,-0.9830322265625
1738773106242816500,10.68181640625,-0.21539306640625,-0.0115509033203125,-0.9842681884765625
1738773106252807400,10.691807373046874,-0.21527099609375,-0.0119171142578125,-0.9832000732421875
1738773106262798600,10.701798583984376,-0.2128448486328125,-0.0109405517578125,-0.982940673828125
1738773106272789500,10.71178955078125,-0.2147064208984375,-0.0108184814453125,-0.98492431640625
1738773106282781000,10.721781005859375,-0.21405029296875,-0.011138916015625,-0.98291015625
1738773106292771800,10.731771728515625,-0.2118377685546875,-0.0115966796875,-0.98516845703125
1738773106302762800,10.7417626953125,-0.2143707275390625,-0.010986328125,-0.9838104248046875
1738773106312754000,10.75175390625,-0.2167816162109375,-0.011688232421875,-0.9833221435546875
1738773106322744800,10.761744873046876,-0.2127532958984375,-0.011932373046875,-0.9842376708984375
1738773106332735700,10.77173583984375,-0.2126922607421875,-0.0107421875,-0.9832611083984375
1738773106342727000,10.781726806640625,-0.2165374755859375,-0.010986328125,-0.98382568359375
1738773106352717800,10.7917177734375,-0.21405029296875,-0.0109405517578125,-0.9837188720703125
1738773106362708700,10.801708740234375,-0.21368408203125,-0.011077880859375,-0.9841461181640625
1738773106372701000,10.811700927734375,-0.213836669921875,-0.0112762451171875,-0.9837646484375
1738773106382691800,10.82169189453125,-0.2132720947265625,-0.012451171875,-0.9859161376953125
1738773106392682800,10.831682861328124,-0.2163848876953125,-0.011627197265625,-0.98406982421875
1738773106402674000,10.841673828125,-0.2148284912109375,-0.011138916015625,-0.983856201171875
1738773106412664800,10.851664794921875,-0.213958740234375,-0.0103912353515625,-0.9843292236328125
1738773106422655700,10.86165576171875,-0.2149200439453125,-0.01129150390625,-0.9839935302734375
1738773106432646700,10.871646728515625,-0.212982177734375,-0.0117950439453125,-0.983856201171875
1738773106442637800,10.881637939453125,-0.2145843505859375,-0.012054443359375,-0.9846038818359375
1738773106452628700,10.891628662109374,-0.2143096923828125,-0.011444091796875,-0.9841766357421875
1738773106462621000,10.901620849609374,-0.213134765625,-0.0107879638671875,-0.9837799072265625
1738773106472611800,10.91161181640625,-0.213958740234375,-0.01068115234375,-0.98455810546875
1738773106482602800,10.921602783203125,-0.21282958984375,-0.01055908203125,-0.9851226806640625
1738773106492593700,10.93159375,-0.2130279541015625,-0.0105133056640625,-0.9846038818359375
1738773106502584800,10.941584716796875,-0.2156524658203125,-0.011077880859375,-0.9836578369140625
1738773106512575700,10.95157568359375,-0.2132415771484375,-0.0114288330078125,-0.9832916259765625
1738773106522567000,10.96156689453125,-0.213348388671875,-0.0120849609375,-0.9846649169921875
1738773106532558000,10.97155810546875,-0.2149810791015625,-0.0118408203125,-0.9844512939453125
1738773106542549000,10.981549072265626,-0.215545654296875,-0.0110931396484375,-0.98309326171875
1738773106552540000,10.991539794921875,-0.214752197265625,-0.011138916015625,-0.98419189453125
1738773106562531800,11.00153173828125,-0.21337890625,-0.008941650390625,-0.98516845703125
1738773106572522800,11.011522705078125,-0.2150115966796875,-0.01080322265625,-0.9842681884765625
1738773106582514000,11.021513916015625,-0.2154998779296875,-0.0120697021484375,-0.9842529296875
1738773106592505000,11.031505126953125,-0.2132415771484375,-0.0122222900390625,-0.98394775390625
1738773106602496000,11.04149609375,-0.21527099609375,-0.0118560791015625,-0.983734130859375
1738773106612487000,11.05148681640625,-0.2129364013671875,-0.0108489990234375,-0.98480224609375
1738773106622477800,11.061477783203125,-0.2147979736328125,-0.01055908203125,-0.9838409423828125
1738773106632469000,11.071468994140625,-0.213653564453125,-0.0103607177734375,-0.983978271484375
1738773106642460000,11.0814599609375,-0.2127532958984375,-0.0108489990234375,-0.98480224609375
1738773106652451800,11.091451904296875,-0.2151031494140625,-0.010345458984375,-0.9839324951171875
1738773106662443000,11.101443115234375,-0.2123870849609375,-0.0097808837890625,-0.983856201171875
1738773106672434000,11.111433837890624,-0.21368408203125,-0.0102996826171875,-0.9846954345703125
1738773106682424800,11.1214248046875,-0.21685791015625,-0.0124664306640625,-0.983428955078125
1738773106692416000,11.131416015625,-0.2147979736328125,-0.0113372802734375,-0.982879638671875
1738773106702407000,11.141406982421875,-0.214019775390625,-0.011138916015625,-0.9840240478515625
1738773106712397800,11.151397705078125,-0.2168731689453125,-0.0104827880859375,-0.9833526611328125
1738773106722388700,11.161388671875,-0.21343994140625,-0.01080322265625,-0.983978271484375
1738773106732380000,11.1713798828125,-0.2137908935546875,-0.012176513671875,-0.9838714599609375
1738773106742371800,11.181371826171874,-0.2138824462890625,-0.0111846923828125,-0.9849090576171875
1738773106752363000,11.191363037109374,-0.2148895263671875,-0.011474609375,-0.9846038818359375
1738773106762354000,11.20135400390625,-0.21563720703125,-0.0108184814453125,-0.9846343994140625
1738773106772344800,11.2113447265625,-0.212493896484375,-0.010650634765625,-0.98431396484375
1738773106782335700,11.221335693359375,-0.2140960693359375,-0.011962890625,-0.9840545654296875
1738773106792327000,11.231326904296875,-0.2153472900390625,-0.0123291015625,-0.9831390380859375
1738773106802317800,11.24131787109375,-0.214141845703125,-0.0122833251953125,-0.9851531982421875
1738773106812308700,11.251308837890624,-0.213653564453125,-0.012420654296875,-0.9846343994140625
1738773106822300000,11.2612998046875,-0.2132415771484375,-0.011566162109375,-0.9853057861328125
1738773106832291800,11.271291748046876,-0.2142333984375,-0.0114288330078125,-0.98358154296875
1738773106842282800,11.28128271484375,-0.215118408203125,-0.0112457275390625,-0.9838104248046875
1738773106852274000,11.29127392578125,-0.2156219482421875,-0.011474609375,-0.9835205078125
1738773106862264800,11.301264892578125,-0.214019775390625,-0.0106658935546875,-0.9847412109375
1738773106872255700,11.311255859375,-0.2127227783203125,-0.011199951171875,-0.985992431640625
1738773106882247000,11.321246826171874,-0.2153472900390625,-0.011260986328125,-0.9845428466796875
1738773106892237800,11.33123779296875,-0.2160797119140625,-0.01019287109375,-0.983367919921875
1738773106902228700,11.341228759765626,-0.2122955322265625,-0.01123046875,-0.9843597412109375
1738773106912221000,11.351220947265626,-0.2156982421875,-0.0113677978515625,-0.984222412109375
1738773106922211800,11.3612119140625,-0.2152557373046875,-0.011627197265625,-0.9833831787109375
1738773106932202800,11.37120263671875,-0.2139739990234375,-0.01190185546875,-0.9835662841796875
1738773106942193700,11.381193603515625,-0.214874267578125,-0.0107421875,-0.9850006103515625
1738773106952184800,11.391184814453124,-0.2125091552734375,-0.0118255615234375,-0.984466552734375
1738773106962175700,11.40117578125,-0.2136383056640625,-0.0112762451171875,-0.983795166015625
1738773106972166700,11.411166748046876,-0.215484619140625,-0.010223388671875,-0.9829559326171875
1738773106982157800,11.42115771484375,-0.2128448486328125,-0.01123046875,-0.984222412109375
1738773106992149000,11.43114892578125,-0.2127227783203125,-0.0104217529296875,-0.984161376953125
1738773107002140000,11.441139892578125,-0.214447021484375,-0.0112152099609375,-0.9850921630859375
1738773107012131800,11.4511318359375,-0.2138671875,-0.011260986328125,-0.984527587890625
1738773107022122800,11.461122802734375,-0.214447021484375,-0.01165771484375,-0.9837188720703125
1738773107032113700,11.47111376953125,-0.213409423828125,-0.011749267578125,-0.9849395751953125
1738773107042104800,11.481104736328126,-0.2149505615234375,-0.0107879638671875,-0.9844970703125
1738773107052096000,11.491095947265626,-0.2141876220703125,-0.0111541748046875,-0.9846954345703125
1738773107062087000,11.5010869140625,-0.21209716796875,-0.0113067626953125,-0.9832305908203125
1738773107072077800,11.511077880859375,-0.2147369384765625,-0.0115814208984375,-0.983367919921875
1738773107082069000,11.521069091796875,-0.2141571044921875,-0.012176513671875,-0.9839630126953125
1738773107092060000,11.531059814453124,-0.2131195068359375,-0.0110626220703125,-0.9835205078125
1738773107102052000,11.541052001953124,-0.2161407470703125,-0.010772705078125,-0.9832305908203125
1738773107112043000,11.55104296875,-0.214324951171875,-0.0119476318359375,-0.983856201171875
1738773107122034000,11.561033935546876,-0.2130889892578125,-0.011962890625,-0.984588623046875
1738773107132024800,11.57102490234375,-0.2147369384765625,-0.0118865966796875,-0.9843597412109375
1738773107142016000,11.58101611328125,-0.2141876220703125,-0.011627197265625,-0.98394775390625
1738773107152007000,11.5910068359375,-0.2154388427734375,-0.0115509033203125,-0.9839019775390625
1738773107161997800,11.600997802734375,-0.215606689453125,-0.0119171142578125,-0.9839630126953125
1738773107171989000,11.610989013671874,-0.21435546875,-0.0104522705078125,-0.9848480224609375
1738773107181980000,11.62097998046875,-0.213714599609375,-0.01116943359375,-0.9832611083984375
1738773107191971800,11.630971923828126,-0.2150115966796875,-0.010833740234375,-0.9833221435546875
1738773107201963000,11.640962890625,-0.21527099609375,-0.0109710693359375,-0.9836578369140625
1738773107211954000,11.650953857421875,-0.213653564453125,-0.01214599609375,-0.9853363037109375
1738773107221944800,11.66094482421875,-0.2141571044921875,-0.01153564453125,-0.9838409423828125
1738773107231936000,11.67093603515625,-0.21331787109375,-0.011138916015625,-0.9851226806640625
1738773107241927000,11.680927001953124,-0.21453857421875,-0.011260986328125,-0.98431396484375
1738773107251917800,11.690917724609376,-0.2140960693359375,-0.010406494140625,-0.984832763671875
1738773107261908700,11.70090869140625,-0.2122039794921875,-0.0120086669921875,-0.9839935302734375
1738773107271900000,11.71089990234375,-0.2163543701171875,-0.011322021484375,-0.9841461181640625
1738773107281891600,11.7208916015625,-0.21337890625,-0.011138916015625,-0.98443603515625
1738773107291882500,11.730882568359375,-0.2133026123046875,-0.0117340087890625,-0.9850921630859375
1738773107301873700,11.740873779296875,-0.216705322265625,-0.0106353759765625,-0.9836273193359375
1738773107311864600,11.750864501953124,-0.2148895263671875,-0.01068115234375,-0.9836883544921875
1738773107321855500,11.76085546875,-0.2137908935546875,-0.0112152099609375,-0.984039306640625
1738773107331846400,11.770846435546876,-0.2150115966796875,-0.0110015869140625,-0.9824676513671875
1738773107341837600,11.780837646484375,-0.213775634765625,-0.0110015869140625,-0.9842376708984375
1738773107351828500,11.790828369140625,-0.2141876220703125,-0.011505126953125,-0.9849090576171875
1738773107361819400,11.8008193359375,-0.2151336669921875,-0.0116729736328125,-0.984222412109375
1738773107371811600,11.8108115234375,-0.2146148681640625,-0.01129150390625,-0.98297119140625
1738773107381802500,11.820802490234374,-0.2146759033203125,-0.010345458984375,-0.984130859375
1738773107391793400,11.83079345703125,-0.21368408203125,-0.010223388671875,-0.982330322265625
1738773107401784600,11.84078466796875,-0.211700439453125,-0.011322021484375,-0.9835205078125
1738773107411775500,11.850775390625,-0.215362548828125,-0.0099945068359375,-0.9846343994140625
1738773107421766400,11.860766357421875,-0.2145538330078125,-0.01123046875,-0.9839630126953125
1738773107431757600,11.870757568359375,-0.2124176025390625,-0.0115509033203125,-0.98321533203125
1738773107441748700,11.880748779296875,-0.21453857421875,-0.0106201171875,-0.9837799072265625
1738773107451739600,11.89073974609375,-0.2138824462890625,-0.0103759765625,-0.9835205078125
1738773107461731600,11.900731689453124,-0.214263916015625,-0.0101776123046875,-0.984222412109375
1738773107471722500,11.910722412109376,-0.2132415771484375,-0.01025390625,-0.9848175048828125
1738773107481713400,11.92071337890625,-0.214874267578125,-0.011505126953125,-0.9846343994140625
1738773107491704600,11.93070458984375,-0.2147979736328125,-0.011322021484375,-0.9840087890625
1738773107501695700,11.94069580078125,-0.21282958984375,-0.0108184814453125,-0.9842529296875
1738773107514808600,11.95380859375,-0.2135772705078125,-0.012054443359375,-0.9838714599609375
1738773107524799500,11.963799560546875,-0.2154388427734375,-0.010833740234375,-0.9838714599609375
1738773107534790400,11.973790283203124,-0.213470458984375,-0.0110931396484375,-0.9850616455078125
1738773107544781600,11.983781494140626,-0.2148284912109375,-0.010986328125,-0.9827880859375
1738773107554773500,11.9937734375,-0.217529296875,-0.0100860595703125,-0.9836578369140625
1738773107564764400,12.003764404296875,-0.21435546875,-0.0119171142578125,-0.9830322265625
1738773107574755600,12.013755615234375,-0.2139434814453125,-0.011871337890625,-0.9839019775390625
1738773107584746500,12.02374658203125,-0.2151031494140625,-0.0105438232421875,-0.9835357666015625
1738773107594737400,12.0337373046875,-0.21478271484375,-0.0101776123046875,-0.9838104248046875
1738773107604728600,12.043728515625,-0.2132415771484375,-0.0102386474609375,-0.9854278564453125
1738773107614719700,12.0537197265625,-0.2115936279296875,-0.0108795166015625,-0.984405517578125
1738773107624710700,12.063710693359376,-0.2159271240234375,-0.010894775390625,-0.983612060546875
1738773107634701600,12.07370166015625,-0.2149810791015625,-0.0116424560546875,-0.984619140625
1738773107644693500,12.083693603515625,-0.2134246826171875,-0.0120086669921875,-0.9847259521484375
1738773107654684400,12.093684326171875,-0.212921142578125,-0.0114593505859375,-0.9835662841796875
1738773107664675600,12.103675537109375,-0.21478271484375,-0.0117950439453125,-0.9832763671875
1738773107674666800,12.113666748046874,-0.213958740234375,-0.012603759765625,-0.9837493896484375
1738773107684657700,12.12365771484375,-0.213348388671875,-0.0106964111328125,-0.9830474853515625
1738773107694648600,12.133648681640626,-0.2129364013671875,-0.00994873046875,-0.985076904296875
1738773107704639700,12.1436396484375,-0.214630126953125,-0.0102691650390625,-0.983734130859375
1738773107714630700,12.153630615234375,-0.2140045166015625,-0.0117034912109375,-0.98406982421875
1738773107724621600,12.16362158203125,-0.2146148681640625,-0.01153564453125,-0.9844512939453125
1738773107734613800,12.17361376953125,-0.213897705078125,-0.0113677978515625,-0.9840850830078125
1738773107744604700,12.183604736328125,-0.2129058837890625,-0.0123138427734375,-0.98388671875
1738773107754595600,12.193595703125,-0.2142333984375,-0.00970458984375,-0.9850006103515625
1738773107764586800,12.203586669921876,-0.2141876220703125,-0.0104217529296875,-0.98480224609375
1738773107774577700,12.21357763671875,-0.214447021484375,-0.01055908203125,-0.9837799072265625
1738773107784568600,12.223568603515625,-0.2137298583984375,-0.0098876953125,-0.9838714599609375
1738773107794559500,12.2335595703125,-0.215362548828125,-0.0110321044921875,-0.98553466796875
1738773107804550700,12.243550537109375,-0.215484619140625,-0.01171875,-0.9837799072265625
1738773107814541600,12.25354150390625,-0.2136688232421875,-0.0112457275390625,-0.9843292236328125
1738773107824533500,12.263533447265624,-0.212005615234375,-0.010498046875,-0.98480224609375
1738773107834524700,12.273524658203126,-0.215545654296875,-0.0107574462890625,-0.9841766357421875
1738773107844515600,12.283515625,-0.213958740234375,-0.0118408203125,-0.9837646484375
1738773107854506500,12.293506591796875,-0.2100372314453125,-0.010589599609375,-0.9850921630859375
1738773107865122600,12.30412255859375,-0.2156829833984375,-0.0123443603515625,-0.983428955078125
1738773107875113500,12.314113525390624,-0.21490478515625,-0.0115203857421875,-0.984832763671875
1738773107885104600,12.324104736328126,-0.2126617431640625,-0.012054443359375,-0.9843292236328125
1738773107895095600,12.334095458984375,-0.213531494140625,-0.011871337890625,-0.9844970703125
1738773107905086500,12.34408642578125,-0.2168731689453125,-0.0119171142578125,-0.983978271484375
1738773107915077600,12.35407763671875,-0.2147674560546875,-0.0113067626953125,-0.9842529296875
1738773107925068500,12.364068603515625,-0.2128753662109375,-0.011077880859375,-0.9854278564453125
1738773107935059500,12.3740595703125,-0.2154083251953125,-0.0103912353515625,-0.9849700927734375
1738773107945051600,12.3840517578125,-0.2153472900390625,-0.011505126953125,-0.9830169677734375
1738773107955042600,12.39404248046875,-0.2118988037109375,-0.0105743408203125,-0.9846038818359375
1738773107965033500,12.404033447265626,-0.2137298583984375,-0.010467529296875,-0.984039306640625
1738773107975024400,12.4140244140625,-0.21624755859375,-0.010955810546875,-0.984344482421875
1738773107985015600,12.424015625,-0.2141265869140625,-0.0093536376953125,-0.9833526611328125
1738773107995006500,12.43400634765625,-0.21466064453125,-0.0102691650390625,-0.9842071533203125
1738773108004997400,12.443997314453124,-0.215423583984375,-0.01165771484375,-0.982818603515625
1738773108014988500,12.453988525390624,-0.213134765625,-0.0110626220703125,-0.98419189453125
1738773108024979700,12.463979736328126,-0.214385986328125,-0.0114593505859375,-0.9841766357421875
1738773108034971400,12.473971435546876,-0.2137908935546875,-0.010986328125,-0.9837646484375
1738773108044962600,12.483962646484375,-0.21466064453125,-0.0118560791015625,-0.9833526611328125
1738773108054953500,12.493953369140625,-0.2143707275390625,-0.010833740234375,-0.98370361328125
1738773108064944400,12.5039443359375,-0.2129669189453125,-0.011260986328125,-0.9853057861328125
1738773108074935600,12.513935546875,-0.2137298583984375,-0.0120391845703125,-0.98541259765625
1738773108084926700,12.5239267578125,-0.215179443359375,-0.011871337890625,-0.983673095703125
1738773108094917600,12.533917724609376,-0.212982177734375,-0.011260986328125,-0.9834136962890625
1738773108104908500,12.543908447265625,-0.2167816162109375,-0.0112457275390625,-0.9833831787109375
1738773108114900500,12.553900390625,-0.2135772705078125,-0.0111236572265625,-0.9834442138671875
1738773108124891400,12.563891357421875,-0.2125091552734375,-0.0125885009765625,-0.98382568359375
1738773108134882800,12.5738828125,-0.2153472900390625,-0.010711669921875,-0.9841156005859375
1738773108144873700,12.583873779296875,-0.2150726318359375,-0.01153564453125,-0.9842681884765625
1738773108154864600,12.59386474609375,-0.2152252197265625,-0.0117645263671875,-0.983367919921875
1738773108164855600,12.60385546875,-0.21417236328125,-0.0113677978515625,-0.984588623046875
1738773108174846700,12.6138466796875,-0.21533203125,-0.0102996826171875,-0.983123779296875
1738773108184837600,12.623837646484375,-0.214141845703125,-0.011871337890625,-0.98199462890625
1738773108194828500,12.63382861328125,-0.214630126953125,-0.0111236572265625,-0.9842071533203125
1738773108204820700,12.64382080078125,-0.215789794921875,-0.0112762451171875,-0.9855804443359375
1738773108214811600,12.653811767578125,-0.2149810791015625,-0.0107269287109375,-0.983428955078125
1738773108224802600,12.663802490234374,-0.2122802734375,-0.0102691650390625,-0.984130859375
1738773108234793700,12.673793701171874,-0.214385986328125,-0.0103607177734375,-0.984039306640625
1738773108244784600,12.68378466796875,-0.2154083251953125,-0.012939453125,-0.98541259765625
1738773108254775600,12.693775634765625,-0.214080810546875,-0.010284423828125,-0.9856109619140625
1738773108264766500,12.703766357421875,-0.2133941650390625,-0.0101776123046875,-0.983795166015625
1738773108274757600,12.713757568359375,-0.214630126953125,-0.011749267578125,-0.9839630126953125
1738773108284750300,12.723750244140625,-0.2139739990234375,-0.0122528076171875,-0.982757568359375
