time,seconds_elapsed,z,y,x
1738773095587293700,0.026293701171875,0.09107523241490124,-0.013933083887677639,-0.07557517320513725
1738773095597284900,0.036284912109375,0.026458383336663244,-0.020999003685917703,-0.07371756263971328
1738773095607275800,0.04627587890625,-0.21538915595635771,-0.024180830326117574,-0.045749943783879275
1738773095617266700,0.0562666015625,-0.07248188336491584,-0.011349606733117253,-0.06970715795457362
1738773095627259000,0.0662587890625,0.07246975453570485,-0.018444496897514907,-0.07545709978342056
1738773095637249800,0.076249755859375,-0.09707155022025107,-0.014840709385043008,-0.06140110190212726
1738773095647240700,0.08624072265625,-0.14552724583148954,-0.007922235233476385,-0.05564706842005253
1738773095657232000,0.09623193359375,0.0012562836714088916,-0.015450530112767591,-0.07371873168349266
1738773095667222800,0.106222900390625,-0.01582300755381584,-0.011365900280792266,-0.0682183807015419
1738773095677213700,0.116213623046875,-0.14481003747284413,-0.005404060133779421,-0.051664136263728136
1738773095687204600,0.12620458984375,-0.04576864848434925,-0.010052223866339772,-0.0543757333099842
1738773095697195800,0.13619580078125,0.01590191800892353,-0.016719253140641377,-0.05869593459665775
1738773095707186700,0.146186767578125,-0.09414426459670067,-0.021844532865658402,-0.06383388200700282
1738773095717178600,0.1561787109375,-0.10117314032018183,-0.009275357742328197,-0.06547112782001495
1738773095727169800,0.166169677734375,-0.002176028864830732,-0.005925152265280485,-0.062463762697577474
1738773095737160700,0.17616064453125,-0.03729761112853885,-0.01710722041176632,-0.06664017159938812
1738773095747151600,0.186151611328125,-0.10957841896340251,-0.010117151461867615,-0.05343816019892692
1738773095757142800,0.196142822265625,-0.06664309420883655,-0.022899594876542684,-0.06459376046359538
1738773095767133700,0.2061337890625,-0.02616524560898542,-0.014433562489412724,-0.06467383996248245
1738773095777124600,0.21612451171875,-0.08600655084848403,-0.008355165024334565,-0.06287994228303433
1738773095787115800,0.22611572265625,-0.07701528901085257,-0.010087980166310444,-0.0587462034791708
1738773095797107700,0.236107666015625,-0.027968203377723693,-0.012657602325454353,-0.06505553275644779
1738773095807098600,0.2460986328125,-0.06740823336243629,-0.018727012766478583,-0.06363514456450939
1738773095817089800,0.25608984375,-0.09210515998452902,-0.01876455003158189,-0.05414309359788894
1738773095827080700,0.266080810546875,-0.046511283545196055,-0.01133225373951718,-0.05933832415342331
1738773095837071600,0.276071533203125,-0.0325906024813652,-0.006517519534705207,-0.06673369510173797
1738773095847062500,0.2860625,-0.06641016223579645,-0.01722040759581141,-0.059731707385182374
1738773095857053700,0.2960537109375,-0.08961115121170878,-0.022124601049209013,-0.062090837731957435
1738773095867044600,0.306044677734375,-0.061980363094806666,-0.015267309899814426,-0.05938391686081886
1738773095877036800,0.316036865234375,-0.04701075749993324,-0.001658781791385263,-0.05489478874802589
1738773095887027700,0.32602783203125,-0.05669745425581932,0.0033200843334197996,-0.05876081652641296
1738773095897018600,0.3360185546875,-0.045319735673069954,-0.0009236359172500669,-0.054721185746788976
1738773095907009500,0.346009521484375,-0.04895575408786535,-0.023124681469844654,-0.06312368791103362
1738773095917000700,0.356000732421875,-0.0888882437646389,-0.020852434822078793,-0.0535176551759243
1738773095926991600,0.36599169921875,-0.04965338096320629,-0.0038405371441040184,-0.057981064325571055
1738773095936982500,0.375982421875,-0.04855155720114707,-0.0034912579155527055,-0.054582654058933255
1738773095946973700,0.3859736328125,-0.07457447172999382,-0.015142870669392869,-0.05686228942871093
1738773095956964600,0.395964599609375,-0.0812085029169917,-0.01818913389695808,-0.053528176569938656
1738773095966956500,0.40595654296875,-0.055441901236772534,-0.004239409401733428,-0.060085927650332445
1738773095976947700,0.41594775390625,-0.050966217127442356,-0.0034794578799046574,-0.05413023411631584
1738773095986938600,0.425938720703125,-0.0759980747923255,-0.003703037502709776,-0.0629506694316864
1738773095996929500,0.435929443359375,-0.05416267508119344,0.003127511770231649,-0.060553545162081716
1738773096006920700,0.445920654296875,-0.06434358509480953,-0.006635218497086316,-0.057740241307020185
1738773096016912000,0.455911865234375,-0.0627710750810802,-0.017639820317970588,-0.07017535998821259
1738773096026902800,0.46590283203125,-0.06188683959245681,0.0030788137902971356,-0.058500119763612746
1738773096036893700,0.475893798828125,-0.04994681095182895,-0.0130332672374323,-0.06675532241165638
1738773096046885600,0.4858857421875,-0.03998188177645206,-0.017561795778851957,-0.07219254502952098
1738773096056876500,0.49587646484375,-0.08258709779381751,-0.017869236026518045,-0.05017302092313766
1738773096066867700,0.50586767578125,-0.047857437457144256,-0.01553537711831741,-0.05149228682816028
1738773096076859000,0.51585888671875,-0.03375409330278635,-0.018316724065691233,-0.05602174695134163
1738773096086849800,0.525849853515625,-0.06190773625001311,-0.014724079001741483,-0.05817571011483669
1738773096096840700,0.5358408203125,-0.07313888596892357,-0.012567439823970197,-0.062364393976330756
1738773096106832000,0.545831787109375,-0.05198781526014209,-0.0213775272752624,-0.06985738008022307
1738773096116822800,0.55582275390625,-0.05532207424938678,-0.014575016786716877,-0.06180091487467289
1738773096126814700,0.565814697265625,-0.06238192963302135,-0.001724129512021318,-0.06373977398276329
1738773096136806000,0.575805908203125,-0.06636603083312512,0.004489502572128549,-0.050584524333477016
1738773096146796800,0.585796875,-0.050427287945151326,-0.010411567831179127,-0.07502455358505249
1738773096156787700,0.59578759765625,-0.07872925332188606,-0.01232074418705888,-0.06158522629737854
1738773096166779000,0.60577880859375,-0.0764301825992763,-0.010127462793327867,-0.057523968207836146
1738773096176769800,0.615769775390625,-0.04210515754073858,-0.013188320801826194,-0.05708849940001964
1738773096186760700,0.6257607421875,-0.03374678677916527,-0.0019233784111682324,-0.06762216837406158
1738773096196751600,0.635751708984375,-0.08039894009977579,-0.015459160943794995,-0.05057049580812454
1738773096206743800,0.645743896484375,-0.06509177311360835,-0.01998733329218812,-0.060573418906331056
1738773096216734700,0.655734619140625,-0.04382598998397588,-0.012982669561356306,-0.05896306110024452
1738773096226725600,0.6657255859375,-0.06864902720376849,-0.006679770024865865,-0.06483399896025657
1738773096236716800,0.675716796875,-0.05464212916120886,-0.0042461770692374555,-0.059466918969154355
1738773096246707700,0.685707763671875,-0.04202639321610331,-0.019751853169035164,-0.06474632067680358
1738773096256698600,0.69569873046875,-0.062153819965571164,-0.008481047293171286,-0.0469558124423027
1738773096266688800,0.705688720703125,-0.06548150308355688,-0.006073611692106351,-0.05948445462584495
1738773096276679700,0.7156796875,-0.045880292165279384,-0.012794946703221647,-0.0713379740267992
1738773096286670600,0.725670654296875,-0.055607905453443525,0.0004965239458251744,-0.05703589242994785
1738773096296662800,0.735662841796875,-0.06314180808961391,-0.015986344889365137,-0.06753215200304985
1738773096306653700,0.74565380859375,-0.0647794922940433,-0.014540438663680105,-0.0639437721222639
1738773096316644600,0.75564453125,-0.048045945766568184,-0.0017160832028836012,-0.05529226363301277
1738773096326635800,0.7656357421875,-0.06257365281283855,0.0019856482587289064,-0.05113280586600304
1738773096336626700,0.775626708984375,-0.05823474682569504,-0.02091873239078559,-0.0663970104932785
1738773096346617600,0.78561767578125,-0.04844342065155506,-0.01333715468798764,-0.06626257045865058
1738773096356608500,0.7956083984375,-0.053908700320124625,-0.0015571297815069555,-0.051314592173695564
1738773096366599700,0.805599609375,-0.050716918541491025,-0.008421489992504938,-0.05791033717691898
1738773096376591600,0.815591552734375,-0.05313537786006927,-0.004830105303879827,-0.06688274818360805
1738773096386582800,0.825582763671875,-0.039269934114813804,-0.009319680941244586,-0.06136719963252544
1738773096396573700,0.83557373046875,-0.05715279680788517,-0.010356038251658902,-0.049230771636962885
1738773096406564600,0.845564697265625,-0.050831192570924756,-0.010296097358502447,-0.05297989503741264
1738773096416555500,0.855555419921875,-0.048671968710422515,0.001565861077234149,-0.06646130790114402
1738773096426546700,0.865546630859375,-0.05912672722935676,-0.010832158730272204,-0.06395370899438858
1738773096436537900,0.875537841796875,-0.05558452457785606,-0.004949028108967468,-0.056793315845727915
1738773096446528800,0.88552880859375,-0.06773717305585741,-0.008553400143329054,-0.06052841072082519
1738773096456520700,0.895520751953125,-0.05180938995331526,-0.004318886112421751,-0.06787585087418556
1738773096466511600,0.90551171875,-0.052016602963209146,0.0032086141824256625,-0.0653513008326292
1738773096476502800,0.915502685546875,-0.060217883466929197,-0.006825918763596564,-0.06401099213957787
1738773096486494000,0.925493896484375,-0.04812821722254157,-0.01252486105756834,-0.06298866335451603
1738773096496484900,0.93548486328125,-0.04964987383186817,-0.01862019139113836,-0.06660685385167599
1738773096506475800,0.945475830078125,-0.06217880827635526,-0.024777755039650944,-0.06586743366122245
1738773096516467000,0.955467041015625,-0.07085925059914588,-0.022819433179264888,-0.06242518425285816
1738773096526457900,0.965457763671875,-0.05851356376707553,-0.004741066180402413,-0.05675532192289829
1738773096536449800,0.97544970703125,-0.05919482402950525,-0.003962126830313354,-0.05605389565527439
1738773096546441000,0.98544091796875,-0.06580722790658473,-0.006020968189416453,-0.05862286936044692
1738773096556432000,0.995431884765625,-0.06121259359270334,-0.01106625974709168,-0.06534837822318076
1738773096566422800,1.0054228515625,-0.053340545043349265,-0.013572598278522491,-0.06787994252741336
1738773096576413700,1.01541357421875,-0.04567863211333752,-0.002724410862056538,-0.06283142696619033
1738773096586404900,1.02540478515625,-0.0581305557988584,-0.001213202581508085,-0.066597501501441
1738773096596395800,1.035395751953125,-0.06406169941350817,-0.016092928802687673,-0.05089782806634903
1738773096606386700,1.04538671875,-0.04369520321115851,-0.012390959879057481,-0.06619593496322632
1738773096616377900,1.0553779296875,-0.06696311994343995,-0.013406941121723501,-0.07040273900330066
1738773096626369800,1.065369873046875,-0.06288140358775854,0.006903888503788039,-0.058441083052754396
1738773096636360700,1.075360595703125,-0.045337709721177816,-0.0038657537837512787,-0.05276303741633892
1738773096646352000,1.085351806640625,-0.04301233551353216,-0.016710786706395447,-0.05667056624889374
1738773096656342800,1.0953427734375,-0.052904199452698225,-0.005926376107987016,-0.048587213036417956
1738773096666333700,1.105333740234375,-0.047420507344603534,-0.0004031374407932162,-0.07835340574681758
1738773096676324900,1.115324951171875,-0.042871027346700424,-0.009687600938184186,-0.057716275909543036
1738773096686315800,1.125315673828125,-0.05700827377066016,-0.014458057609852403,-0.0584498508810997
1738773096696306700,1.135306640625,-0.06212970843762159,-0.00744542063511908,-0.060088265737891194
1738773096706299000,1.145298828125,-0.0713959878243506,-0.0025425240896642205,-0.06906827552914618
1738773096716289800,1.155289794921875,-0.04879267248064279,-0.01219763839719817,-0.059194531768560404
1738773096726280700,1.16528076171875,-0.05107946824356913,-0.0008916242106352001,-0.06445581329762935
1738773096736271600,1.175271728515625,-0.06565320638865232,-0.008576041233399882,-0.05370119504928589
1738773096746262800,1.1852626953125,-0.051570466630905865,-0.019964016348682345,-0.06522621314823628
1738773096756253700,1.195253662109375,-0.05898921845480799,-0.005951200021989643,-0.06254559576213359
1738773096766244600,1.20524462890625,-0.05621989987194538,-0.0034775764500722286,-0.05792378118038177
1738773096776235800,1.21523583984375,-0.04601765480935573,-0.000986015362665057,-0.05841010339260101
1738773096786226700,1.225226806640625,-0.051717327755689615,-0.008481759679224342,-0.048861938324570656
1738773096796218600,1.235218505859375,-0.04762041383087635,-0.014037494110222905,-0.06874328135848044
1738773096806209800,1.245209716796875,-0.05739011269509792,-0.011598001136770472,-0.062032970064878463
1738773096816200700,1.25520068359375,-0.06740633366629481,-0.015080061965715139,-0.06012158348560333
1738773096826191600,1.265191650390625,-0.05530015467852354,-0.014297953411005437,-0.05173895506560802
1738773096836182800,1.275182861328125,-0.041731940314173696,-0.006632213689247146,-0.05415536855757236
1738773096846173700,1.285173583984375,-0.04399024063497781,-0.01038594019957818,-0.05777531262040138
1738773096856164600,1.29516455078125,-0.04948839965984225,-0.01686456162915565,-0.05359364302158355
1738773096866155500,1.305155517578125,-0.04409808492362499,-0.005320126443682238,-0.06918868703842163
1738773096876147700,1.315147705078125,-0.059088733306527134,-0.01708262482662685,-0.05365326425433158
1738773096886138600,1.325138671875,-0.06266279240101576,-0.013833148910850286,-0.06607844606339931
1738773096896129800,1.3351298828125,-0.042889878177642816,-0.00663538289386779,-0.07072071891129017
1738773096906120700,1.34512060546875,-0.05449380673170089,-0.005338219222798943,-0.04724164364635944
1738773096916111600,1.355111572265625,-0.054421326017379756,-0.010189330782089381,-0.060274728220701214
1738773096926102500,1.3651025390625,-0.05079831321462989,-0.007570846246229484,-0.06177811852097511
1738773096936093700,1.37509375,-0.04371230047643184,-0.016792245311615987,-0.0637654929459095
1738773096946084900,1.3850849609375,-0.05408230332136154,-0.006614084377512336,-0.06288987915515899
1738773096956075800,1.39507568359375,-0.05710545053482055,-0.012991017264593391,-0.05375555558502674
1738773096966067700,1.405067626953125,-0.022858020757138726,-0.02451943289702758,-0.06623568245172501
1738773096976058600,1.41505859375,-0.05758329717963934,0.0017006390385795383,-0.061028761458396905
1738773096986049500,1.425049560546875,-0.06942629518657922,-0.004536556584248319,-0.06530044742822647
1738773096996040700,1.435040771484375,-0.0290092368632555,-0.005101962781511247,-0.061712067547440526
1738773097006032000,1.445031982421875,-0.0356102425634861,-0.010856617318093776,-0.05683540142178535
1738773097016022800,1.455022705078125,-0.073078387953341,-0.021171063184039666,-0.05233458287119865
1738773097026014000,1.465013916015625,-0.05751680781468749,-0.013139531490346416,-0.05753858125507831
1738773097036004900,1.4750048828125,-0.03852349966168404,-0.010554784827306866,-0.06086041915416717
1738773097045996500,1.48499658203125,-0.04224149727150798,-0.013918379508890211,-0.05877133792042732
1738773097055987700,1.49498779296875,-0.06758695093020796,-0.018962776017421856,-0.07282558223605155
1738773097065979000,1.504978759765625,-0.03992620606645941,-0.013049551651952788,-0.06129822604954242
1738773097075969800,1.5149697265625,-0.04547039619013667,-0.010240211585955694,-0.0633908144146204
1738773097085960700,1.524960693359375,-0.059707741987705225,-0.006505874762684107,-0.04917115040421485
1738773097095952000,1.534951904296875,-0.05560936675816774,-0.003927146848477423,-0.0546025278031826
1738773097105942800,1.54494287109375,-0.06398381187170743,0.0006034366527106613,-0.06660568480789661
1738773097115933700,1.55493359375,-0.08374035948216915,-0.008726053296495229,-0.04547229588627815
1738773097125924900,1.5649248046875,-0.042252018665522334,-0.0071191752222832284,-0.06912380510866642
1738773097135916800,1.574916748046875,-0.04544394657462835,-0.004578359032515436,-0.06887772139310837
1738773097145907700,1.58490771484375,-0.06817775643020868,0.001365488800080493,-0.06289455533027649
1738773097155899000,1.59489892578125,-0.05280979916751385,-0.015658592506032437,-0.0646808542251587
1738773097165889800,1.604889892578125,-0.02694982011541724,0.006061966920085251,-0.06695113724470138
1738773097175880700,1.614880615234375,-0.05767594389915466,-0.008617925880057737,-0.05799450832903385
1738773097185872000,1.624871826171875,-0.059604281613230704,-0.0037029461711645126,-0.06069090780615806
1738773097195862800,1.63486279296875,-0.05112199221104383,-0.014432493910333142,-0.06385609383881091
1738773097205853700,1.644853759765625,-0.04211801702231169,-0.01202852890798822,-0.0643102673470974
1738773097215846000,1.654845947265625,-0.05031900526508688,-0.019452075638016684,-0.06162380474209785
1738773097225836800,1.6648369140625,-0.05219137500822544,-0.008546038820780814,-0.06223930629193782
1738773097235827700,1.67482763671875,-0.040842297998070716,-0.01358186843036674,-0.05639876357018947
1738773097245819000,1.68481884765625,-0.045208091992139814,-0.007040310432948171,-0.07000994029343127
1738773097255809800,1.694809814453125,-0.041536710003018375,-0.01488570843739435,-0.0677823273718357
1738773097265800700,1.70480078125,-0.05608721340298652,-0.013710728107579052,-0.06852233208417892
1738773097275792600,1.714792724609375,-0.04397299723923206,-0.01806570844668895,-0.07256079382002353
1738773097285783800,1.72478369140625,-0.040026013179123396,-0.011620432164287193,-0.05461655632853508
1738773097295774700,1.734774658203125,-0.0515504467561841,-0.004862171809421852,-0.051475920215249056
1738773097305766700,1.7447666015625,-0.0436390891097486,-0.011582885766029357,-0.06901216142773628
1738773097315757800,1.7547578125,-0.05040741420090198,-0.007975481524365023,-0.06287000541090965
1738773097325748700,1.764748779296875,-0.054445583675801754,-0.007831013286067173,-0.06376900007724762
1738773097335739600,1.77473974609375,-0.052529228660464285,-0.003227154486114159,-0.058823360368609426
1738773097345730800,1.784730712890625,-0.051503977265954015,-0.014170810766844079,-0.07034194872677325
1738773097355721700,1.7947216796875,-0.03730243343412876,-0.016575058896979317,-0.06139291859567165
1738773097365712600,1.804712646484375,-0.06428615581914782,-0.010723949115443974,-0.0629109219431877
1738773097375703800,1.814703857421875,-0.05578077780231833,-0.012113375913538038,-0.06081073479354381
1738773097385695700,1.82469580078125,-0.04439502204358577,0.0017307784485165029,-0.05931786588728428
1738773097395686700,1.834686767578125,-0.0520918601565063,-0.008528466631472111,-0.05622632961273193
1738773097405677800,1.844677734375,-0.062151481878012414,-0.01813421623879112,-0.059361120507121085
1738773097415668700,1.854668701171875,-0.051854690399765965,-0.0023903109363280235,-0.07192424948215484
1738773097425659600,1.86465966796875,-0.04114771068543196,-0.014746007705759257,-0.06733633717000484
1738773097435650600,1.874650634765625,-0.060227674208581446,-0.008952363732503726,-0.055231473356485365
1738773097445641700,1.884641845703125,-0.058444882445037365,0.004195013137580827,-0.06118190619349479
1738773097455632600,1.894632568359375,-0.03904752353578806,-0.005838085903180763,-0.07511807708740234
1738773097465623600,1.90462353515625,-0.05373904284164309,-0.00009219919494353235,-0.061111179044842714
1738773097475614700,1.91461474609375,-0.07524082668423653,-0.015555917582847177,-0.05573474670350551
1738773097485606700,1.924606689453125,-0.03348667453825473,-0.000714979868941009,-0.06650865417420863
1738773097495597600,1.93459765625,-0.024909400328993796,0.001854158233013004,-0.06714987468719483
1738773097505588700,1.944588623046875,-0.06312368791103362,-0.01548559229299426,-0.05774257939457893
1738773097515579600,1.95457958984375,-0.049496582966297865,0.003903848171280697,-0.05280570751428604
1738773097525570600,1.964570556640625,-0.0331590500190854,0.0021732706521637737,-0.05643441940546035
1738773097535561700,1.974561767578125,-0.03834551274627447,-0.011043865252193063,-0.057791094711422915
1738773097545552600,1.984552734375,-0.04418868581652641,-0.01370923027023673,-0.06033376493155956
1738773097555543600,1.99454345703125,-0.04308540074974298,-0.006965984821412712,-0.07321662738025188
1738773097565535700,2.00453564453125,-0.04280044632852077,-0.008632310598436742,-0.07159867078959942
1738773097575526700,2.014526611328125,-0.05789455508589744,-0.0025263858056161553,-0.06307341902852058
1738773097585517600,2.024517578125,-0.05231763173639774,0.0017178550348617135,-0.0729582687050104
1738773097595508700,2.0345087890625,-0.044674715767800806,-0.008595120393205433,-0.06925298444628715
1738773097605499600,2.044499755859375,-0.050088703640550375,-0.008431134603684767,-0.061198272806406016
1738773097615490600,2.054490478515625,-0.05000687057599425,-0.012082606315938755,-0.05699497589766979
1738773097625481700,2.064481689453125,-0.029814708027243612,-0.013853040921408682,-0.06001753858923912
1738773097635473000,2.074472900390625,-0.05245791698992252,-0.003407342491764575,-0.05210895742177963
1738773097645463800,2.0844638671875,-0.05738309843242168,0.0071804495560005305,-0.04822013328969478
1738773097655455500,2.09445556640625,-0.056903205960988995,-0.014010651769069954,-0.05705459713041782
1738773097665446700,2.10444677734375,-0.03849602713286877,-0.012871692600706591,-0.06169277832508087
1738773097675437600,2.1144375,-0.041463644766807556,-0.007886424134578556,-0.05885550907254219
1738773097685428700,2.1244287109375,-0.054926352930068964,-0.007083281924994662,-0.048830374142527576
1738773097695420000,2.134419921875,-0.05537205087095499,-0.015362623500451445,-0.06005377894639968
1738773097705410800,2.144410888671875,-0.051426820376515386,-0.005729912820970639,-0.0662006111383438
1738773097715401700,2.154401611328125,-0.05706687209010124,-0.012303071533050387,-0.07088204695284366
1738773097725392600,2.164392578125,-0.05996551614105701,-0.011314571952354162,-0.04800619827806949
1738773097735383800,2.1743837890625,-0.059026627855747936,-0.0012574801146518438,-0.06806698953211307
1738773097745375700,2.184375732421875,-0.02609203424230218,-0.004539652723632753,-0.07225976504683494
1738773097755367000,2.194366943359375,-0.03742518303096294,-0.011180223249271511,-0.06167699623405933
1738773097765357800,2.20435791015625,-0.05431888855621218,-0.006687752401921898,-0.058388476082682605
1738773097775348700,2.2143486328125,-0.03204275934025645,-0.008149020593520254,-0.059763271567225454
1738773097785339600,2.224339599609375,-0.029496143597364424,0.0036455351618118583,-0.05934650745987892
1738773097795330800,2.234330810546875,-0.06537468170821667,-0.010094318575551733,-0.06668634882867336
1738773097805321700,2.24432177734375,-0.05234948817938566,-0.0010160634410567582,-0.06055296064019203
1738773097815312600,2.254312744140625,-0.051378743451088664,-0.006347715925751254,-0.05907236669361591
1738773097825303800,2.2643037109375,-0.0464198058694601,-0.017077163200220093,-0.06012333705127239
1738773097835295700,2.274295654296875,-0.06560469107180833,-0.014360396788502112,-0.05536006817221641
1738773097845286700,2.28428662109375,-0.052109395813196895,-0.01698310997490771,-0.06823591635823249
1738773097855277800,2.29427783203125,-0.04474105900228023,-0.010372413997724652,-0.06435118387937545
1738773097865268700,2.304268798828125,-0.05096665551885962,-0.012163115073088556,-0.0642144057571888
1738773097875259600,2.314259765625,-0.06012859774827957,-0.0019117153728380799,-0.0634603725194931
1738773097885250800,2.324250732421875,-0.05167158891782164,0.0002461111150216311,-0.07571370489299296
1738773097895241700,2.33424169921875,-0.04134834782406688,-0.005727620399184525,-0.05943535478711128
1738773097905232600,2.344232666015625,-0.05308277088999748,-0.009298501155897974,-0.05975333469510078
1738773097915224800,2.354224853515625,-0.06784311764836311,-0.017761081210616973,-0.07050678389966487
1738773097925215700,2.3642158203125,-0.036002456751465794,-0.0038456060448661443,-0.05718260742425918
1738773097935206700,2.37420654296875,-0.052853053787350654,0.001828558000875637,-0.06796878985464573
1738773097945197600,2.384197509765625,-0.052234629628062246,-0.014195059292111544,-0.06285363879799842
1738773097955188700,2.394188720703125,-0.0450824197858572,-0.008985581015516072,-0.05356850858032703
1738773097965179600,2.4041796875,-0.026809096470475195,-0.001033352502575144,-0.06644201867878437
1738773097975170600,2.414170654296875,-0.05620996299982071,-0.020024897956755012,-0.06373334424197673
1738773097985161700,2.42416162109375,-0.03424465329870582,-0.016002948964294047,-0.07513093656897545
1738773097995152600,2.434152587890625,-0.04527341231331229,-0.010489026114717125,-0.06993629053533076
1738773098005144600,2.44414453125,-0.050279988428950304,-0.02188367756595835,-0.0651332741677761
1738773098015135700,2.4541357421875,-0.04028641768097877,-0.007304843120649457,-0.06796820533275603
1738773098025126700,2.464126708984375,-0.042366584955900906,0.0002606693633366376,-0.06303425606191158
1738773098035117600,2.47411767578125,-0.043138884502649306,0.0007408175630960613,-0.06785013191103935
1738773098045108700,2.484108642578125,-0.04269625530168414,-0.01444669596562162,-0.06425824489891528
1738773098055099600,2.494099609375,-0.04792085808217525,-0.0030191834243945776,-0.056929509446024894
1738773098065090600,2.504090576171875,-0.04217442338466644,-0.00346094497567974,-0.06933014133572578
1738773098075081500,2.51408154296875,-0.031156185764074324,-0.013926562815345824,-0.0768318952679634
1738773098085072600,2.52407275390625,-0.05575988114476203,-0.011521255239285528,-0.0655956309825182
1738773098095064600,2.534064697265625,-0.04942702486142516,-0.004851814812188967,-0.06662263594269752
1738773098105055700,2.5440556640625,-0.02801774160787463,0.0033769199540372935,-0.06950023720562458
1738773098115046700,2.554046630859375,-0.042431028494238854,-0.0056426820620894425,-0.06129121178686618
1738773098125037600,2.56403759765625,-0.05952990120276808,-0.02141784101934172,-0.0594867927134037
1738773098135028500,2.574028564453125,-0.035983752050995826,-0.008717532063322141,-0.06742869162857532
1738773098145019600,2.58401953125,-0.052692894789576526,-0.0021998663981445134,-0.056548401173949235
1738773098155010800,2.5940107421875,-0.07263648940473795,-0.0007856065528932958,-0.05462766224443912
1738773098165001700,2.604001708984375,-0.048097675953805444,-0.018851534195290877,-0.06435410648882389
1738773098174993000,2.613992919921875,-0.04956804076731205,-0.006847600872442126,-0.0550818357527256
1738773098184984600,2.623984619140625,-0.0385205770522356,-0.011070524930255487,-0.06004618016183376
1738773098194975500,2.6339755859375,-0.052422261154651636,-0.005549085494503379,-0.06349193670153618
1738773098204966700,2.643966552734375,-0.04406476717591285,-0.008931722803274169,-0.06797697316110134
1738773098214957800,2.653957763671875,-0.026214053186774253,-0.006795240497542545,-0.07367372349798679
1738773098224948700,2.66394873046875,-0.034652211186289784,-0.02014968424704857,-0.0638180999159813
1738773098234940000,2.67393994140625,-0.07338847681581974,-0.014796541449753566,-0.05843523783385753
1738773098244930800,2.683930908203125,-0.04617196858823299,-0.021917771631805225,-0.0646849458783865
1738773098254921700,2.693921630859375,-0.038806992778182024,-0.011944750481517984,-0.06499065082669257
1738773098264912600,2.70391259765625,-0.05967325519621372,-0.00417161399568431,-0.063330024138093
1738773098274904000,2.713904052734375,-0.03345511035621166,-0.012398412533150984,-0.06228899065256118
1738773098284895000,2.72389501953125,-0.01289075349420309,-0.011240529468609019,-0.05781389106512069
1738773098294886000,2.733885986328125,-0.03595788695737719,-0.005366979526402429,-0.06726794810891151
1738773098304877000,2.743876953125,-0.06164060974642634,-0.008347018250497058,-0.05871873095035553
1738773098314868000,2.753867919921875,-0.03938070101290941,-0.010062060273764654,-0.057364978253841396
1738773098324859000,2.76385888671875,-0.031237142045795915,-0.01619275418166071,-0.06522445958256722
1738773098334849800,2.773849853515625,-0.06394757151454687,-0.010222374535165727,-0.05745557914674282
1738773098344841000,2.783841064453125,-0.05742343044281006,-0.0019363200911320744,-0.05905483103692531
1738773098354832000,2.793831787109375,-0.02084580415189266,-0.014894686328293754,-0.056526189342141146
1738773098364824000,2.803823974609375,-0.04385843094885349,-0.013591102049592881,-0.06539338640868664
1738773098374815000,2.81381494140625,-0.07157938156723975,-0.005794712552335113,-0.0680786799699068
1738773098384806000,2.823805908203125,-0.04027998794019222,-0.013085088756214827,-0.06326455768644809
1738773098394796800,2.833796875,-0.03456204868480563,-0.01017353042475879,-0.06255553263425827
1738773098404788000,2.8437880859375,-0.0645256636634469,-0.010714450634736567,-0.05255553214550018
1738773098414779000,2.85377880859375,-0.06797755768299102,0.005472266531782224,-0.05210369672477245
1738773098424769800,2.863769775390625,-0.03827624690234661,-0.010337872407305986,-0.05148994874060154
1738773098434761000,2.873760986328125,-0.049666824966669076,-0.005341105299629271,-0.07501169410347938
1738773098444752000,2.883751953125,-0.06420476114600897,-0.005438811786752194,-0.05675181479156017
1738773098454743800,2.893743896484375,-0.03236468477100134,-0.000009772475343197584,-0.06422668071687221
1738773098464735000,2.90373486328125,-0.02350815522894263,-0.006110445704311132,-0.06112111591696739
1738773098474726000,2.913725830078125,-0.06954349182546138,0.006891476546786725,-0.06876432414650917
1738773098484716800,2.923716796875,-0.05050546774789691,-0.0018277268838137388,-0.06140636259913444
1738773098494708000,2.9337080078125,-0.03682604809403419,-0.025593126543145626,-0.05184299996197223
1738773098504699000,2.943698974609375,-0.053044776967167855,-0.00873979869405739,-0.052312371039390564
1738773098514690000,2.95368994140625,-0.059466918969154355,0.0037596265281550586,-0.06395604708194733
1738773098524681000,2.963680908203125,-0.036947920908033845,-0.005906940755154937,-0.06786299139261245
1738773098534672100,2.973672119140625,-0.03661825056225061,-0.0049789574563503265,-0.0533867222726345
1738773098544663800,2.983663818359375,-0.05902326685488224,-0.004410783913265913,-0.056986792591214176
1738773098554654700,2.99365478515625,-0.04841828621029853,0.004874684231122956,-0.06356617098152637
1738773098564646000,3.00364599609375,-0.04072100970596075,-0.0025075349746737628,-0.060737085035443304
1738773098574637000,3.013636962890625,-0.04136252247989178,-0.008464899875968695,-0.05896481466591358
1738773098584628000,3.0236279296875,-0.05599368990063667,-0.01052051723152399,-0.058224225431680675
1738773098594619100,3.033619140625,-0.049020343756675716,-0.005874782918067649,-0.06255027193725109
1738773098604610000,3.043610107421875,-0.039276363855600356,-0.009741322153108195,-0.06423311045765877
1738773098614601000,3.05360107421875,-0.04141191457957029,-0.012004545244202016,-0.06575286737084389
1738773098624592000,3.063591796875,-0.04865881696790456,-0.006302963468572125,-0.05840659626126289
1738773098634584000,3.073583984375,-0.0432306544393301,-0.013828436203114688,-0.06021043081283569
1738773098644575000,3.083574951171875,-0.034955870307981966,-0.016713490120135246,-0.05875730939507484
1738773098654566100,3.093566162109375,-0.050120998474955554,-0.011894061473896727,-0.06607844606339931
1738773098664557000,3.10355712890625,-0.055552375873923296,-0.0072851885721087455,-0.06053133333027363
1738773098674548000,3.1135478515625,-0.036134850959479804,-0.016984781342186034,-0.0698345837265253
1738773098684539000,3.123538818359375,-0.05165010773837566,-0.007334535006014629,-0.060118660876154896
1738773098694530000,3.133530029296875,-0.04314589876532554,-0.007098397295735776,-0.06729717420339584
1738773098704521000,3.14352099609375,-0.03430822005420923,-0.014124085548287257,-0.05655716900229454
1738773098714512000,3.153511962890625,-0.05064823721945286,-0.00007200579028576612,-0.0661614481717348
1738773098724504000,3.163504150390625,-0.07579027726054191,0.005520900579635054,-0.06825579010248184
1738773098734495000,3.173494873046875,-0.050721886977553365,-0.017890224015619606,-0.053875382572412485
1738773098744486000,3.18348583984375,-0.029592005187273025,-0.018550213161157444,-0.06771218474507332
1738773098754477000,3.19347705078125,-0.061115855219960206,-0.004329307041736319,-0.06637596770524978
1738773098764468000,3.203468017578125,-0.04425356774628162,-0.006883959960611537,-0.0642705198585987
1738773098774459000,3.213458984375,-0.019485913975536822,-0.011479498456791042,-0.05698796163499355
1738773098784450000,3.223449951171875,-0.037324937526881694,-0.011875539436517283,-0.06015607027709484
1738773098794441000,3.23344091796875,-0.044131402671337125,-0.011055473491596057,-0.058975336059927934
1738773098804432000,3.243431884765625,-0.05642535931617021,-0.0019847258101217445,-0.06435936718583106
1738773098814424000,3.253424072265625,-0.042435704669356346,-0.0071454969736281775,-0.05931903493106365
1738773098824415000,3.2634150390625,-0.06463292343020438,-0.008500774906948208,-0.05452186378240585
1738773098834406000,3.273406005859375,-0.046832478323578834,0.005555186441726982,-0.06705752022862434
1738773098844396800,3.283396728515625,-0.007860650372505187,-0.007169069645460695,-0.07443594004213809
1738773098854388000,3.293387939453125,-0.047682811542600394,-0.017365232027135788,-0.06922668096125126
1738773098864379000,3.30337890625,-0.04568389281034469,-0.017923998421058056,-0.0531949990928173
1738773098874369800,3.313369873046875,-0.03046761897802353,0.0030578988664317873,-0.079372811922431
1738773098884361000,3.32336083984375,-0.05433130964636802,0.0013038491401821373,-0.06577215659320354
1738773098894352000,3.333351806640625,-0.04165712151229381,-0.006610723376646637,-0.06878770502209663
1738773098904343800,3.34334375,-0.053882981356978416,-0.007074249235168099,-0.0643096828252077
1738773098914335000,3.3533349609375,-0.04001271530613303,-0.013574845034535973,-0.07046762093305588
1738773098924326000,3.363325927734375,-0.0412513171903789,-0.0036138887813780456,-0.057740825828909874
1738773098934316800,3.37331689453125,-0.03441299560293555,0.009181980370450765,-0.06060732117593288
1738773098944308000,3.383307861328125,-0.04454816677868366,0.0023419143504928796,-0.060498600104451176
1738773098954299000,3.393298828125,-0.045002048026025296,-0.0034292255300097164,-0.06169511641263961
1738773098964289800,3.403289794921875,-0.04465031197890639,-0.009193789539253339,-0.05572013365626335
1738773098974281000,3.413281005859375,-0.05958616143465042,-0.008846108612744137,-0.06216156488060951
1738773098984272100,3.423272216796875,-0.03665405252799391,0.0011168295349460095,-0.07114858893454075
1738773098994263800,3.433263916015625,-0.030339024162292477,-0.009567335559381171,-0.060413844430446624
1738773099004255000,3.4432548828125,-0.03180675862729549,-0.006834111203206703,-0.05129296486377716
1738773099014246000,3.453245849609375,-0.03729717273712158,-0.002313373242598027,-0.060249009257555004
1738773099024236800,3.46323681640625,-0.031113515666127203,0.0034308786309789866,-0.06415069287121296
1738773099034228000,3.47322802734375,-0.03965571856200695,-0.015646628073602915,-0.0605892009973526
1738773099044219100,3.48321923828125,-0.050962125474214554,-0.007522129999985918,-0.04731880053579807
1738773099054210000,3.4932099609375,-0.05087488558217883,-0.024140589647274464,-0.0597264466881752
1738773099064201000,3.503200927734375,-0.03601823884248733,-0.005015106481965631,-0.05629588771760463
1738773099074192100,3.513192138671875,-0.04557517173886299,0.013395131952920927,-0.05869359650909901
1738773099084183800,3.523183837890625,-0.04427753314375877,-0.008886879014549777,-0.0569201570957899
1738773099094175000,3.533175048828125,-0.03686404201686382,-0.008385587562061847,-0.059930444827675816
1738773099104166100,3.543166259765625,-0.04886398415118456,-0.000054689329303801056,-0.05813070192933082
1738773099114157000,3.553156982421875,-0.03474690373241901,0.004190967150125653,-0.05290449171364307
1738773099124148000,3.56314794921875,-0.04905307698249817,0.004531323286704718,-0.07449556127488613
1738773099134139100,3.57313916015625,-0.04870177932679653,0.009016743338759988,-0.06433306370079517
1738773099144130000,3.583130126953125,-0.03801175074726343,0.0010335899645928293,-0.07482172448933123
1738773099154121000,3.593120849609375,-0.05013531926125288,-0.00827939637438394,-0.07230886488556862
1738773099164112000,3.60311181640625,-0.05370850157290697,-0.005612022062344476,-0.067673606300354
1738773099174104000,3.61310400390625,-0.03509264843016863,-0.008189590065926313,-0.07591653398871422
1738773099184095000,3.623094970703125,-0.04263970280885696,-0.01427415241030976,-0.06037234337627887
1738773099194086000,3.6330859375,-0.03488105150610208,-0.008804351830249652,-0.05591010327041149
1738773099204077000,3.6430771484375,-0.04509206439703703,0.0023423527419101447,-0.06742576901912689
1738773099214068000,3.65306787109375,-0.03539280042052269,0.0024216467895079403,-0.058142392367124554
1738773099224059000,3.663058837890625,-0.04469648920819163,-0.0004998118814546615,-0.0761263773471117
1738773099234050000,3.673050048828125,-0.0485571101590991,-0.0024839714359957722,-0.06476210276782512
1738773099244041000,3.683041015625,-0.0388864877551794,0.007115110968519002,-0.0479576829612255
1738773099254032000,3.693031982421875,-0.01480813142284751,-0.003462269283086061,-0.06713993781507015
1738773099264024000,3.703024169921875,-0.052660746085643764,0.005854361184546724,-0.069268182015419
1738773099274015700,3.713015625,-0.056122576977312565,-0.0009525240850169211,-0.04888298111259937
1738773099284006700,3.723006591796875,-0.020030396115779874,-0.01074890089360997,-0.07154781738519668
1738773099293997800,3.732997802734375,-0.05357829932197928,-0.009576989303715526,-0.06876198605895043
1738773099303988700,3.74298876953125,-0.0710328536003828,0.011177757297549397,-0.04398644124269485
1738773099313979600,3.752979736328125,-0.0009432721994817256,0.007919285224564372,-0.07213175475299358
1738773099323970800,3.762970703125,-0.02130392318293452,-0.00023822920266538858,-0.05968903728723526
1738773099333961700,3.772961669921875,-0.11101751185581088,-0.019498535995092242,-0.05574994427263737
1738773099343952600,3.78295263671875,-0.05399988573491573,-0.01022006384707056,-0.06250584827363491
1738773099353944800,3.79294482421875,0.020406828212738037,-0.002836702996958047,-0.06497253064811229
1738773099363935700,3.802935791015625,-0.048441667085886,-0.0013081965217366814,-0.07542319751381873
1738773099373926700,3.8129267578125,-0.09798048175871371,-0.011067474456643685,-0.05048457109034061
1738773099383917800,3.822917724609375,-0.032353871116042134,-0.0038863855798263102,-0.06656769088506698
1738773099393908700,3.83290869140625,0.007342763978242873,0.00027071583331562574,-0.07403729611337184
1738773099403899600,3.842899658203125,-0.06971417221724986,0.009528638383653015,-0.07332242584228515
1738773099413890600,3.852890625,-0.06937894891351461,-0.004114513513585553,-0.054797173592448234
1738773099423881700,3.8628818359375,0.0041238019317388535,-0.019904413382243365,-0.05513619628846645
1738773099433872600,3.87287255859375,-0.031278058578073975,-0.004273403002880514,-0.044889527562260625
1738773099443864600,3.882864501953125,-0.06959872914403677,-0.006325339697161689,-0.07265548636615275
1738773099453855700,3.892855712890625,-0.021473580661416053,-0.0008527535049710422,-0.059443538093566894
1738773099463846700,3.9028466796875,-0.0012289572730660439,-0.00905600677006878,-0.05383095890879631
1738773099473837600,3.912837646484375,-0.07489522811695933,-0.004880154990684241,-0.0674386285007
1738773099483828700,3.922828857421875,-0.05836962525174021,0.002363432062556967,-0.057927872833609576
1738773099493819600,3.932819580078125,-0.00255669874548912,-0.007251514631370082,-0.06454290705919265
1738773099503810600,3.942810546875,-0.03275543765425682,0.008119483971782028,-0.07344166830778122
1738773099515674600,3.954674560546875,-0.06481923978254199,0.0006096471977885812,-0.06424070924222469
1738773099525665800,3.964665771484375,-0.010875322018563748,-0.00037671522474847733,-0.06272913563549518
1738773099535657700,3.97465771484375,-0.026810703905671834,0.0020225005372427403,-0.059335401543974875
1738773099545649000,3.98464892578125,-0.06790916862189769,-0.0027034959381911903,-0.06739362031519412
1738773099555639800,3.994639892578125,-0.05037321967035532,-0.018555967048509047,-0.06183189453482627
1738773099565630700,4.004630615234375,-0.016693945169448852,-0.01134733257764019,-0.07039572474062443
1738773099575621600,4.01462158203125,-0.04696048861742019,0.010277045598160475,-0.07397709035873412
1738773099585612800,4.02461279296875,-0.058542643731087446,-0.003640767655149102,-0.0585194089859724
1738773099595603700,4.034603759765625,-0.027751930278539658,-0.013219939782796427,-0.06318272462189198
1738773099605594600,4.0445947265625,-0.04090542636215687,-0.008127612479310483,-0.06366670874655246
1738773099615585800,4.054585693359375,-0.04797434183508158,-0.007476290697418153,-0.05797405006289482
1738773099625577700,4.06457763671875,-0.023976503393054006,-0.001238154359674081,-0.06083002401590347
1738773099635568600,4.074568603515625,-0.03666822718381881,-0.005237763656163588,-0.05652911195158958
1738773099645559800,4.084559814453125,-0.041675826212763785,-0.015370688075898213,-0.05561725780367851
1738773099655550700,4.09455078125,-0.029778321539610624,-0.004269941537315026,-0.06876958484351635
1738773099665541600,4.104541748046875,-0.04787263502627611,0.005032824801746756,-0.07134849542081356
1738773099675532500,4.114532470703125,-0.04768982580527663,-0.004251154638454318,-0.06207797825038433
1738773099685523700,4.124523681640625,-0.0439341265335679,0.0009881707871332763,-0.07165770750045776
1738773099695514600,4.1345146484375,-0.03972162340506911,-0.00014067797916941343,-0.0613385580599308
1738773099705505500,4.144505615234375,-0.0443188880674541,-0.00930447423895821,-0.059551090121269225
1738773099715497700,4.154497802734375,-0.04590016590952873,-0.0031858908939640966,-0.06270692380368709
1738773099725488600,4.164488525390625,-0.04279197076112032,0.0018614190908614544,-0.060008186239004134
1738773099735479600,4.1744794921875,-0.036171968099474906,-0.00345929187471047,-0.06570259848833084
1738773099745470700,4.184470703125,-0.04128390428572893,-0.013066639784071594,-0.06154138715565204
1738773099755461600,4.194461669921875,-0.03554740646034479,0.004149922753684222,-0.06963233915269375
1738773099765452500,4.20445263671875,-0.03744154964387417,0.007971097610192372,-0.05438099400699138
1738773099775443700,4.214443603515625,-0.03752630531787872,0.0010188125205691904,-0.06864215907156467
1738773099785434600,4.2244345703125,-0.06026391456574201,0.00768126608445309,-0.04922200380861759
1738773099795425500,4.234425537109375,-0.04753945754915476,0.000906995309703052,-0.058200844556093215
1738773099805417700,4.244417724609375,-0.032187136247009036,-0.009500097275758162,-0.07527940512895584
1738773099815408600,4.25440869140625,-0.02641790519580245,0.005081915507325902,-0.07230360418856144
1738773099825399600,4.264399658203125,-0.035602059257030486,-0.014558796304278076,-0.05538169548213481
1738773099835390700,4.274390625,-0.019283961662650107,-0.0012993647613096981,-0.062567223072052
1738773099845381600,4.284381591796875,-0.03817804722487926,0.012211246797442435,-0.05196750312447548
1738773099855372500,4.29437255859375,-0.04083382243067026,0.0008019183668773621,-0.06409516329169274
1738773099865988600,4.304988525390625,-0.03246083862185478,-0.0075047952726949,-0.07112754614651202
1738773099875979800,4.314979736328125,-0.04504617942869663,-0.012028044850798322,-0.06708557727932929
1738773099885970700,4.324970703125,-0.0419648722872138,-0.007692609462374821,-0.059921676999330514
1738773099895961900,4.3349619140625,-0.02202186219394207,-0.009943995985202491,-0.06920856078267097
1738773099905952800,4.344952880859375,-0.0365621364608407,0.0016926383952144532,-0.07099778228700161
1738773099915944700,4.35494482421875,-0.03406827381849289,-0.007517262028623372,-0.07311492057144642
1738773099925935900,4.364935791015625,-0.039320787519216534,-0.0034613651007879523,-0.06667699647843837
1738773099935926800,4.3749267578125,-0.043325054724514485,-0.003273295182781294,-0.056959904584288595
1738773099945917700,4.384917724609375,-0.04009060284793377,-0.003458743885438889,-0.05308978515267372
1738773099955908900,4.394908935546875,-0.04082826947271823,-0.0068489160466939205,-0.06476385633349419
1738773099965899800,4.404899658203125,-0.04301438134014606,0.002958530145185068,-0.0595084200233221
1738773099975890700,4.414890625,-0.03729249656200409,-0.0060428877602797,-0.06176058286428451
1738773099985881900,4.4248818359375,-0.03897401990815997,-0.009431790413055568,-0.06732172412276267
1738773099995872800,4.434872802734375,-0.04428264771029353,0.00807267655483447,-0.06595978811979293
1738773100005864700,4.44486474609375,-0.0232318225055933,0.0005091094327624887,-0.0625409195870161
1738773100015855900,4.45485595703125,-0.03323299203813076,0.005058890824764966,-0.06676876641511917
1738773100025846800,4.4648466796875,-0.0375640069797635,-0.0003998495051637292,-0.05932137301862239
1738773100035837700,4.474837646484375,-0.046424189783632754,-0.0035879780219867825,-0.0660480509251356
1738773100045828600,4.48482861328125,-0.03961597107350826,-0.0017638496010564267,-0.06321954950094223
1738773100055819800,4.49481982421875,-0.05321063505336642,0.005082481762906536,-0.05802022729218006
1738773100065810700,4.504810791015625,-0.05383914221525192,-0.00500271279127337,-0.05098199921846389
1738773100075801600,4.514801513671875,-0.02509688572511077,0.0008915054796263575,-0.052631519991159434
1738773100085792800,4.524792724609375,-0.022520459365844726,0.010453288081055506,-0.06430909830331802
1738773100095784700,4.53478466796875,-0.030736206786334513,-0.006076379037927836,-0.06206979494392872
1738773100105775600,4.544775634765625,-0.03217325385212898,-0.015210949203232302,-0.06297931100428104
1738773100115766800,4.554766845703125,-0.03372486720830202,-0.0002893383353948593,-0.07141162378489971
1738773100125757700,4.5647578125,-0.06294687003940344,-0.004903983390843495,-0.06990589539706707
1738773100135748600,4.57474853515625,-0.03735255618616938,-0.004072528402227908,-0.0588029021024704
1738773100145739800,4.58473974609375,-0.024052783499658108,-0.005339497864432633,-0.06661386811435223
1738773100155730700,4.594730712890625,-0.04794774608910084,-0.004222467400087043,-0.04762041383087635
1738773100165721600,4.6047216796875,-0.05840425817370414,-0.006388331063929945,-0.06554945375323296
1738773100175713800,4.6147138671875,-0.024690789142251014,0.0022006427162792534,-0.07708207063674927
1738773100185704700,4.62470458984375,-0.02151975789070129,0.012701121806772426,-0.0705360099941492
1738773100195695600,4.634695556640625,-0.039787528248131275,-0.0017142839714419096,-0.060657590058445926
1738773100205686800,4.644686767578125,-0.04655395364314317,0.0025705446077510714,-0.06038286477029323
1738773100215677700,4.654677734375,-0.062382514154911035,-0.0008704626915976405,-0.05709726722836494
1738773100225668600,4.664668701171875,-0.03341682417243719,-0.007784370265901088,-0.06800853734314441
1738773100235659500,4.674659423828125,-0.02145136882960796,-0.0034213162181898947,-0.05214636682271957
1738773100245650700,4.684650634765625,-0.03993716585189104,0.0005124704336281865,-0.0698176325917244
1738773100255641600,4.6946416015625,-0.0241357856079936,-0.015374578799726441,-0.06606266397237777
1738773100265633500,4.704633544921875,-0.02902604186758399,0.007652423582458868,-0.061135144442319864
1738773100275624000,4.7146240234375,-0.04493424348682165,0.0027931287167128173,-0.05816343515515327
1738773100285614800,4.72461474609375,-0.037411154505610465,-0.003615578414965421,-0.08151625369191169
1738773100295606000,4.73460595703125,-0.050386225282400846,0.004732636278774589,-0.054440615239739414
1738773100305597200,4.74459716796875,-0.0481007446937263,-0.014663425722531974,-0.06088321550786495
1738773100315588000,4.754588134765625,-0.017219722609221933,0.0000526252363808453,-0.07331541157960891
1738773100325579000,4.7645791015625,-0.049836190184205764,0.0007117101996205747,-0.05999941841065883
1738773100335570200,4.774570068359375,-0.025971184341609478,-0.008717595995403825,-0.07063947036862372
1738773100345561000,4.78456103515625,-0.018363339686393736,-0.01701115789245814,-0.064680269703269
1738773100355553000,4.794552978515625,-0.04772855038046837,-0.010492679376527666,-0.060332011365890496
1738773100365544200,4.804544189453125,-0.038458617731928824,0.005909790299367159,-0.05988251403272152
1738773100375535000,4.81453515625,-0.018420622831583022,-0.014439690836099906,-0.06320376740992069
1738773100385526000,4.824526123046875,-0.04983545953184366,-0.0021292123147286473,-0.060064300340414045
1738773100395517000,4.834516845703125,-0.047350072456896306,0.0012975655298680065,-0.07022679791450501
1738773100405508000,4.844508056640625,-0.022418168035149573,-0.002417838264070451,-0.05588087717592716
1738773100415499000,4.8544990234375,-0.049883390326797956,0.006789203482400625,-0.05963818388283253
1738773100425490000,4.864489990234375,-0.056492287072539324,0.0038158958931919186,-0.06920914530456065
1738773100435481000,4.874481201171875,-0.02831599390208721,0.0027680308080744,-0.062335167881846426
1738773100445473000,4.88447314453125,-0.032979017277061935,-0.003843286223616451,-0.052636196166276926
1738773100455464000,4.8944638671875,-0.04058423158377409,-0.015369016708619891,-0.06670797613859177
1738773100465455000,4.904455078125,-0.05208645332902669,-0.0026922256255056706,-0.06731003368496895
1738773100475446000,4.914446044921875,-0.038259149637073275,-0.0064563821983058,-0.07196165888309479
1738773100485437000,4.92443701171875,-0.03768544140234589,-0.013329254509322345,-0.07992050893306732
1738773100495428000,4.934427978515625,-0.04570610464215279,0.0010358915195334702,-0.06856149505078792
1738773100505419000,4.9444189453125,-0.032117724272608755,-0.005362440348602831,-0.06675999858677387
1738773100515410000,4.954409912109375,-0.014041092573106288,-0.01117639645752497,-0.061548985940217966
1738773100525402000,4.964402099609375,-0.049355713190883395,0.0009696487497538327,-0.06050152271389961
1738773100535393000,4.97439306640625,-0.03223813578188419,-0.005674319309368729,-0.0696428605467081
1738773100545384000,4.984384033203125,-0.04176511193141341,-0.004855130147282034,-0.06336977162659167
1738773100555375000,4.994375,-0.04587736955583095,0.005135070466669276,-0.061709144937992094
1738773100565366000,5.004365966796875,-0.04098375229537487,0.002684672506712377,-0.06065349840521812
1738773100575357000,5.01435693359375,-0.033117841225862504,-0.0014675244024489073,-0.05962473987936973
1738773100585347800,5.024347900390625,-0.03028349458277225,-0.009403979957522823,-0.0629155981183052
1738773100595339000,5.034339111328125,-0.03598842822611332,0.000018850830942392348,-0.07488309928774833
1738773100605330000,5.044329833984375,-0.030505028378963468,0.006538516656961291,-0.073856094327569
1738773100615321900,5.05432177734375,-0.04088555261790752,-0.006106080056447536,-0.057681789118051524
1738773100625313000,5.06431298828125,-0.03834799696430564,-0.015238111204793675,-0.053041854357719416
1738773100635304000,5.074303955078125,-0.0335917423479259,-0.009330613327212632,-0.05576163471043109
1738773100645294800,5.084294921875,-0.03322773134112358,0.005526727532222867,-0.060714288681745526
1738773100655286000,5.0942861328125,-0.03532733396887779,0.007937186207436026,-0.07672434324026108
1738773100665277000,5.10427685546875,-0.02320727258622646,-0.005251728249434382,-0.053532268223166465
1738773100675267800,5.114267822265625,-0.04315627402886748,0.0025945374046918005,-0.057144028979539865
1738773100685259000,5.124259033203125,-0.027397710013389587,-0.0037690793430898337,-0.07690554502606392
1738773100695250000,5.13425,-0.044994156980514524,-0.008989097280008717,-0.06686112087368964
1738773100705241900,5.144241943359375,-0.039260435634106396,-0.005108602584851905,-0.05789280152022838
1738773100715233000,5.15423291015625,-0.020731822383403778,-0.006709945967420935,-0.05836860233843326
1738773100725224000,5.164223876953125,-0.038210049798339606,-0.0028729707535821943,-0.061518590801954265
1738773100735214800,5.17421484375,-0.03794233877286315,0.00789439737848006,-0.06629997985959053
1738773100745205800,5.184205810546875,-0.02348404370099306,0.0011959135199896991,-0.06661971333324909
1738773100755197000,5.194197021484375,-0.029051322439312934,0.0007963380094617604,-0.06754150435328483
1738773100765188000,5.20418798828125,-0.04073518436178565,-0.014893014961015432,-0.0543716416567564
1738773100775179000,5.214178955078125,-0.03321136472821235,-0.0016849026133306324,-0.05378244359195232
1738773100785170200,5.224170166015625,-0.021608459087461233,-0.00477112339194864,-0.059337155109643935
1738773100795161900,5.234161865234375,-0.0315482538215816,-0.009242788913287222,-0.06758592801690101
1738773100805152800,5.24415283203125,-0.05521802935302257,0.0025742800679523494,-0.06264204187393188
1738773100815144000,5.25414404296875,-0.03694645960330963,-0.0003390592286363244,-0.06967910090386867
1738773100825135000,5.264135009765625,-0.031790976536273954,-0.0007931779379956424,-0.0602665449142456
1738773100835126000,5.2741259765625,-0.039377486142516134,0.0008845551490318029,-0.0664104544967413
1738773100845117200,5.2841171875,-0.04019698583185673,0.00487630079947412,-0.06343348451256751
1738773100855108000,5.294108154296875,-0.04505845438838005,-0.004958270861348137,-0.07104980473518371
1738773100865099000,5.30409912109375,-0.030693682818859813,-0.00811675315857865,-0.0637175621509552
1738773100875091200,5.31409130859375,-0.043120033671706914,0.0011236428682226687,-0.07302548872232437
1738773100885082000,5.32408203125,-0.04062894750833511,-0.004511842268100008,-0.05883154367506504
1738773100895073000,5.334072998046875,-0.039923429587483406,0.0027109851249027994,-0.05927168865799903
1738773100905064200,5.344064208984375,-0.03928030937835574,-0.001727600110741332,-0.061675827190279954
1738773100915055000,5.35405517578125,-0.03758972594290971,0.0045945338491816074,-0.06482815374135971
1738773100925046000,5.3640458984375,-0.03845671803578734,0.007642459310870617,-0.0802478411912918
1738773100935037000,5.374036865234375,-0.035144963139295576,-0.0000021462913136929274,-0.06888005948066711
1738773100945028000,5.384028076171875,-0.039095015939325094,-0.003223967015184462,-0.05483224490582943
1738773100955019000,5.39401904296875,-0.03286825037896633,0.0009701054074801504,-0.06532733543515205
1738773100965011000,5.404010986328125,-0.02973550531119108,0.00529610624727793,-0.07313830144703387
1738773100975002000,5.414002197265625,-0.027601123631000517,-0.008710545200109481,-0.06345277373492718
1738773100984993000,5.423992919921875,-0.0487859504789114,0.005542902348889038,-0.06552958000898361
1738773100994984000,5.43398388671875,-0.0386360201254487,-0.009077177422260866,-0.06402852779626846
1738773101004975000,5.44397509765625,-0.02123451120853424,-0.013473119959421456,-0.05688625482618809
1738773101014966000,5.453966064453125,-0.05191109676212072,-0.023527280054520813,-0.0627542700767517
1738773101024957000,5.46395703125,-0.062222647418081756,-0.005245234576566144,-0.06077975513339042
1738773101034947800,5.47394775390625,-0.031740123131871224,0.012967161464970558,-0.063281508821249
1738773101044939000,5.48393896484375,-0.01168342353105545,-0.0007255377955734729,-0.05885843168199062
1738773101054931000,5.493930908203125,-0.03815934252440929,-0.009448211824893952,-0.07265899349749087
1738773101064922000,5.503922119140625,-0.038569969151914116,0.002478665073215961,-0.06305822145938873
1738773101074913000,5.5139130859375,-0.02300210540294647,-0.003801812568912282,-0.0711719698101282
1738773101084904000,5.523904052734375,-0.043964521671831604,-0.006902390666445717,-0.06802958013117313
1738773101094894800,5.533894775390625,-0.0300374108672142,-0.002230836925143376,-0.0706926618605852
1738773101104886000,5.543885986328125,-0.021508505844324826,0.00019276435943320393,-0.06096680213809013
1738773101114877000,5.553876953125,-0.02055997294783592,-0.009982154304813593,-0.06026186873912811
1738773101124867800,5.563867919921875,-0.04466258693858981,0.0014702917482703924,-0.06010930852591991
1738773101134859000,5.57385888671875,-0.03679916008710861,-0.000250275833485648,-0.06638064388036727
1738773101144851000,5.583850830078125,-0.016822978376597165,0.004666411775304005,-0.07896540016531944
1738773101154841900,5.593841796875,-0.03696048812866211,-0.001685441469447687,-0.06132160692512989
1738773101164833000,5.6038330078125,-0.046248979347199196,0.002741855187201872,-0.06401157666146755
1738773101174824000,5.613823974609375,-0.02337137710675597,0.002687622515624389,-0.07298574123382567
1738773101184814800,5.62381494140625,-0.027511984042823314,-0.001697679896513,-0.06925532253384589
1738773101194806000,5.633805908203125,-0.036000703185796734,-0.0015049703360069543,-0.06806698953211307
1738773101204797000,5.643796875,-0.029149375986307857,-0.012006307943025603,-0.06132569857835769
1738773101214787800,5.653787841796875,-0.024385668715834617,-0.01664967676945962,-0.060604983088374136
1738773101224779000,5.663779052734375,-0.03332753845378756,-0.013207052901759744,-0.06151040749549865
1738773101234771000,5.67377099609375,-0.05256342319101095,-0.0012737553960178046,-0.06550035391449928
1738773101244761900,5.683761962890625,-0.03504500989615917,0.00022910518129356204,-0.06684943043589592
1738773101254752800,5.693752685546875,-0.024699410840123892,-0.0015376122302841395,-0.06703589291870593
1738773101264744000,5.703743896484375,-0.05013502700030804,-0.008345977070881054,-0.07029752506315708
1738773101274734800,5.71373486328125,-0.01926291887462139,-0.00637169045638293,-0.0645890842884779
1738773101284726000,5.72372607421875,-0.009839110838621854,-0.008665116889495401,-0.06970774247646332
1738773101294717000,5.733717041015625,-0.0380642115868628,0.003127794898021966,-0.06268646553754806
1738773101304707800,5.743707763671875,-0.03352671428769827,0.011908117398712783,-0.07011573875546455
1738773101314699000,5.753698974609375,0.0017898060262203216,-0.01208993110586889,-0.07197510288655758
1738773101324691000,5.76369091796875,-0.09057780428677797,0.00579499568012543,-0.06341594885587692
1738773101334681900,5.773681884765625,-0.12629998279213905,-0.0009157357385847717,-0.05500117173194885
1738773101344673000,5.783673095703125,0.024063597154617308,0.000979594755033031,-0.07744155159890652
1738773101354664000,5.793663818359375,-0.03521305993944406,-0.002996752396877855,-0.0699871439397335
1738773101364654800,5.80365478515625,-0.030417788486927746,-0.009830388676049188,-0.07346095753014087
1738773101374645800,5.813645751953125,-0.04537818786203861,-0.027334408119367434,-0.06220715758800506
1738773101384637000,5.823636962890625,-0.02967413051277399,-0.00038419527830556034,-0.07189969956278801
1738773101394627800,5.8336279296875,-0.014495850603282451,0.008771846933290361,-0.07122808391153812
1738773101404618800,5.84361865234375,-0.06642360623925923,0.015444776225415988,-0.06727379332780838
1738773101414611000,5.85361083984375,-0.019528291812539098,-0.010366623577754945,-0.06447627156376838
1738773101424601900,5.863601806640625,-0.07956774997264146,-0.014518409494962543,-0.070187634947896
1738773101434592800,5.8735927734375,-0.06541939763277768,0.01118841568888165,-0.05971884790360927
1738773101444584000,5.883583984375,0.00428863710463047,0.012648861896572635,-0.07404664846360683
1738773101454574800,5.893574951171875,-0.011608604729175567,-0.0014445910514332353,-0.07338730777204036
1738773101464565800,5.903565673828125,-0.05287453496679664,-0.0038139048655051735,-0.06681026746928692
1738773101474557000,5.913556884765625,-0.05925882917642593,0.001106591268721968,-0.06885200242996216
1738773101484547800,5.9235478515625,-0.01611746045574546,-0.00334965748777613,-0.07305179220736026
1738773101494538800,5.933538818359375,-0.02843669767230749,-0.004668895993335172,-0.06992927627265452
1738773101504531000,5.943531005859375,-0.07105842643305658,-0.005827253981912508,-0.05463993720412254
1738773101514521900,5.95352197265625,-0.05408434914797544,-0.007964174679061397,-0.06644260320067405
1738773101524512800,5.9635126953125,-0.02450125791952014,-0.008653481250628828,-0.06580138268768787
1738773101534504000,5.97350390625,-0.01755304621681571,0.002000727096851915,-0.06099485918879509
1738773101544494800,5.983494873046875,-0.02167670201808214,0.0032287253886926917,-0.062356210669875144
1738773101554485800,5.99348583984375,-0.021155893014371395,-0.007893292266782372,-0.06985270390510559
1738773101564476700,6.0034765625,-0.04542348830848932,0.004318054995359853,-0.07119359712004661
1738773101574467800,6.0134677734375,-0.05682473389729857,0.002271625593258068,-0.06083060853779316
1738773101584458800,6.023458740234375,-0.01949906571805477,0.006597388971038162,-0.07607610846459865
1738773101594450700,6.03345068359375,-0.034003976410627364,-0.011846751733450218,-0.07000701768398285
1738773101604441900,6.04344189453125,-0.06213701496124267,-0.006932804071018472,-0.055640638679265976
1738773101614432800,6.053432861328125,-0.04244067310541868,-0.019951348663354292,-0.06214753635525703
1738773101624423700,6.063423583984375,-0.013309563428163527,-0.002175535674486309,-0.06587678601145744
1738773101634414800,6.073414794921875,-0.03532368070706725,-0.006936658262228593,-0.0627940175652504
1738773101644405800,6.08340576171875,-0.053135816251486535,-0.00541340335085988,-0.07087327912449837
1738773101654396700,6.093396728515625,-0.04194105302020907,0.0016515483330003917,-0.0527291351467371
1738773101664387600,6.1033876953125,-0.025592121896147728,0.005571571320947259,-0.07443535552024841
1738773101674378800,6.113378662109375,-0.03802197988033294,0.002260081285936758,-0.06635434039533138
1738773101684370700,6.12337060546875,-0.0328957229077816,-0.004388809543475508,-0.0589987169355154
1738773101694361900,6.13336181640625,-0.02153027928471565,-0.008541143449954687,-0.06905600056946277
1738773101704352800,6.143352783203125,-0.02902618799805641,0.004597703053802252,-0.0701005411863327
1738773101714343700,6.15334375,-0.041539048090577124,0.0068862249829340725,-0.06092062490880489
1738773101724334600,6.16333447265625,-0.01982742088958621,-0.0017044384308625012,-0.07933014182448386
1738773101734325800,6.17332568359375,-0.036168168707191944,-0.00009307597777806222,-0.06666822865009307
1738773101744317000,6.18331689453125,-0.07730331217199564,-0.0006795706288423389,-0.05272387444972992
1738773101754307800,6.193307861328125,-0.05443740036934614,-0.008730574207985772,-0.057440966099500654
1738773101764299000,6.203299072265625,-0.006452537140250206,0.0030985870698466895,-0.06105448042154312
1738773101774290700,6.213290771484375,-0.03952069400548935,0.008083079217839986,-0.06991583226919174
1738773101784281900,6.22328173828125,-0.06766045455783605,0.0031458420113660394,-0.07467033331990242
1738773101794273000,6.23327294921875,-0.026887860795110463,-0.009434612557804211,-0.07435410697758198
1738773101804264000,6.243263916015625,-0.01596826124340296,0.0037717370910570025,-0.0715431412100792
1738773101814254800,6.2532548828125,-0.050693829926848406,-0.001271901365648955,-0.06854805104732513
1738773101824246000,6.26324609375,-0.049749242553114886,-0.0017248966970015316,-0.06239128198325634
1738773101834237000,6.27323681640625,-0.0319675021469593,0.0049048236410599196,-0.06436404336094856
1738773101844227800,6.283227783203125,-0.05532675042450428,-0.01126534424945712,-0.06645487816035747
1738773101854218800,6.29321875,-0.035472295397520066,-0.005064343318017199,-0.0691074384957552
1738773101864211000,6.3032109375,-0.004255173226445913,0.008714024931984022,-0.057605216750502584
1738773101874201900,6.313201904296875,-0.044942719054222105,-0.010018376395665109,-0.06182955644726753
1738773101884192800,6.32319287109375,-0.05278174211680889,-0.005537413323018699,-0.06971534126102924
1738773101894184000,6.333183837890625,-0.01780775163024664,-0.010863476317143067,-0.06623275984227657
1738773101904174800,6.3431748046875,-0.03306523425579071,-0.003866721898131072,-0.06342179407477379
1738773101914165800,6.353165771484375,-0.05189969858527183,0.008524493709253147,-0.06297697291672229
1738773101924157000,6.363156982421875,-0.03809621416032314,0.0008879161498975009,-0.06040858373343944
1738773101934147800,6.37314794921875,-0.041272213847935196,-0.0017868377509992568,-0.05235387209355831
1738773101944138800,6.383138671875,-0.05020560801848769,-0.0048687294143717735,-0.05715221228599548
1738773101954131000,6.393130859375,-0.04289338530898094,-0.0054449857992120085,-0.06594459055066108
1738773101964121900,6.403121826171875,-0.013282090899348259,0.0026428152595181016,-0.06399754813611506
1738773101974112800,6.41311279296875,-0.02282353396564722,0.019081132566928862,-0.06598433803915978
1738773101984104000,6.42310400390625,-0.06747063107416033,-0.013777336203539743,-0.05280512299239635
1738773101994094800,6.4330947265625,-0.02653846283555031,-0.01267155778557062,-0.06442834076881408
1738773102004085800,6.443085693359375,-0.018408347871899603,0.012733937230985612,-0.07285071667730808
1738773102014076700,6.45307666015625,-0.048263387909531594,0.000543696688953787,-0.07077040327191353
1738773102024067800,6.46306787109375,-0.03668663962334394,-0.00851597247608006,-0.06760697080492972
1738773102034058800,6.473058837890625,-0.011122867038846015,-0.004941803783737123,-0.06344400590658188
1738773102044051000,6.483051025390625,-0.0382275854550302,-0.002523353598313406,-0.06377133816480636
1738773102054041900,6.493041748046875,-0.058194999337196344,-0.005108072861889377,-0.07093933009803295
1738773102064032800,6.50303271484375,-0.042023032215237614,-0.005597683009738102,-0.07094108366370201
1738773102074023700,6.513023681640625,-0.04281330581009388,-0.005111525194300338,-0.06318330914378166
1738773102084014800,6.523014892578125,-0.04260813862681389,-0.00916824410604313,-0.07229074470698833
1738773102094005800,6.533005859375,-0.01931771780177951,-0.008802443000953643,-0.054174073258042334
1738773102103996700,6.54299658203125,-0.033003859457373615,0.005838232033653184,-0.058199090990424154
1738773102113987800,6.55298779296875,-0.016640169155597687,-0.006660179408406838,-0.06659165628254413
1738773102123978800,6.562978759765625,-0.03348287514597177,-0.022471688320674,-0.059092240437865255
1738773102133970700,6.572970703125,-0.04137991200610995,-0.0015154917300213128,-0.05562544111013412
1738773102143961900,6.5829619140625,-0.025744682109355925,-0.008837167254462838,-0.07377952196002006
1738773102153952800,6.592952880859375,-0.054351037260144945,-0.0037232948394492265,-0.06270107858479022
1738773102163943700,6.602943603515625,-0.045886137384176254,-0.0067257919905241575,-0.0703185678511858
1738773102173934800,6.612934814453125,-0.03987900592386722,-0.011825115290377289,-0.06167699623405933
1738773102183925800,6.62292578125,-0.048722822114825245,-0.006191949975304306,-0.06287000541090965
1738773102193916700,6.632916748046875,-0.040263475196808576,0.01030587896700017,-0.07003624377846718
1738773102203907800,6.642907958984375,-0.022328590055555105,0.004707784965308383,-0.061952306044101714
1738773102213899000,6.65289892578125,-0.023618483735620973,-0.004971002478757873,-0.059420741739869117
1738773102223890700,6.662890625,-0.04273264178931713,0.007446050822781399,-0.05284545500278472
1738773102233881600,6.672881591796875,-0.04902385088801384,-0.009996064099157228,-0.06256956115961075
1738773102243872800,6.682872802734375,-0.04228051410764456,-0.00640990357492119,-0.06990414183139801
1738773102253864000,6.692864013671875,-0.044695174033939834,0.004898521764436736,-0.06020633915960789
1738773102263854800,6.702854736328125,-0.048615562348067756,-0.000445862337667495,-0.06633563569486141
1738773102273846000,6.712845947265625,-0.025806056907773017,-0.005775989585556089,-0.05898351936638355
1738773102283837200,6.722837158203125,-0.023449703039973974,-0.005903095697099342,-0.06334580622911452
1738773102293828000,6.732828125,-0.0474297135643661,0.006681687987316399,-0.06187398011088371
1738773102303819800,6.74281982421875,-0.05172434201836586,0.011070360533474013,-0.07756371667385101
1738773102313811000,6.75281103515625,-0.024886603975296018,-0.006377197748562321,-0.07458148599267006
1738773102323802000,6.762802001953125,-0.03665536770224571,-0.007036794168455525,-0.054093409237265584
1738773102333793000,6.77279296875,-0.056044543305039406,0.002894808126054704,-0.060659343624114986
1738773102343784200,6.7827841796875,-0.013845862261950968,-0.002784497885685414,-0.0727805740505457
1738773102353775000,6.792775146484375,-0.026195786877721547,0.005807097109872848,-0.062469023394584655
1738773102363766000,6.80276611328125,-0.048697979934513566,-0.007753856396628543,-0.057851300466060636
1738773102373757000,6.8127568359375,-0.053732028578966855,-0.013968849320802838,-0.07039923187196254
1738773102383748000,6.822748046875,-0.029191899953782557,-0.0029063615665305405,-0.07892857528626919
1738773102393739000,6.832739013671875,-0.02941138792335987,-0.0029984694299288093,-0.0644318479001522
1738773102403731000,6.84273095703125,-0.05121273923441767,-0.0064037021629977965,-0.0614472791314125
1738773102413722000,6.85272216796875,-0.02315568852946162,-0.009270599368819967,-0.05906885956227779
1738773102423713000,6.862713134765625,-0.022109540477395058,0.0060388965717516835,-0.06221183376312255
1738773102433704000,6.872703857421875,-0.019422493350505828,-0.0015621530164964495,-0.0595171878516674
1738773102443695000,6.882695068359375,-0.02639233236312866,-0.009577382029360159,-0.0659656333386898
1738773102453686000,6.89268603515625,-0.023351503362506628,-0.005560529337124899,-0.06088789168298244
1738773102463677000,6.902677001953125,-0.04653671024739742,0.006278998071094975,-0.06235445710420608
1738773102473668000,6.912668212890625,-0.017197218516469,-0.01912706320104189,-0.05939677634239197
1738773102483660000,6.922659912109375,-0.03332359293103218,-0.004298738373536616,-0.07634498853385448
1738773102493651000,6.93265087890625,-0.04619330363720655,-0.011785376935033127,-0.07152443650960921
1738773102503642000,6.94264208984375,-0.04330956489443779,0.0010150496609043329,-0.07587152580320834
1738773102513633000,6.952633056640625,-0.0273100317299366,0.003620144992228597,-0.05162731138467788
1738773102523624000,6.9626240234375,-0.036247955945134164,0.0029039230142720042,-0.062110711476206774
1738773102533614800,6.97261474609375,-0.014967852029204368,-0.0018724519415292888,-0.06989888113439083
1738773102543606000,6.98260595703125,-0.021693214761465785,-0.0007715232286136597,-0.0621183102607727
1738773102553597000,6.992596923828125,-0.03585603401809931,-0.012925194619921967,-0.048363341152667993
1738773102563587800,7.002587890625,-0.023729542894661424,-0.018953953390149398,-0.07021101582348346
1738773102573580000,7.012580078125,-0.040570495319366455,-0.00026957418899983165,-0.0591512771487236
1738773102583571000,7.022571044921875,-0.026945582331717014,-0.009311123175453394,-0.056609191450476645
1738773102593561900,7.032561767578125,-0.0275496857047081,-0.0036252595587633546,-0.07157119826078415
1738773102603553000,7.042552978515625,-0.027839024040102956,0.00007802453911863267,-0.0633428836196661
1738773102613544000,7.0525439453125,-0.036656829006969927,-0.0027475086098536845,-0.06678747111558914
1738773102623534800,7.062534912109375,-0.03560848899781704,-0.009452093415567651,-0.06529167959988116
1738773102633526000,7.072526123046875,-0.03782645730823278,0.004642912168707698,-0.07038578786849975
1738773102643517000,7.082516845703125,-0.03819792096912861,-0.009159220549371093,-0.06980301954448223
1738773102653508900,7.0925087890625,-0.045780046661198136,-0.008137595017207786,-0.07205810499489307
1738773102663500000,7.1025,-0.025291385383903978,-0.005478869802504778,-0.0704097532659769
1738773102673491000,7.112490966796875,-0.031158231590688226,-0.008587823002738878,-0.08285480881929397
1738773102683481900,7.12248193359375,-0.057144028979539865,-0.0013704663692973554,-0.06101707102060318
1738773102693473000,7.13247314453125,-0.03447831592410803,-0.007856604385050012,-0.06698562403619289
1738773102703464000,7.1424638671875,-0.010897241589426994,0.00018242562850937245,-0.0538356350839138
1738773102713454800,7.152454833984375,-0.029096915146708487,-0.005449040919821709,-0.06450491313636303
1738773102723446000,7.162446044921875,-0.039705987444519995,0.001727545311814174,-0.05403378800451755
1738773102733437200,7.172437255859375,-0.021055647510290144,-0.002597003356413916,-0.06329787543416023
1738773102743428900,7.182428955078125,-0.02626709854826331,-0.001966952691413462,-0.06647825903594494
1738773102753419800,7.192419677734375,-0.028315409380197522,-0.010433633532514796,-0.05631400789618492
1738773102763411000,7.202410888671875,-0.06916998233795166,-0.007282585623068735,-0.06170037710964679
1738773102773401900,7.21240185546875,-0.031896774998307224,0.005817764634359628,-0.06544482433497906
1738773102783393000,7.22239306640625,-0.026463644033670426,-0.007486318901088088,-0.057224693000316615
1738773102793384200,7.23238427734375,-0.06174480077326298,0.006390970545588061,-0.07354337511658668
1738773102803375000,7.242375,-0.02386310614645481,0.0007286156686488539,-0.059932198393344877
1738773102813366000,7.252365966796875,-0.021423896300792694,-0.004754738512728363,-0.07236264089941978
1738773102823357200,7.262357177734375,-0.04030921403467655,-0.0023188348690047858,-0.06502338405251502
1738773102833348900,7.272348876953125,-0.05199614469707012,-0.00341885026646778,-0.0653209056943655
1738773102843340000,7.282340087890625,-0.02487783614695072,0.005806631318992003,-0.056200026127696034
1738773102853331200,7.292331298828125,-0.022148703444004058,0.005538381437398493,-0.06473755284845828
1738773102863322000,7.302322021484375,-0.029686113211512564,0.007730868246685713,-0.07029518697559833
1738773102873313000,7.31231298828125,-0.04092340041026473,0.004839503319887444,-0.07403261993825436
1738773102883304000,7.322303955078125,-0.034260143128782505,-0.006296835121884942,-0.06533727230727672
1738773102893295000,7.332295166015625,-0.021325404362380503,0.002538414170127362,-0.08001637052297592
1738773102903286000,7.3422861328125,-0.03478051374107599,0.0006202964559663087,-0.07388298233449458
1738773102913277000,7.35227685546875,-0.05911942070573568,-0.01270123140462674,-0.0698217242449522
1738773102923269000,7.36226904296875,-0.00903700067549944,-0.003360242813872173,-0.06876315510272979
1738773102933260000,7.372260009765625,-0.02386661327779293,0.003169716077297926,-0.051582887721061704
1738773102943251000,7.3822509765625,-0.0679746350735426,-0.010887779641337691,-0.0672685326308012
1738773102953242000,7.3922421875,-0.03642331251204014,-0.0055760283003561196,-0.07384674197733401
1738773102963233000,7.40223291015625,-0.011550152540206908,-0.0005083787804003805,-0.07179156301319599
1738773102973224000,7.412223876953125,-0.03554521450325846,-0.018037715328065678,-0.07031506071984768
1738773102983215000,7.422215087890625,-0.04475669496282935,-0.0066194912049919365,-0.070148471981287
1738773102993206000,7.4322060546875,-0.02563756847307086,-0.0011579287303145973,-0.0673293229073286
1738773103003197000,7.442197021484375,-0.027587679627537727,0.005115735578536987,-0.06762742907106876
1738773103013189000,7.452189208984375,-0.026366905660927295,-0.002800416974024847,-0.06161503691375255
1738773103023180000,7.462179931640625,-0.023772797514498234,-0.007809349443530664,-0.06042962652146816
1738773103033171000,7.4721708984375,-0.028977964942157267,-0.004371465683029964,-0.06357903046309947
1738773103043161900,7.482161865234375,-0.028693595042824743,-0.001241880686720833,-0.07240414195358753
1738773103053153000,7.492153076171875,-0.03091170948371291,0.0026893030160572377,-0.0632820933431387
1738773103063144000,7.50214404296875,-0.027778526024520394,-0.012781201305659486,-0.05490004944503307
1738773103073134800,7.512134765625,-0.0316582900673151,0.007197939546918496,-0.05669686973392963
1738773103083126000,7.5221259765625,-0.025551789885759353,-0.008942061534198001,-0.0694423695385456
1738773103093117000,7.532116943359375,-0.05504968704879284,-0.011202097154362127,-0.06913900267779827
1738773103103108900,7.54210888671875,-0.04408917096480727,-0.001766032424988225,-0.06148351948857307
1738773103113100000,7.55210009765625,-0.018123393450677393,-0.005837053856719285,-0.07155775425732136
1738773103123091000,7.562091064453125,-0.02710428002476692,-0.004210165040940046,-0.0673988810122013
1738773103133081900,7.572081787109375,-0.05081073430478573,0.003395542456116527,-0.0575087706387043
1738773103143073000,7.582072998046875,-0.030759295400977132,0.0034670641892123964,-0.0640922406822443
1738773103153064000,7.59206396484375,-0.02509177115857601,-0.001982579518808052,-0.08087912483215332
1738773103163054800,7.602054931640625,-0.04420037625432014,-0.011942348461877554,-0.06697334907650947
1738773103173045800,7.612045654296875,-0.03812368668913841,0.00028081710222177205,-0.061575289425253865
1738773103183038000,7.622037841796875,-0.02526230541989207,0.0030195122179575264,-0.0554389786273241
1738773103193028900,7.63202880859375,-0.02988543517589569,-0.0008382317892741411,-0.053529930135607716
1738773103203020000,7.64202001953125,-0.039437984158098696,-0.005019335132511332,-0.05724339770078659
1738773103213011000,7.652010986328125,-0.030691929253190753,0.0032186515192501246,-0.06919687034487725
1738773103223001900,7.662001953125,-0.026240795063227414,-0.0013179233313072472,-0.06697568716406822
1738773103232992800,7.67199267578125,-0.04168152530118823,0.00015638700495474039,-0.06921440600156784
1738773103242984000,7.68198388671875,-0.03360518635138869,0.0004431589239276945,-0.05616203220486641
1738773103252975000,7.69197509765625,-0.0112368488073349,-0.0028763134881388394,-0.06500643291771412
1738773103262966000,7.701966064453125,-0.05619184282124042,-0.008597878605872392,-0.050209845802187916
1738773103272958000,7.7119580078125,-0.053876843877136704,-0.0065700808390043676,-0.06171499015688896
1738773103282949400,7.721949462890625,-0.01156184297800064,0.0007330087159760296,-0.07535656201839447
1738773103292940300,7.731940185546875,-0.029989480072259902,0.0024988676110282537,-0.06655424688160419
1738773103302931500,7.741931396484375,-0.053018181221187115,-0.007362783852964639,-0.057248658397793764
1738773103312922400,7.75192236328125,-0.016997896552085875,-0.010796018837811425,-0.06083119305968284
1738773103322913500,7.76191357421875,-0.02543897716104984,-0.014550275071104988,-0.06896247706711292
1738773103332904400,7.771904541015625,-0.04523293417245149,-0.007722858470166101,-0.06356675550341606
1738773103342895600,7.7818955078125,-0.046533787637948985,-0.0069682041779626155,-0.07102525481581687
1738773103352886500,7.791886474609375,-0.0291442614197731,-0.012857481412263587,-0.0740261901974678
1738773103362878500,7.80187841796875,-0.0250606453679502,-0.010409458072483538,-0.06805062291920184
1738773103372869400,7.811869384765625,-0.047931963998079294,-0.0024545809447299688,-0.07059972288012505
1738773103382860500,7.821860595703125,-0.038807869561016554,-0.001391006833827123,-0.07494038243293762
1738773103392851500,7.8318515625,-0.0215150817155838,-0.001974451011279598,-0.07570669063031674
1738773103402842600,7.841842529296875,-0.04541355143636465,-0.006318033173540607,-0.07152619007527827
1738773103412833500,7.85183349609375,-0.0391848861798644,-0.00010349690709263085,-0.06911912893354892
1738773103422824400,7.861824462890625,-0.023212533283233642,-0.010149985152389853,-0.07423077285885811
1738773103432815600,7.871815673828125,-0.0287999780267477,-0.004229052404500544,-0.0641097763389349
1738773103442806500,7.881806640625,-0.03226370861455798,0.005401374986348673,-0.06335749666690826
1738773103452798500,7.891798583984375,-0.014677198519557713,-0.003401652536494657,-0.06950958955585956
1738773103462789600,7.90178955078125,-0.016099486407637593,-0.0007399407802615314,-0.07449614579677581
1738773103472780500,7.911780517578125,-0.03760404672920704,0.006246374443126842,-0.06687281131148338
1738773103482771500,7.921771484375,-0.031825463327765466,-0.009315881548961624,-0.06356850906908512
1738773103492762400,7.931762451171875,-0.022193565499037504,0.0059863078679889435,-0.06148468853235244
1738773103502753500,7.94175341796875,-0.03806099671646952,-0.010272762148687616,-0.07031213811039924
1738773103514617300,7.953617431640625,-0.04579378292560577,-0.002984431771421805,-0.06460369733572006
1738773103524608300,7.963608154296875,-0.023674305576086043,0.004574787969095632,-0.06429799238741397
1738773103534599400,7.973599365234375,-0.025632161645591258,-0.010005635645100847,-0.0695645346134901
1738773103544591400,7.98359130859375,-0.044803602844476695,-0.0029893636748660355,-0.0656692807406187
1738773103554582300,7.993582275390625,-0.03653670975863933,0.008317965685948728,-0.06639291884005069
1738773103564573400,8.003573486328126,-0.018861352336406706,-0.0042630551388021555,-0.07821779666841029
1738773103574564400,8.013564453125,-0.02835325717255473,-0.007588025709893554,-0.07180149988532065
1738773103584555300,8.02355517578125,-0.05625117179304361,-0.010589362950343639,-0.062327569097280495
1738773103594546400,8.03354638671875,-0.01675122831463814,-0.005186955917533487,-0.0632248101979494
1738773103604537600,8.04353759765625,-0.03229074275195598,-0.0011820859240368009,-0.06640344023406505
1738773103614528500,8.053528564453124,-0.05322013353407383,-0.0017593378227204084,-0.06592763941586018
1738773103624519400,8.06351953125,-0.024597850161790846,-0.00032966121262870726,-0.06096504857242107
1738773103634511400,8.073511474609376,-0.01990983847603202,0.006531310598039999,-0.057683542683720584
1738773103644502500,8.08350244140625,-0.02262669621929526,-0.0025871395495254547,-0.06115268009901046
1738773103654493400,8.093493408203125,-0.03478080600202083,-0.005469809713214636,-0.05605681826472282
1738773103664484600,8.103484619140625,-0.042893969830870626,-0.0022458609643392262,-0.06936696621477603
1738773103674475500,8.1134755859375,-0.025592121896147728,-0.008336213728692383,-0.07791559885144234
1738773103684466400,8.123466552734374,-0.03126958301067352,-0.008378125774813816,-0.06085808106660843
1738773103694457600,8.13345751953125,-0.04931348148435354,0.006199822754506022,-0.06712298668026924
1738773103704448500,8.143448486328126,-0.017919395311176776,-0.014148580668726936,-0.06984101346731185
1738773103714439400,8.153439453125,-0.04457359348088503,0.0024594215166289356,-0.07327741765677928
1738773103724431600,8.163431640625,-0.061571197772026055,0.009335800958983599,-0.06831950298845768
1738773103734422500,8.173422607421875,-0.001371288353204727,-0.001161545459507033,-0.07314940736293793
1738773103744413400,8.183413330078125,-0.03418371689170599,-0.011630624764738603,-0.06374678824543953
1738773103754404600,8.193404541015624,-0.03507803538292646,-0.016117770982999352,-0.06607669249773025
1738773103764395500,8.2033955078125,-0.020020459243655205,0.0030459983660839495,-0.05858312187194824
1738773103774386400,8.213386474609376,-0.025031857664883136,0.0029192027817945927,-0.0661135173767805
1738773103784377300,8.22337744140625,-0.04531491336748004,-0.006638040641834959,-0.06792436619102954
1738773103794368500,8.233368408203125,-0.054432285802811384,-0.008243466544477268,-0.06007949790954589
1738773103804359400,8.243359375,-0.00977291373461485,0.005461726871458813,-0.06874035874903202
1738773103814351600,8.2533515625,-0.027454262506216763,-0.001286057755164802,-0.07388707398772239
1738773103824342500,8.263342529296875,-0.04182794803455472,0.007640450016874819,-0.06386018549203873
1738773103834333400,8.27333349609375,-0.03375204747617244,-0.005277228016871959,-0.058739773738384245
1738773103844324400,8.283324462890626,-0.019979542711377144,-0.021954331649374215,-0.07837561757862567
1738773103854315500,8.2933154296875,-0.036297348044812675,-0.017248665575915947,-0.07298866384327411
1738773103864931300,8.303931396484375,-0.04921206693649292,0.008563528811698778,-0.06142448277771473
1738773103874922500,8.313922607421874,-0.01369067170023918,0.0005799187798053026,-0.07310790630877018
1738773103884913400,8.323913330078126,-0.03823459971770644,-0.0025787735799793154,-0.05667933407723903
1738773103894904300,8.333904296875,-0.07438727859482169,0.0033034893916454163,-0.0614472791314125
1738773103904895500,8.3438955078125,-0.03193520731255412,-0.011997941973479464,-0.07981003429591656
1738773103914886400,8.353886474609375,-0.01627659654021263,-0.015012184361275285,-0.0762397745937109
1738773103924877300,8.363877197265625,-0.05580839646160602,-0.0009518938973546027,-0.07506839272677898
1738773103934869500,8.373869384765625,-0.04696019635647535,0.007477770268451422,-0.06965455098450184
1738773103944860400,8.3838603515625,-0.01325111123919487,-0.0056144423482939595,-0.06394318760037422
1738773103954851300,8.393851318359374,-0.029519524472951888,-0.011194936761213466,-0.06185761349797248
1738773103964842500,8.403842529296876,-0.0461268142722547,-0.010212876054458319,-0.06634674161076545
1738773103974833400,8.41383349609375,-0.029685967081040144,0.008016544187115504,-0.07068155594468116
1738773103984824300,8.42382421875,-0.029784897410869596,0.00003482471820898354,-0.05408230332136154
1738773103994815200,8.433815185546875,-0.02996872954517603,0.01152042412222363,-0.06547872660458087
1738773104004806400,8.443806396484375,-0.0362462023794651,-0.0005337415505200624,-0.06368424440324306
1738773104014797600,8.453797607421874,-0.014631751942634582,-0.00006040668403729796,-0.05831131919324398
1738773104024789200,8.463789306640624,-0.021566519641876218,-0.015105041143344714,-0.07569207758307457
1738773104034780400,8.473780517578126,-0.052503509697318075,-0.0054175224035512655,-0.0723749158591032
1738773104044771300,8.483771240234375,-0.03443170030340552,0.0038276502630673346,-0.07296586748957634
1738773104054762200,8.49376220703125,-0.0291334477648139,-0.0076970481754746285,-0.068788874065876
1738773104064753400,8.50375341796875,-0.03658551733642816,-0.011192790469899773,-0.06700140612721443
1738773104074744600,8.51374462890625,-0.03591872399076819,0.007175398921547457,-0.051719665843248365
1738773104084735500,8.523735595703124,-0.03467559206187725,0.002116699893027544,-0.057415831658244126
1738773104094726700,8.5337265625,-0.026560674667358397,-0.004767433597519993,-0.06475567302703857
1738773104104718300,8.54371826171875,-0.028398411488533018,-0.0074247797058895225,-0.0493348165333271
1738773104114709500,8.55370947265625,-0.03421761916130781,-0.016218728873133657,-0.0684925214678049
1738773104124700700,8.56370068359375,-0.03812690155953169,-0.004509622911550104,-0.06459843663871288
1738773104134691600,8.573691650390625,-0.036923955510556696,-0.007803376360470429,-0.06142506729960441
1738773104144682500,8.5836826171875,-0.02424830607175827,-0.0039480435060337184,-0.05737433060407638
1738773104154673400,8.59367333984375,-0.028128070114552973,0.0044188302224036306,-0.05618015238344669
1738773104164664600,8.60366455078125,-0.02955620322152972,0.0047478977799881245,-0.0729541770517826
1738773104174655500,8.613655517578126,-0.0289613060683012,-0.01022263939664699,-0.07340192081928253
1738773104184647700,8.623647705078126,-0.0373661463201046,0.0035614279417786744,-0.06726151836812495
1738773104194638600,8.633638671875,-0.022470628874748943,-0.00013865955201908944,-0.0644365240752697
1738773104204629500,8.64362939453125,-0.04647007475197315,-0.01411148179504089,-0.06161445239186287
1738773104214620400,8.653620361328125,-0.022155571576207875,-0.010128704902343452,-0.0648895285397768
1738773104224611600,8.663611572265625,-0.01385229200273752,-0.010701034030737355,-0.057092006531357764
1738773104234602500,8.6736025390625,-0.029791911673545834,-0.0020085542102809993,-0.07147241406142711
1738773104244593400,8.683593505859376,-0.03868950387835502,-0.0056540893720928576,-0.08001929313242435
1738773104254584600,8.69358447265625,-0.03634060266464949,-0.010998354743188247,-0.06968436160087585
1738773104264575500,8.703575439453125,-0.028143998336046933,-0.009460450251959263,-0.06354279010593891
1738773104274567000,8.71356689453125,-0.02917728690654039,-0.009546073575643821,-0.06758534349501133
1738773104284558000,8.72355810546875,-0.03762216690778732,-0.0027325667690485714,-0.05948971532285213
1738773104294549000,8.733549072265625,-0.027696985220909118,0.0007115732023026793,-0.06518646565973758
1738773104304540000,8.743539794921874,-0.030144962894916534,0.0014246625082567333,-0.06307984876930714
1738773104314530800,8.75353076171875,-0.031363691034913065,0.0020933646832127124,-0.05454524465799331
1738773104324522000,8.76352197265625,-0.04035056895837188,-0.00441116750575602,-0.06322130306661129
1738773104334513000,8.773512939453125,-0.04020663044303655,0.005347571573033928,-0.06546528260111809
1738773104344503800,8.78350390625,-0.040868893744051456,-0.004974308680696413,-0.06294014803767203
1738773104354495000,8.793494873046875,-0.03610533260405063,-0.0022287362996023146,-0.06577683276832104
1738773104364487000,8.80348681640625,-0.036614305039495226,-0.015258012348506598,-0.06740940240621567
1738773104374477800,8.813477783203124,-0.024112112471461295,-0.011330235312366857,-0.07071954986751079
1738773104384469000,8.823468994140624,-0.0347029184602201,-0.011222646752046421,-0.0742003777205944
1738773104394460000,8.8334599609375,-0.027727088098227975,-0.0031328272661659863,-0.0676040481954813
1738773104404450800,8.843450927734375,-0.01554068348109722,-0.00803834502696991,-0.06968143899142741
1738773104414442000,8.85344189453125,-0.013771920242905616,-0.0028738292701076715,-0.0655167205274105
1738773104424433000,8.863432861328125,-0.031917671655863525,0.0014682459216564894,-0.05249006569385528
1738773104434423800,8.873423828125,-0.037017040621489285,-0.007679485119320452,-0.05859013613462448
1738773104444416000,8.883416015625,-0.021281711351126432,-0.0061589153553824865,-0.0804746356844902
1738773104454407000,8.893406982421874,-0.03734495740160346,-0.0034824718208983536,-0.06598083090782166
1738773104464397800,8.903397705078126,-0.03474193529635668,-0.01274085102896206,-0.07194704583585262
1738773104474388700,8.913388671875,-0.02072247003316879,-0.010770199409965426,-0.07163783375620841
1738773104484380000,8.9233798828125,-0.04154416265711188,-0.016011689393175765,-0.05397592033743858
1738773104494370800,8.933370849609375,-0.03557575577199459,-0.007955215054471046,-0.06773907275199889
1738773104504362000,8.943362060546875,-0.028477175813168287,-0.00664635181245394,-0.052040568360686296
1738773104514353200,8.953353271484374,-0.0512554093323648,-0.005913525759568438,-0.0527811575949192
1738773104524344000,8.963343994140626,-0.04449249106869101,-0.009583884835382923,-0.0626326895236969
1738773104534335700,8.973335693359376,-0.027308716555684804,0.004337736943364143,-0.05948445462584495
1738773104544327000,8.983326904296876,-0.013554185838997363,-0.0093980799396988,-0.06011106209158897
1738773104554317800,8.99331787109375,-0.03001432225257158,0.006756241927715018,-0.07148351997733116
1738773104564309000,9.00330908203125,-0.044885728169977664,-0.006216426829434931,-0.06384031174778938
1738773104574300200,9.013300048828125,-0.02452186231613159,-0.007668580132815986,-0.058606502747535705
1738773104584291000,9.023291015625,-0.033521745851635934,0.005537458988791331,-0.058303135886788364
1738773104594282000,9.033281982421874,-0.036389410242438316,-0.0026611272343434393,-0.06772504422664642
1738773104604273000,9.04327294921875,-0.033498949497938156,-0.005194216775381937,-0.050526656666398044
1738773104614265000,9.05326513671875,-0.01826309418231249,-0.009451627624686806,-0.05950023671686649
1738773104624256000,9.063256103515625,-0.014480799164623021,-0.0013318787914235145,-0.07656886041760444
1738773104634247200,9.0732470703125,-0.032270576746761793,-0.006132447473565116,-0.05756780734956264
1738773104644238000,9.083238037109375,-0.046108255702257156,-0.008073398074042051,-0.07131985384821891
1738773104654229000,9.09322900390625,-0.016463935805857182,0.0030355135046876967,-0.06833060890436173
1738773104664220000,9.103219970703124,-0.03398819431960583,-0.008330395909259096,-0.0630897856414318
1738773104674211000,9.113211181640626,-0.034224925684928895,0.00036139892460778354,-0.07372808403372764
1738773104684202000,9.123201904296875,-0.031821371674537656,-0.004650063428701833,-0.061577042990922926
1738773104694193000,9.13319287109375,-0.03665712126791477,-0.008095345044368877,-0.06881400850713253
1738773104704185000,9.14318505859375,-0.03744593355804682,-0.008530037534050643,-0.06539689354002476
1738773104714176000,9.153176025390625,-0.038933103375881906,-0.0015224420606158673,-0.06626373950242996
1738773104724167000,9.1631669921875,-0.027154402776807546,0.008059387814998627,-0.06607260084450245
1738773104734158000,9.173157958984374,-0.00915069018304348,0.0033750385242048648,-0.06308920111954212
1738773104744149000,9.18314892578125,-0.03240121738910675,-0.003937175052147359,-0.06954407634735107
1738773104754140000,9.193139892578126,-0.036669834619015455,-0.011618304139282554,-0.06294248612523079
1738773104764130800,9.203130859375,-0.02258387999087572,-0.005966123596485704,-0.05232289243340492
1738773104774122000,9.2131220703125,-0.035523148801922796,-0.012092926780553534,-0.05772855086922645
1738773104784113000,9.22311279296875,-0.035644583224505186,-0.013297325001098214,-0.07165069323778152
1738773104794105000,9.23310498046875,-0.030238486397266385,0.0012519636893179268,-0.06357493880987167
1738773104804096000,9.243095947265624,-0.03474325047060847,-0.003485047370474785,-0.07512626039385795
1738773104814087000,9.2530869140625,-0.03961933207437396,-0.004881899423198774,-0.0697211864799261
1738773104824077800,9.263077880859376,-0.007150748537480831,-0.006985493239481002,-0.0758563282340765
1738773104834069000,9.273069091796875,-0.024142215348780152,-0.006824448325717821,-0.0703659141242504
1738773104844060000,9.283059814453125,-0.03489069611728191,-0.0029182985994964834,-0.06034428632557392
1738773104854050800,9.29305078125,-0.026348347090929744,-0.0063083885623607784,-0.06363982073962689
1738773104864042000,9.3030419921875,-0.033546003510057924,-0.01096040648613125,-0.0678261665135622
1738773104874034000,9.313033935546875,-0.03248246593177318,-0.010260669852094725,-0.06678162589669227
1738773104884024800,9.32302490234375,-0.03305646642744541,0.004094968562899157,-0.07292144382596015
1738773104894016000,9.33301611328125,-0.024457418777793644,0.003121995344897732,-0.06096563309431076
1738773104904007000,9.3430068359375,-0.02376373742520809,0.0030821017259266225,-0.06649170303940773
1738773104913997800,9.352997802734375,-0.03458528342992067,-0.0012910353243816644,-0.06483516800403595
1738773104923989000,9.362989013671875,-0.024896833108365535,-0.004697327503375709,-0.06770107882916927
1738773104933980000,9.37297998046875,-0.041428573453426355,0.003108980599697679,-0.072505848762393
1738773104943970800,9.382970703125,-0.03712926882430911,-0.011799862118111923,-0.0693552757769823
1738773104953961700,9.392961669921876,-0.025009353572130202,-0.010118037377856671,-0.06740998692810535
1738773104963954000,9.402953857421876,-0.03195756527483463,-0.005845821685064583,-0.060844052541255945
1738773104973944800,9.41294482421875,-0.03280278392732143,0.0008458671064581722,-0.063398997721076
1738773104983935700,9.422935791015625,-0.033789164616167544,-0.0030243801893200723,-0.06128536656796932
1738773104993927000,9.432927001953125,-0.02594955703169107,-0.0034606435815803705,-0.07461597278416156
1738773105003917800,9.442917724609375,-0.030853987947106358,-0.012223065099399535,-0.06115618723034858
1738773105013908700,9.45290869140625,-0.03321984029561281,-0.003090732556954026,-0.0684627108514309
1738773105023900200,9.462900146484374,-0.01745908432304859,-0.005894282202981412,-0.0746405227035284
1738773105033891000,9.47289111328125,-0.03788564014956355,-0.017426195833599195,-0.07465630479454993
1738773105043882000,9.482882080078125,-0.045316813063621515,-0.002897374542476609,-0.06191431212127208
1738773105053874000,9.4928740234375,-0.0201338564902544,-0.0018503405744209884,-0.06551496696174144
1738773105063864800,9.50286474609375,-0.04041442797482014,-0.005545834091491997,-0.054607203978300094
1738773105073856000,9.51285595703125,-0.029645196679234504,-0.014061477774009108,-0.04877016838788986
1738773105083847200,9.52284716796875,-0.029695757822692393,-0.009942178487451747,-0.06028291152715683
1738773105093838000,9.532838134765624,-0.01820288842767477,-0.023305453997384755,-0.06237257728278636
1738773105103829000,9.5428291015625,-0.03683627722710371,-0.012202816895814612,-0.058198506468534465
1738773105113820000,9.55281982421875,-0.0456008907020092,-0.0030456878388300536,-0.061654199880361554
1738773105123811000,9.56281103515625,-0.030190409471839666,0.005209743138076737,-0.07018120520710945
1738773105133803000,9.572802978515625,-0.037872050015628336,0.013193681963533162,-0.07465922740399837
1738773105143794200,9.582794189453125,-0.018361439990252255,-0.0096183259611018,-0.07347498605549335
1738773105153785000,9.59278515625,-0.02968289834111929,-0.00485048137162812,-0.062113049563765524
1738773105163776000,9.60277587890625,-0.032357378247380254,-0.0038935368398204445,-0.07094692888259888
1738773105173767000,9.612766845703124,-0.02147065805196762,-0.0032328535745386033,-0.07333236271440982
1738773105183758000,9.622758056640626,-0.021108839002251623,0.0032426717156544328,-0.06586392652988433
1738773105193749000,9.6327490234375,-0.03599310440123081,-0.007704546495340764,-0.07455985868275165
1738773105203740000,9.642739990234375,-0.029072219096869228,-0.0017777502622455357,-0.06828267810940743
1738773105213731000,9.65273095703125,-0.025439853943884372,-0.009702232251735403,-0.07697101147770881
1738773105223723000,9.662722900390625,-0.03261865953207016,-0.006763804179662838,-0.0696387688934803
1738773105233714000,9.6727138671875,-0.022766543081402777,0.003516511087818071,-0.0691851799070835
1738773105243705000,9.682705078125,-0.02619242587685585,0.001846577714756131,-0.07158230417668819
1738773105253696000,9.692696044921876,-0.029463118110597132,-0.0089742924365215,-0.05991583178043365
1738773105263687000,9.70268701171875,-0.0346853828035295,0.0005606569569092244,-0.06590367401838303
1738773105273678000,9.712677978515625,-0.03707914607226848,-0.008959597190888598,-0.06455752010643481
1738773105283669500,9.72266943359375,-0.0283490193888545,-0.0002437821606174111,-0.06738017631173134
1738773105293660400,9.732660400390625,-0.035897827333211896,0.0058184496209491045,-0.06769757169783115
1738773105303651300,9.7426513671875,-0.04873509707450866,-0.0031789496965240684,-0.06710545102357864
1738773105313643500,9.7526435546875,-0.027577742755413054,-0.005697937646973877,-0.06364449691474437
1738773105323634400,9.762634521484374,-0.025027473750710485,-0.0010606515014544128,-0.059606035178899765
1738773105333625600,9.77262548828125,-0.029535891085863113,0.0054932453877292575,-0.07235445759296417
1738773105343616500,9.782616455078125,-0.034523616370558736,-0.005370413592504337,-0.06546060642600059
1738773105353607400,9.792607421875,-0.040545653139054776,0.003578105081943795,-0.06287701967358589
1738773105363598300,9.802598388671875,-0.02736965296268463,-0.0076550539309624575,-0.08011866185367107
1738773105373589500,9.812589599609375,-0.03903875570744276,-0.01485748698990792,-0.0706926618605852
1738773105383580400,9.822580322265624,-0.0364250660777092,0.010227023310819641,-0.06828034002184867
1738773105393571300,9.8325712890625,-0.00942863034158945,-0.014297578951669856,-0.06323883872330188
1738773105403563500,9.8425634765625,-0.06006722294986248,-0.011979657398117705,-0.057988663110136986
1738773105413554400,9.852554443359375,-0.034492636710405346,-0.009988255252037196,-0.05735504138171672
1738773105423545300,9.86254541015625,-0.006312544147670269,0.005398945567244663,-0.07472527837753296
1738773105433536500,9.87253662109375,-0.0151341485068202,-0.011080425269762053,-0.060543023768067354
1738773105443527400,9.88252734375,-0.05397299772799015,-0.0035926633302588015,-0.062470192438364026
1738773105453518300,9.892518310546874,-0.02281272031068802,-0.011650580707378684,-0.053020227047801016
1738773105463509500,9.902509521484374,-0.013522767787426709,-0.00026106208898127076,-0.059490299844741815
1738773105473500400,9.91250048828125,-0.04122399079203606,-0.005168899671034887,-0.05409983897805214
1738773105483492400,9.922492431640626,-0.04902385088801384,-0.008527224522456526,-0.05047288065254688
1738773105493483500,9.9324833984375,-0.006645867755264044,-0.0016780984132084994,-0.06679097824692726
1738773105503474400,9.942474365234375,-0.025955694511532783,0.006654398121591657,-0.07520341728329658
1738773105513465300,9.95246533203125,-0.054329409950226545,-0.00042782435747794806,-0.06710369745790958
1738773105523456300,9.962456298828124,-0.0370914210319519,-0.003921274230116978,-0.060195233243703836
1738773105533447400,9.972447509765624,-0.021782208219170568,-0.005180443978356197,-0.08130582581162452
1738773105543438300,9.982438232421876,-0.036409868508577345,-0.006318937355838715,-0.06473638380467892
1738773105553429200,9.99242919921875,-0.04193009323477745,-0.0031732232086360453,-0.06276245338320732
1738773105563420400,10.00242041015625,-0.010549451065063477,-0.012018646834790706,-0.06529635577499866
1738773105573412400,10.012412353515625,-0.043846594380587335,-0.011232474026316776,-0.05857786117494106
1738773105583403300,10.0224033203125,-0.03745879303961992,0.0019885252024047077,-0.07251637015640736
1738773105593394400,10.03239453125,-0.0283631940446794,-0.005195093558216467,-0.06888590469956397
1738773105603385300,10.04238525390625,-0.017086451618373393,0.002403234349982813,-0.06785013191103935
1738773105613376300,10.052376220703126,-0.03709901981651783,-0.0086841777829919,-0.06082651688456535
1738773105623367400,10.062367431640626,-0.04579144483804703,-0.0016742716214619576,-0.0697697017967701
1738773105633358600,10.072358642578125,-0.018965981754660605,0.00350722266966477,-0.06349310574531555
1738773105643349500,10.082349609375,-0.026306699906289577,-0.021010264865448696,-0.07639291932880878
1738773105653340400,10.09234033203125,-0.04187807078659534,-0.004200392565596849,-0.05289806197285652
1738773105663332400,10.102332275390625,-0.03447627009749412,0.011077520926622673,-0.07053834808170795
1738773105673323500,10.112323486328124,-0.025745705022662876,-0.0023594134745653717,-0.06142156016826629
1738773105683314700,10.122314697265624,-0.04084273638948798,0.004825328664062545,-0.05903086563944816
1738773105693305600,10.1323056640625,-0.036150779180973765,-0.0072015562761109314,-0.07292728904485703
1738773105703296500,10.142296630859375,-0.019263503396511075,-0.004538748541334643,-0.06603928309679032
1738773105713287400,10.152287353515625,-0.030161914029717445,0.007255569751979783,-0.06350070452988148
1738773105723278600,10.162278564453125,-0.05157236632704734,-0.004494014350464567,-0.06289981602728366
1738773105733269500,10.17226953125,-0.03071998630389571,0.005260413879388943,-0.06470715771019458
1738773105743260400,10.182260498046874,-0.015514379996061324,-0.000653769467305392,-0.06951601929664611
1738773105753252600,10.192252685546874,-0.03993628906905651,-0.017435730846924707,-0.06217676244974136
1738773105763243500,10.202243408203126,-0.030180618730187413,0.009453015864174812,-0.054852703171968456
1738773105773234400,10.212234375,-0.043102644145488735,0.0012805595961399377,-0.06355272697806358
1738773105783225600,10.2222255859375,-0.028594226321578025,-0.004585583357745782,-0.07061608949303627
1738773105793216500,10.232216552734375,-0.039287908162921666,-0.0019353337104432284,-0.07060089192390441
1738773105803207400,10.24220751953125,-0.022391718419641254,0.004840727162593975,-0.05997428396940231
1738773105813198300,10.2521982421875,-0.019418401697278022,0.001304972518188879,-0.06853285347819328
1738773105823189500,10.262189453125,-0.03290887465029955,0.00008331263558939099,-0.052066871845722194
1738773105833180400,10.272180419921876,-0.0525374119669199,-0.00006480886451900006,-0.06223696820437908
1738773105843172600,10.282172607421876,-0.0185480486035347,0.0009939246744848787,-0.06089490594565868
1738773105853163500,10.29216357421875,-0.019818214669823645,0.0071211662499699735,-0.0661485886901617
1738773105863154400,10.302154541015625,-0.046563598254323005,0.00014800276909954845,-0.058227148041129106
1738773105873145300,10.312145263671875,-0.046075814737379546,-0.002144839142123237,-0.07137129177451133
1738773105883136500,10.322136474609374,-0.027039690355956554,-0.006117459966987371,-0.05222527727782726
1738773105893127400,10.33212744140625,-0.02576382520124316,-0.00013381898012012242,-0.0695996059268713
1738773105903118300,10.342118408203126,-0.03543941604122519,-0.005693645064346492,-0.06284487096965313
1738773105913109500,10.352109619140625,-0.02272504202723503,-0.009950106065580621,-0.07212006431519985
1738773105923100400,10.362100341796875,-0.019277531921863555,-0.011307986947940663,-0.06823182470500469
1738773105933092400,10.37209228515625,-0.02710603359043598,-0.0075240570955909785,-0.06403320397138595
1738773105943083500,10.38208349609375,-0.03979629607647657,0.008892669434519484,-0.07196925766766071
1738773105953074400,10.392074462890625,-0.03411488943919539,-0.008168492478970437,-0.05969838963747024
1738773105963065300,10.4020654296875,-0.04447963158711791,-0.004377575763408094,-0.05340542697310447
1738773105973056500,10.412056396484376,-0.015428455278277397,0.001603909798990935,-0.07181552841067314
1738773105983047400,10.42204736328125,-0.02668853883072734,-0.008302430190099403,-0.05175532167851925
1738773105993038300,10.432038330078125,-0.022647300615906713,-0.002610474759340286,-0.05295300703048706
1738773106003029200,10.442029296875,-0.01990472390949726,-0.013283442606218158,-0.07241524786949158
1738773106013020400,10.4520205078125,-0.03329319779276848,-0.001207740955101326,-0.06626490854620933
1738773106023012400,10.462012451171875,-0.023842355619370936,0.0019659845770336687,-0.06222995394170284
1738773106033003300,10.472003173828124,-0.02856193148717284,-0.007270621190639212,-0.06853051539063454
1738773106042994400,10.481994384765626,-0.04147928072735667,-0.010245289619872346,-0.06226794786453247
1738773106052985300,10.4919853515625,-0.046290626531839366,-0.006641310311155393,-0.05370119504928589
1738773106062976300,10.501976318359375,-0.009122048610448836,-0.013472042247187345,-0.06329086117148398
1738773106072967400,10.511967529296875,-0.02052256354689598,-0.008145002005528658,-0.05718260742425918
1738773106082958300,10.521958251953125,-0.044306028585880994,-0.0025847649293486027,-0.06328969212770462
1738773106092949500,10.531949462890625,-0.027201310658454894,-0.020024560030037535,-0.06928630219399928
1738773106102940700,10.541940673828124,-0.026597937937825916,-0.0018229776434600352,-0.07066752741932869
1738773106112932400,10.551932373046874,-0.04356032478511333,-0.004774758387450129,-0.07020750869214534
1738773106122923300,10.56192333984375,-0.03570551963150501,-0.018658313178131356,-0.06345803443193436
1738773106132914400,10.57191455078125,-0.017827186983078717,-0.003087773414887488,-0.06526888324618339
1738773106142905600,10.581905517578125,-0.04272138974294066,0.005678739756159484,-0.07034545585811137
1738773106152896500,10.591896484375,-0.039621816292405125,-0.004508773528179154,-0.06973930665850639
1738773106162887400,10.601887451171875,-0.02933949173092842,-0.016141782046249137,-0.05719312881827354
1738773106172878600,10.611878662109374,-0.03578384556472301,0.01106002180255018,-0.06108312199413776
1738773106182869500,10.621869384765626,-0.02396715104281902,-0.0017518943017814307,-0.07140577856600284
1738773106192860400,10.6318603515625,-0.029707009869068858,-0.009917829497484489,-0.06200023683905601
1738773106202852600,10.6418525390625,-0.04395955323576927,-0.002317391830589622,-0.07055471469461917
1738773106212843500,10.651843505859375,-0.03099251963496208,-0.015277255905093625,-0.08027122206687927
1738773106222834400,10.66183447265625,-0.017399901481717824,-0.003759142470965162,-0.06111234808862209
1738773106232825600,10.67182568359375,-0.03633621875047684,0.00959358424548991,-0.05499240390360355
1738773106242816500,10.68181640625,-0.043038200607150794,-0.005900766742695122,-0.0671200640708208
1738773106252807400,10.691807373046874,-0.04189224544242024,-0.009493357007717713,-0.056634325891733166
1738773106262798600,10.701798583984376,-0.01799260667786002,0.00004484378872439265,-0.05411386750340461
1738773106272789500,10.71178955078125,-0.03627878947481513,0.0012860486220102757,-0.07356032625138759
1738773106282781000,10.721781005859375,-0.030012276425957676,-0.0018275350875686853,-0.053771922197937964
1738773106292771800,10.731771728515625,-0.008221884900331497,-0.006318973888456821,-0.0759387458205223
1738773106302762800,10.7417626953125,-0.032979017277061935,-0.00033392639579251407,-0.06263853474259376
1738773106312754000,10.75175390625,-0.056845630554854865,-0.007231165963085368,-0.05780220062732696
1738773106322744800,10.761744873046876,-0.017281097407639025,-0.009650666461279616,-0.06679273181259632
1738773106332735700,10.77173583984375,-0.016436463277041912,0.0019216431118082254,-0.05726794762015342
1738773106342727000,10.781726806640625,-0.054335693560540674,-0.00045251127416267987,-0.06276420694887638
1738773106352717800,10.7917177734375,-0.029974867025017737,0.00005191285032778978,-0.061710313981771465
1738773106362708700,10.801708740234375,-0.026274697332829236,-0.0012368939843494444,-0.06592413228452206
1738773106372701000,10.811700927734375,-0.02784896091222763,-0.0031835619395598766,-0.062166825577616686
1738773106382691800,10.82169189453125,-0.02235737775862217,-0.014697994712414219,-0.08325579083561897
1738773106392682800,10.831682861328124,-0.05283420295640826,-0.00656243638866581,-0.06516133121848106
1738773106402674000,10.841673828125,-0.037501609268039464,-0.001781303059356287,-0.0630810178130865
1738773106412664800,10.851664794921875,-0.02896042928546667,0.00558601997140795,-0.06772270613908768
1738773106422655700,10.86165576171875,-0.038422523505240676,-0.003194457792909816,-0.0644236645936966
1738773106432646700,10.871646728515625,-0.019388591080904006,-0.008076238485099748,-0.06308394042253494
1738773106442637800,10.881637939453125,-0.03515957618653774,-0.010582732280157506,-0.07040332352519035
1738773106452628700,10.891628662109374,-0.03243161252737045,-0.004642747771926224,-0.06622106940448284
1738773106462621000,10.901620849609374,-0.020789397789537905,0.0017854677778203038,-0.062356795191764826
1738773106472611800,10.91161181640625,-0.028968174200505018,0.002840246660914272,-0.06996668567359447
1738773106482602800,10.921602783203125,-0.017959288930147886,0.0040536136392038315,-0.075489833009243
1738773106492593700,10.93159375,-0.019781974312663077,0.004537479032855481,-0.07042904248833656
1738773106502584800,10.941584716796875,-0.04550079132840037,-0.0010447232799604535,-0.06115501818656921
1738773106512575700,10.95157568359375,-0.021868717458844184,-0.00446483392175287,-0.0575607930868864
1738773106522567000,10.96156689453125,-0.022957974000275133,-0.010900885718083009,-0.0710199941188097
1738773106532558000,10.97155810546875,-0.038913229631632566,-0.00847162187770009,-0.06893792714774608
1738773106542549000,10.981549072265626,-0.04455108938813209,-0.0012190386672504246,-0.05559738405942916
1738773106552540000,10.991539794921875,-0.036924832293391226,-0.001657795410696417,-0.06633738926053047
1738773106562531800,11.00153173828125,-0.02337240002006292,0.019860811702534554,-0.07593290060162544
1738773106572522800,11.011522705078125,-0.039430093112587924,0.0016006309965159744,-0.06709376058578491
1738773106582514000,11.021513916015625,-0.044321372285485265,-0.010757696121418848,-0.06692191115021705
1738773106592505000,11.031505126953125,-0.02218888932392001,-0.012134044242231174,-0.06392799003124237
1738773106602496000,11.04149609375,-0.042200580739229915,-0.008478910135012119,-0.06181026722490787
1738773106612487000,11.05148681640625,-0.01926744891926646,0.0013637443675659595,-0.07229308279454708
1738773106622477800,11.061477783203125,-0.037555969803780315,0.004288408775767311,-0.06285948401689528
1738773106632469000,11.071468994140625,-0.026228373973071574,0.006316416605189442,-0.06422960332632065
1738773106642460000,11.0814599609375,-0.01729746402055025,0.0015332922481931745,-0.07233224576115607
1738773106652451800,11.091451904296875,-0.040466888814419504,0.006538151330780237,-0.06377659886181354
1738773106662443000,11.101443115234375,-0.013882102619111537,0.012226225170865654,-0.06301905849277972
1738773106672434000,11.111433837890624,-0.02639671627730131,0.007275589626701548,-0.07129471940696239
1738773106682424800,11.1214248046875,-0.057589288529008624,-0.013950756541686132,-0.05886076976954937
1738773106692416000,11.131416015625,-0.03743263568505645,-0.002871792576648295,-0.05346387916207313
1738773106702407000,11.141406982421875,-0.029665947206318377,-0.0009506517883390188,-0.06471651006042957
1738773106712397800,11.151397705078125,-0.05762567501664161,0.005490404976671561,-0.05813713167011737
1738773106722388700,11.161388671875,-0.02403963175714016,0.002358052634540945,-0.06425415324568748
1738773106732380000,11.1713798828125,-0.027484657644480465,-0.01104084217804484,-0.06320669001936913
1738773106742371800,11.181371826171874,-0.028231530489027497,-0.0013571410968434064,-0.07341478030085563
1738773106752363000,11.191363037109374,-0.038188276357948775,-0.004163266292447224,-0.07040507709085941
1738773106762354000,11.20135400390625,-0.04562222575098276,0.0021830979264341292,-0.07068097142279148
1738773106772344800,11.2113447265625,-0.014687281522154807,0.00380625128201209,-0.06756137809753418
1738773106782335700,11.221335693359375,-0.03037263417094946,-0.00900176496533677,-0.06502513761818408
1738773106792327000,11.231326904296875,-0.042595279145240784,-0.012678316319920122,-0.05605564922094345
1738773106802317800,11.24131787109375,-0.030797581584751606,-0.012286166064022108,-0.07580196769833564
1738773106812308700,11.251308837890624,-0.02604264214262366,-0.013647097419993951,-0.07070727490782737
1738773106822300000,11.2612998046875,-0.021934622301906345,-0.005340146318404003,-0.07730477347671985
1738773106832291800,11.271291748046876,-0.03162541071102023,-0.00400553671377711,-0.06040332303643226
1738773106842282800,11.28128271484375,-0.04023366458043456,-0.0023063407136127353,-0.06266191561818123
1738773106852274000,11.29127392578125,-0.04534355494007468,-0.004449535887921229,-0.05978314531147479
1738773106862264800,11.301264892578125,-0.029709932478517293,0.0034995234203990546,-0.07173720247745513
1738773106872255700,11.311255859375,-0.0168333536401391,-0.0017060549992136656,-0.08404197277724743
1738773106882247000,11.321246826171874,-0.042592941057682035,-0.0022578527962323278,-0.06982230876684188
1738773106892237800,11.33123779296875,-0.04983209853097796,0.008207445383025333,-0.05828793831765652
1738773106902228700,11.341228759765626,-0.012617489510774611,-0.0019734189648181197,-0.06803659439384938
1738773106912221000,11.351220947265626,-0.0460585713416338,-0.0034229601860046384,-0.06667290482521057
1738773106922211800,11.3612119140625,-0.04174465366527438,-0.0059816134265623985,-0.05843757592141628
1738773106932202800,11.37120263671875,-0.029000907426327466,-0.008637242501880972,-0.06027122108936309
1738773106942193700,11.381193603515625,-0.037909021025151014,0.0025817875209730116,-0.0743178666204214
1738773106952184800,11.391184814453124,-0.014705840092152356,-0.00808159051365219,-0.06908230405449867
1738773106962175700,11.40117578125,-0.02568842187747359,-0.002773391969781369,-0.06251753871142864
1738773106972166700,11.411166748046876,-0.04393909496963024,0.007552579937176778,-0.054255321800708765
1738773106982157800,11.42115771484375,-0.018181261117756364,-0.0023004406957887113,-0.06664835490584373
1738773106992149000,11.43114892578125,-0.01687558534666896,0.005559159363945946,-0.06607201632261275
1738773107002140000,11.441139892578125,-0.033719168119877574,-0.0022294486856553703,-0.07521393867731094
1738773107012131800,11.4511318359375,-0.028106004413217305,-0.0026420663408469407,-0.06966214976906776
1738773107022122800,11.461122802734375,-0.03377484382987022,-0.006557924610329792,-0.061734863901138304
1738773107032113700,11.47111376953125,-0.02354264202043414,-0.00747414440610446,-0.07371756263971328
1738773107042104800,11.481104736328126,-0.03870338627323508,0.001979848705604672,-0.06936813525855541
1738773107052096000,11.491095947265626,-0.03126081518232822,-0.0016455204510129988,-0.07130465627908707
1738773107062087000,11.5010869140625,-0.010594897641986609,-0.0031660262828692794,-0.05697510215342044
1738773107072077800,11.511077880859375,-0.03642097442448139,-0.005875586635665968,-0.058334700068831444
1738773107082069000,11.521069091796875,-0.030804741977900264,-0.011703142011677846,-0.06415595356822014
1738773107092060000,11.531059814453124,-0.020555589033663273,-0.0008430358285550027,-0.0598310761064291
1738773107102052000,11.541052001953124,-0.05014028769731521,0.002015833334438503,-0.05699789850711822
1738773107112043000,11.55104296875,-0.03239595669209957,-0.009525423513259738,-0.06311901173591614
1738773107122034000,11.561033935546876,-0.020323826104402542,-0.009635962082492186,-0.0702922643661499
1738773107132024800,11.57102490234375,-0.036467736175656316,-0.008910771346790716,-0.06805120744109153
1738773107142016000,11.58101611328125,-0.031095395487546917,-0.006396724432939663,-0.06400690048635005
1738773107152007000,11.5910068359375,-0.043404257440567015,-0.005710048209875822,-0.06354921984672546
1738773107161997800,11.600997802734375,-0.045128597015142435,-0.009256105052586644,-0.0641314036488533
1738773107171989000,11.610989013671874,-0.03280278392732143,0.005029902192298322,-0.07282090606093407
1738773107181980000,11.62097998046875,-0.02644377028942108,-0.0020223818062338975,-0.05727496188282966
1738773107191971800,11.630971923828126,-0.039161213043332095,0.0012779749134089796,-0.057873512297868725
1738773107201963000,11.640962890625,-0.04170972848236561,-0.000016302680829539895,-0.06116553958058357
1738773107211954000,11.650953857421875,-0.02581424021422863,-0.011486996776657179,-0.0776338593006134
1738773107221944800,11.66094482421875,-0.03087707656174898,-0.005408827640442177,-0.06294307064712047
1738773107231936000,11.67093603515625,-0.02269216267094016,-0.0014160682098474354,-0.07550386153459548
1738773107241927000,11.680927001953124,-0.03454612046331167,-0.0025785909168887884,-0.06759878749847412
1738773107251917800,11.690917724609376,-0.030206629954278467,0.00581963693103753,-0.07268646602630614
1738773107261908700,11.70090869140625,-0.011614449948072432,-0.009876209712307899,-0.06446516564786434
1738773107271900000,11.71089990234375,-0.052233460584282874,-0.0031977913943119344,-0.0659784928202629
1738773107281891600,11.7208916015625,-0.023140052568912505,-0.0014966134996153414,-0.0688023180693388
1738773107291882500,11.730882568359375,-0.02236833754405379,-0.007415189893636852,-0.07524082668423653
1738773107301873700,11.740873779296875,-0.055768648973107335,0.0031916082486975936,-0.06086684889495372
1738773107311864600,11.750864501953124,-0.03791530463546514,0.002696682604914531,-0.06147533618211746
1738773107321855500,11.76085546875,-0.027038229051232335,-0.0025087131516076623,-0.06493862837851047
1738773107331846400,11.770846435546876,-0.039028818835318085,-0.0004529313992708921,-0.04952244805991649
1738773107341837600,11.780837646484375,-0.02701192556619644,-0.00035031127501279115,-0.06685819826424122
1738773107351828500,11.790828369140625,-0.030980244675278663,-0.005281885925680399,-0.07345803492069244
1738773107361819400,11.8008193359375,-0.04012859677076339,-0.006807972114952281,-0.06675356884598732
1738773107371811600,11.8108115234375,-0.035016806714981794,-0.003122598133096471,-0.05448796151280403
1738773107381802500,11.820802490234374,-0.03564034544080496,0.006171272513456642,-0.06585574322342873
1738773107391793400,11.83079345703125,-0.025966508166491983,0.0074185326281934975,-0.04818798458576202
