time,seconds_elapsed,z,y,x
1738773095587293700,0.026293701171875,0.000540576409548521,0.018652446568012238,-0.0005947247846052051
1738773095597284900,0.036284912109375,-8.441274985671043e-7,0.009954029694199562,-0.0007726239273324609
1738773095607275800,0.04627587890625,-0.0012267177226021886,-0.019469156861305237,0.00020744180073961616
1738773095617266700,0.0562666015625,0.0002974093658849597,-0.0022419672459363937,0.0005917359958402812
1738773095627259000,0.0662587890625,-0.0011317923199385405,0.017515582963824272,-0.0008580241119489074
1738773095637249800,0.076249755859375,-0.0008486983133479953,-0.004123931750655174,-0.0009621537174098194
1738773095647240700,0.08624072265625,-0.0008472328190691769,-0.011706875637173653,0.0016483162762597203
1738773095657232000,0.09623193359375,0.002232180442661047,0.009523844346404076,0.0005897098453715444
1738773095667222800,0.106222900390625,-0.00020185636822134256,0.00507156178355217,-0.0013082134537398815
1738773095677213700,0.116213623046875,-0.0010519373463466763,-0.011943373829126358,0.0013799812877550721
1738773095687204600,0.12620458984375,0.001219915458932519,0.0013006017543375492,-0.000052330316975712776
1738773095697195800,0.13619580078125,0.0009855572134256363,0.008804857730865479,0.001244362792931497
1738773095707186700,0.146186767578125,0.0003672594903036952,-0.005155991297215223,-0.00012765693827532232
1738773095717178600,0.1561787109375,0.00008389912545681,-0.007296639960259199,0.0004795437853317708
1738773095727169800,0.166169677734375,0.002416641917079687,0.0063066924922168255,-0.0005106470780447125
1738773095737160700,0.17616064453125,0.0019396698335185647,0.004407059866935015,-0.0011969436891376972
1738773095747151600,0.186151611328125,0.0004036477766931057,-0.005779042840003967,0.0006336629157885909
1738773095757142800,0.196142822265625,0.0002656959695741534,0.00030814437195658684,-0.0017216367414221168
1738773095767133700,0.2061337890625,-0.00006103923078626394,0.004193649161607027,-0.0007317544659599662
1738773095777124600,0.21612451171875,-0.0004261586582288146,-0.004358559846878052,-0.0005844816914759576
1738773095787115800,0.22611572265625,0.001010898849926889,-0.002447641221806407,0.0010666311718523502
1738773095797107700,0.236107666015625,0.0021715043112635612,0.005981263238936663,-0.000370943162124604
1738773095807098600,0.2460986328125,-0.0017114469083026052,0.00023472541943192482,-0.0015236278995871544
1738773095817089800,0.25608984375,0.0010028468677774072,-0.004699046723544598,0.0002748047700151801
1738773095827080700,0.266080810546875,0.0011121160350739956,0.0002791043370962143,-0.0005910210311412811
1738773095837071600,0.276071533203125,0.0010575212072581053,0.0050307163037359715,-0.0001119183434639126
1738773095847062500,0.2860625,0.0009618175681680441,-0.0006288869772106409,-0.00007888409891165793
1738773095857053700,0.2960537109375,0.0019229522440582514,-0.0015442154835909605,-0.00037769076880067587
1738773095867044600,0.306044677734375,0.0022734361700713634,0.00036780256778001785,-0.0011182010639458895
1738773095877036800,0.316036865234375,0.0019360134610906243,-0.0012846889439970255,-0.001848706160672009
1738773095887027700,0.32602783203125,-0.0006219008937478065,-0.00014210492372512817,-0.0006864016177132726
1738773095897018600,0.3360185546875,-0.0002549173077568412,-0.00011520693078637123,-0.001345533994026482
1738773095907009500,0.346009521484375,0.0018856324022635818,-0.000529200304299593,-0.0007320208242163062
1738773095917000700,0.356000732421875,0.0009889461798593402,-0.0018405409064143896,-0.0002776855253614485
1738773095926991600,0.36599169921875,-0.001637171022593975,-0.0011028931476175785,-0.0001509344147052616
1738773095936982500,0.375982421875,0.0005367674166336656,0.0037001175805926323,-0.000014314224245026708
1738773095946973700,0.3859736328125,0.00021079881116747856,0.000012806151062250137,-0.0013597873039543629
1738773095956964600,0.395964599609375,0.0005500854458659887,-0.003182187909260392,0.001639464870095253
1738773095966956500,0.40595654296875,-0.00040643138345330954,-0.00045267329551279545,-0.0002515579108148813
1738773095976947700,0.41594775390625,-0.00044531363528221846,-0.0007948894053697586,0.001046200399287045
1738773095986938600,0.425938720703125,0.0006292496109381318,-0.002069478388875723,-0.00030162534676492214
1738773095996929500,0.435929443359375,0.00028836505953222513,0.00013934774324297905,-0.0003972328267991543
1738773096006920700,0.445920654296875,0.00024502130690962076,0.00135445361956954,-0.0006446691695600748
1738773096016912000,0.455911865234375,0.002152110915631056,-0.0008615627884864807,-0.0007786261267028749
1738773096026902800,0.46590283203125,0.0011195223778486252,-0.0010986216366291046,0.0003649397403933108
1738773096036893700,0.475893798828125,-0.0006224513635970652,0.0017136763781309128,-0.00039086537435650826
1738773096046885600,0.4858857421875,-0.0002458293456584215,0.0002141711302101612,-0.001973204780369997
1738773096056876500,0.49587646484375,-0.000017063808627426624,-0.0030559240840375423,0.0011719884350895882
1738773096066867700,0.50586767578125,-0.0007171052857302129,-0.0018475055694580078,-0.0005452518234960735
1738773096076859000,0.51585888671875,-0.00036237225867807865,0.002640453167259693,-0.0013905391097068787
1738773096086849800,0.525849853515625,-0.00010553724132478237,-0.0011256651487201452,-0.0004928518901579082
1738773096096840700,0.5358408203125,-0.0007699958514422178,-0.0004534830804914236,-0.0003559653996489942
1738773096106832000,0.545831787109375,0.000422127777710557,0.0002861679531633854,-0.001534344395622611
1738773096116822800,0.55582275390625,0.0012410498457029462,0.0004422292113304138,-0.00044005148811265826
1738773096126814700,0.565814697265625,-0.00019380729645490646,-0.0018673075828701258,-0.0011699112365022302
1738773096136806000,0.575805908203125,0.0006219190545380116,0.00042221229523420334,-0.00010011944686993957
1738773096146796800,0.585796875,0.0003002653829753399,0.0029410365968942642,0.0019102136138826609
1738773096156787700,0.59578759765625,0.0017277197912335396,-0.0006185444071888924,-0.0004373628762550652
1738773096166779000,0.60577880859375,-0.0006866176845505834,-0.002919340506196022,0.0009598584729246795
1738773096176769800,0.615769775390625,0.000041490537114441395,0.0022112391889095306,5.878100637346506e-7
1738773096186760700,0.6257607421875,-0.0004946769331581891,0.0015680347569286823,-0.00000831388751976192
1738773096196751600,0.635751708984375,0.001748770009726286,-0.0021382863633334637,0.0008513545035384595
1738773096206743800,0.645743896484375,-0.000521998677868396,-0.0006533442065119743,-0.0012443455634638667
1738773096216734700,0.655734619140625,-0.00035688269417732954,0.0020985002629458904,-0.00010611052857711911
1738773096226725600,0.6657255859375,-0.0005980231217108667,0.001074149738997221,0.0009136769222095609
1738773096236716800,0.675716796875,-0.00048350717406719923,0.0006078304722905159,0.00014109391486272216
1738773096246707700,0.685707763671875,-0.00031380599830299616,0.0010354900732636452,-0.0005602160235866904
1738773096256698600,0.69569873046875,0.0006169688422232866,-0.0015754729975014925,0.00018706702394410968
1738773096266688800,0.705688720703125,0.0007630424806848168,-0.0004574230406433344,-0.00008050276665017009
1738773096276679700,0.7156796875,0.0017265743808820844,0.0025817761197686195,-0.000410468433983624
1738773096286670600,0.725670654296875,-0.000742271717172116,0.0020678332075476646,0.00019679850083775818
1738773096296662800,0.735662841796875,-0.0012157817836850882,-0.00018093991093337536,0.0010735112009570003
1738773096306653700,0.74565380859375,-0.0017879519145935774,-0.0005371940787881613,-0.0005671840626746416
1738773096316644600,0.75564453125,-0.0005956547101959586,0.0013027838431298733,-0.000037481338949874043
1738773096326635800,0.7656357421875,-0.0002450706670060754,0.00010431604459881783,0.00013972262968309224
1738773096336626700,0.775626708984375,-0.0011228485964238644,-0.00236629880964756,0.00022893850109539926
1738773096346617600,0.78561767578125,0.0005106885218992829,0.0008325269445776939,0.0007969904108904302
1738773096356608500,0.7956083984375,-0.0007228877511806786,-0.0001291404478251934,0.000504575262311846
1738773096366599700,0.805599609375,0.0011361133074387908,-0.0018451681826263666,-0.00030877921381033957
1738773096376591600,0.815591552734375,0.0007379708113148808,-0.0004973425529897213,0.00006965597276575863
1738773096386582800,0.825582763671875,0.0009577244054526091,-0.00006765266880393028,0.0005962937138974667
1738773096396573700,0.83557373046875,-0.0014191470108926296,-0.0021438528783619404,0.0006695307092741132
1738773096406564600,0.845564697265625,-0.00007836369331926107,-0.001283644000068307,0.0013688434846699238
1738773096416555500,0.855555419921875,-0.0002701112534850836,0.00020133471116423607,0.00008892823825590312
1738773096426546700,0.865546630859375,0.000363121391274035,0.0023292633704841137,-0.0006719790399074554
1738773096436537900,0.875537841796875,-0.0014630082296207547,-0.0024724160321056843,-0.0011279121972620487
1738773096446528800,0.88552880859375,0.00004678883124142885,-0.0012789799366146326,-0.000059993035392835736
1738773096456520700,0.895520751953125,-0.0005633414257317781,0.0010137353092432022,-0.0000956793810473755
1738773096466511600,0.90551171875,0.0006841664435341954,-0.000601509353145957,-0.0005650835228152573
1738773096476502800,0.915502685546875,0.0009843047009781003,-0.00040363636799156666,-0.0006063625332899392
1738773096486494000,0.925493896484375,-0.00036566180642694235,0.00069392379373312,0.0003250096342526376
1738773096496484900,0.93548486328125,0.0002985305618494749,0.0005589015781879425,0.0012667033588513732
1738773096506475800,0.945475830078125,0.0008214720292016864,-0.00020450400188565254,-0.000537198968231678
1738773096516467000,0.955467041015625,0.000009740469977259636,-0.001386414747685194,-0.0008147003827616572
1738773096526457900,0.965457763671875,-0.00018671329598873854,0.0008987756446003914,0.00013432634295895696
1738773096536449800,0.97544970703125,0.0009118405869230628,0.0013749492354691029,-0.0008550380007363856
1738773096546441000,0.98544091796875,-0.001058574765920639,0.000025832094252109528,-0.0008189248037524521
1738773096556432000,0.995431884765625,0.0003393184160813689,-0.0023409193381667137,-0.0001430145202903077
1738773096566422800,1.0054228515625,0.00032532750628888607,0.00021136458963155746,-0.00011079004616476595
1738773096576413700,1.01541357421875,-0.0014430114533752203,0.0018516057170927525,0.0006098613375797868
1738773096586404900,1.02540478515625,0.00015266938135027885,-0.0011375374160706997,0.000655090669170022
1738773096596395800,1.035395751953125,-0.00006570981349796057,0.00054531404748559,0.0002220606547780335
1738773096606386700,1.04538671875,0.0018362276023253798,0.0010619615204632282,-0.0002261627378175035
1738773096616377900,1.0553779296875,-0.002031215000897646,-0.0012539231684058905,0.0008212584652937949
1738773096626369800,1.065369873046875,-0.00005455478094518185,-0.0005861830431967974,0.0005910219624638557
1738773096636360700,1.075360595703125,0.0009396033128723502,0.0014436785131692886,-0.0009709220030345023
1738773096646352000,1.085351806640625,0.0006733664777129889,-0.00012779515236616135,0.00209243968129158
1738773096656342800,1.0953427734375,0.0006933403201401234,-0.0017595139797776937,0.000506261014379561
1738773096666333700,1.105333740234375,0.00048323150258511305,-0.00018430035561323166,-0.00020913223852403462
1738773096676324900,1.115324951171875,0.0014566169120371342,0.00012942031025886536,-0.0003609324339777231
1738773096686315800,1.125315673828125,-0.0011830524308606982,-0.0016751282382756472,0.0009748037555254996
1738773096696306700,1.135306640625,0.001500881277024746,-0.00026045716367661953,-0.000710977241396904
1738773096706299000,1.145298828125,-0.0012161117047071457,-0.0004465370438992977,0.00019949805573560297
1738773096716289800,1.155289794921875,-0.0005218256847001612,-0.00046411389485001564,0.00009803162538446486
1738773096726280700,1.16528076171875,0.0003867257619276643,0.0005361400544643402,0.0007936698384582996
1738773096736271600,1.175271728515625,0.0008482515113428235,-0.000655358424410224,0.0004221589188091457
1738773096746262800,1.1852626953125,0.0013142137322574854,-0.000050626229494810104,0.0006527439691126347
1738773096756253700,1.195253662109375,-0.0005494664655998349,0.0009035840630531311,0.0006114650168456137
1738773096766244600,1.20524462890625,-0.000005989451892673969,0.0004208814352750778,-0.00044585191062651575
1738773096776235800,1.21523583984375,0.00008615595288574696,0.0017535272054374218,-0.00032893914612941444
1738773096786226700,1.225226806640625,0.00045923900324851274,-0.001984333386644721,0.0011713751591742039
1738773096796218600,1.235218505859375,-0.0009205447277054191,-0.0010506289545446634,0.001266982639208436
1738773096806209800,1.245209716796875,0.0009402154246345162,0.001178354024887085,-0.0011660840827971697
1738773096816200700,1.25520068359375,-0.00004542048554867506,-0.00027067167684435844,-0.00030401875847019255
1738773096826191600,1.265191650390625,0.0005324649391695857,-0.0006508065853267908,0.0003552271518856287
1738773096836182800,1.275182861328125,-0.0003240075893700123,0.0007076719775795937,-0.0013414728455245495
1738773096846173700,1.285173583984375,0.0011082976125180721,-0.0008551515638828278,0.00047961482778191566
1738773096856164600,1.29516455078125,0.0007847233209758997,0.0001991940662264824,0.00031902623595669866
1738773096866155500,1.305155517578125,-0.0004266024334356189,0.0018921038135886192,-0.0009044556063599885
1738773096876147700,1.315147705078125,0.000001900247298181057,-0.0006922278553247452,-0.00041283603059127927
1738773096886138600,1.325138671875,-0.001138400170020759,-0.0008650948293507099,-0.00043208402348682284
1738773096896129800,1.3351298828125,-0.0002867212751880288,0.00043292995542287827,0.0002321083447895944
1738773096906120700,1.34512060546875,0.002005951013416052,-0.00005713501013815403,-0.0015160241164267063
1738773096916111600,1.355111572265625,-0.0010891748825088143,-0.00047525111585855484,0.00007867682143114507
1738773096926102500,1.3651025390625,0.0022557522170245647,0.0002798275090754032,-0.0007235288503579795
1738773096936093700,1.37509375,0.00200994242914021,0.0020998320542275906,0.00014333007857203484
1738773096946084900,1.3850849609375,-0.00023781682830303907,-0.00019196211360394955,-0.0008356827311217785
1738773096956075800,1.39507568359375,0.001116400700993836,-0.00003856397233903408,-0.0000641650112811476
1738773096966067700,1.405067626953125,0.00032079650554805994,0.0037314416840672493,-0.00027523734024725854
1738773096976058600,1.41505859375,-0.0008680386235937476,-0.003162150736898184,0.0004139887751080096
1738773096986049500,1.425049560546875,-0.0008597728447057307,-0.004093116149306297,-0.00031538779148831964
1738773096996040700,1.435040771484375,-0.0007620348478667438,0.00111070042476058,0.0012356372317299247
1738773097006032000,1.445031982421875,0.0009807557798922062,0.00031105801463127136,-0.0002394643670413643
1738773097016022800,1.455022705078125,0.0006681005470454693,-0.0015864444430917501,0.0008260663598775864
1738773097026014000,1.465013916015625,0.0002841266104951501,-0.0019154301844537258,0.00044411944691091776
1738773097036004900,1.4750048828125,-0.000805372663307935,0.0009967363439500332,0.000009757874067872763
1738773097045996500,1.48499658203125,0.00017804012168198824,-0.0004920794162899256,-0.00048175404663197696
1738773097055987700,1.49498779296875,-0.0008051989134401083,-0.001460671192035079,0.0005888366722501814
1738773097065979000,1.504978759765625,0.0005532378563657403,-0.0005556831602007151,-0.0010220806580036879
1738773097075969800,1.5149697265625,0.0015162368072196841,-0.0001314415130764246,0.0005981866270303726
1738773097085960700,1.524960693359375,-0.00164357153698802,0.00021333666518330574,-0.000010431511327624321
1738773097095952000,1.534951904296875,0.0004920173669233918,0.001187254674732685,-0.0009385431767441332
1738773097105942800,1.54494287109375,0.001711909775622189,-0.0010857481975108385,0.00004046206595376134
1738773097115933700,1.55493359375,-0.0000047639477998018265,-0.0004766832571476698,0.0006676364573650062
1738773097125924900,1.5649248046875,0.0003415683750063181,0.000937742181122303,-0.000934572599362582
1738773097135916800,1.574916748046875,-0.0007370118983089924,0.0008687665686011314,-0.0007433575810864568
1738773097145907700,1.58490771484375,-0.000616990786511451,-0.0011723123025149107,-0.0002732427674345672
1738773097155899000,1.59489892578125,0.00010366062633693218,0.0005177296698093414,0.0012253180611878633
1738773097165889800,1.604889892578125,0.00037020258605480194,0.0009412858635187149,0.00023705593775957823
1738773097175880700,1.614880615234375,0.00011933280620723963,-0.00011838600039482117,-0.00022473616991192102
1738773097185872000,1.624871826171875,-0.0003742116969078779,0.000040090177208185196,0.0006267258431762457
1738773097195862800,1.63486279296875,0.00022207002621144056,-0.001774854026734829,0.0004203308781143278
1738773097205853700,1.644853759765625,-0.00045999319991096854,-0.001005677506327629,0.0006408798508346081
1738773097215846000,1.654845947265625,-0.00028901826590299606,-0.0003287019208073616,-0.0003237171040382236
1738773097225836800,1.6648369140625,-0.0014143745647743344,-0.0014377380721271038,0.0012622810900211334
1738773097235827700,1.67482763671875,0.0013923309743404388,-0.0005192139651626348,-0.0016541465884074569
1738773097245819000,1.68481884765625,-0.000013909535482525826,-0.00043919566087424755,0.0001749275834299624
1738773097255809800,1.694809814453125,0.00011019373778253794,-0.0009859425481408834,-0.0015185766387730837
1738773097265800700,1.70480078125,0.0012791637564077973,-0.001995630096644163,-0.000873799086548388
1738773097275792600,1.714792724609375,-0.00015974219422787428,0.001592446817085147,0.0001073094317689538
1738773097285783800,1.72478369140625,0.0003923687618225813,-0.0007903261575847864,-0.0010720661375671625
1738773097295774700,1.734774658203125,-0.0027190023101866245,0.000461093382909894,0.00008054994395934045
1738773097305766700,1.7447666015625,-0.002090608701109886,0.0002432537730783224,0.0005725196679122746
1738773097315757800,1.7547578125,0.0005957217654213309,-0.0011109637562185526,0.0006723881815560162
1738773097325748700,1.764748779296875,0.0014166805194690824,-0.000037883175536990166,-0.00022232338960748166
1738773097335739600,1.77473974609375,0.0006523531628772616,-0.001034704502671957,0.00031962987850420177
1738773097345730800,1.784730712890625,-0.002140473574399948,-0.0002453217748552561,0.0008964253356680274
1738773097355721700,1.7947216796875,0.0001194848446175456,0.0013728151097893715,-0.00133290677331388
1738773097365712600,1.804712646484375,0.0002742419019341469,-0.0005978066474199295,-0.0004806312208529562
1738773097375703800,1.814703857421875,-0.0013103389646857977,-0.0011642610188573599,-0.0005019365344196558
1738773097385695700,1.82469580078125,-0.00044628174509853125,-0.000010458985343575478,-0.0009591709240339696
1738773097395686700,1.834686767578125,-0.00046945124631747603,0.0001903432421386242,-0.000817490741610527
1738773097405677800,1.844677734375,-0.0010904939845204353,-0.0016707205213606358,0.00011988467304036021
1738773097415668700,1.854668701171875,0.00048157002311199903,-0.00039373477920889854,-0.00020448835857678205
1738773097425659600,1.86465966796875,0.00007493840530514717,0.0019799936562776566,-0.00022361695300787687
1738773097435650600,1.874650634765625,-0.00027899572160094976,-0.001680521061643958,0.00014123611617833376
1738773097445641700,1.884641845703125,0.0009896474657580256,-0.002865817863494158,-0.001799854333512485
1738773097455632600,1.894632568359375,0.0004820488393306732,0.0033502664882689714,-0.0008523015421815217
1738773097465623600,1.90462353515625,-0.0013346835039556026,0.0013139857910573483,0.0011480128159746528
1738773097475614700,1.91461474609375,0.0005657480796799064,-0.001806972548365593,-0.0001777087163645774
1738773097485606700,1.924606689453125,0.0015192796709015965,0.0008977337274700403,-0.0010765979532152414
1738773097495597600,1.93459765625,0.0011773299193009734,0.0011528648901730776,0.0015428871847689152
1738773097505588700,1.944588623046875,-0.00003257824573665857,-0.0010722947772592306,-0.000022809108486399055
1738773097515579600,1.95457958984375,0.001138680032454431,0.00045502791181206703,0.00024510492221452296
1738773097525570600,1.964570556640625,0.0006014255341142416,0.001068363431841135,0.00044180170516483486
1738773097535561700,1.974561767578125,0.00021127250511199236,-0.0011093032080680132,-0.00026899599470198154
1738773097545552600,1.984552734375,-0.0013251752825453877,-0.00008794106543064117,-0.001130295218899846
1738773097555543600,1.99454345703125,-0.0012540689203888178,0.0021107648499310017,-0.00006290033343248069
1738773097565535700,2.00453564453125,0.0011197442654520273,0.000653253635391593,0.0005588881904259324
1738773097575526700,2.014526611328125,-0.0016946843825280666,-0.0016756807453930378,-0.000044584128772839904
1738773097585517600,2.024517578125,-0.00023769924882799387,-0.0007092535961419344,-0.0006751855835318565
1738773097595508700,2.0345087890625,-0.00025287922471761703,0.0021909286733716726,-0.0002650588285177946
1738773097605499600,2.044499755859375,0.00011630752123892307,-0.00013217143714427948,0.0009612333960831165
1738773097615490600,2.054490478515625,-0.0006930271629244089,-0.0010368472430855036,0.0009468522621318698
1738773097625481700,2.064481689453125,-0.00033046852331608534,0.000826424453407526,-0.0008813638705760241
1738773097635473000,2.074472900390625,0.000040776096284389496,0.0004637017846107483,-0.001384168746881187
1738773097645463800,2.0844638671875,0.00028111308347433805,-0.0006098386365920305,-0.0006698329234495759
1738773097655455500,2.09445556640625,0.001355165964923799,-0.00004524854011833668,-0.0008402751991525292
1738773097665446700,2.10444677734375,-0.00007816939614713192,-0.00017872080206871033,0.0005526935565285385
1738773097675437600,2.1144375,-0.00003502622712403536,-0.00035342411138117313,-0.0012196401366963983
1738773097685428700,2.1244287109375,0.0016113263554871082,-0.0009668993297964334,-0.0006324297282844782
1738773097695420000,2.134419921875,-0.0006443711463361979,-0.0007887338288128376,0.0011899713426828384
1738773097705410800,2.144410888671875,0.00014305708464235067,0.0017413366585969925,0.0009427322074770927
1738773097715401700,2.154401611328125,-0.0000886379275470972,0.0013003172352910042,-0.0002522281720302999
1738773097725392600,2.164392578125,0.0003293792251497507,-0.0001766192726790905,0.0009079420706257224
1738773097735383800,2.1743837890625,0.0010902442736551166,-0.0006567870732396841,-0.0006289681186899543
1738773097745375700,2.184375732421875,-0.000009835814125835896,0.0004821191541850567,-0.00003986453521065414
1738773097755367000,2.194366943359375,0.0005456996150314808,-0.00023959740065038204,-0.00028673955239355564
1738773097765357800,2.20435791015625,-0.0012153687421232462,-0.0006623975932598114,0.0010408926755189896
1738773097775348700,2.2143486328125,0.0003787995083257556,0.0008622619789093733,0.00046644883695989847
1738773097785339600,2.224339599609375,-0.00009968061931431293,0.00009242701344192028,-0.0004379930323921144
1738773097795330800,2.234330810546875,0.0006369496695697308,-0.0014849633444100618,0.0003748037270270288
1738773097805321700,2.24432177734375,0.0008632849203422666,-0.0005590796936303377,0.0006253856117837131
1738773097815312600,2.254312744140625,0.0007708730408921838,-0.00019422662444412708,0.001401697052642703
1738773097825303800,2.2643037109375,-0.00041371420957148075,-0.00006466242484748363,0.000670960231218487
1738773097835295700,2.274295654296875,-0.0006035975529812276,-0.0003011510707437992,0.00031169975409284234
1738773097845286700,2.28428662109375,0.0010943872621282935,0.00027237599715590477,-0.0009420698625035584
1738773097855277800,2.29427783203125,0.0003859864082187414,0.0010241861455142498,0.0002539557754062116
1738773097865268700,2.304268798828125,-0.00018899596761912107,-0.00038971658796072006,0.0011250483803451061
1738773097875259600,2.314259765625,0.0001811834517866373,-0.0025071960408240557,-0.001071260659955442
1738773097885250800,2.324250732421875,0.00044438429176807404,-0.0011811712756752968,-0.00025966414250433445
1738773097895241700,2.33424169921875,-0.0007431192207150161,0.0010122081730514765,0.00041757774306461215
1738773097905232600,2.344232666015625,0.0005056323716416955,-0.000504291383549571,0.0004826948861591518
1738773097915224800,2.354224853515625,-0.00005203345790505409,-0.0028715752996504307,0.0018331838073208928
1738773097925215700,2.3642158203125,0.0005308926338329911,0.0005509073380380869,-0.000037709862226620317
1738773097935206700,2.37420654296875,0.0007218412356451154,-0.00024777487851679325,0.0004539096844382584
1738773097945197600,2.384197509765625,0.0015530182281509042,-0.003028001170605421,0.0013644383288919926
1738773097955188700,2.394188720703125,0.0008755099261179566,-0.0008444753475487232,0.00084512191824615
1738773097965179600,2.4041796875,-0.00046207127161324024,0.00039203022606670856,-0.0007772920071147382
1738773097975170600,2.414170654296875,0.0005789584247395396,-0.0008143815211951733,0.0004469631239771843
1738773097985161700,2.42416162109375,-0.0007013173890300095,0.001719244522973895,-0.0007941441726870835
1738773097995152600,2.434152587890625,-0.0017870881129056215,-0.000017669284716248512,-0.00023461402452085167
1738773098005144600,2.44414453125,0.0004197031958028674,-0.0022924088407307863,0.0008559070993214846
1738773098015135700,2.4541357421875,0.00010917859617620707,-0.0009302019607275724,-0.0001382509508403018
1738773098025126700,2.464126708984375,-0.0005973404622636735,0.00013979105278849602,0.000673651578836143
1738773098035117600,2.47411767578125,-0.001107602147385478,0.0010380754247307777,-0.0016781860031187534
1738773098045108700,2.484108642578125,-0.0012352413032203913,0.0008039094973355532,0.0011932813795283437
1738773098055099600,2.494099609375,-0.0009225862449966371,-0.001799863064661622,-0.0018033074447885156
1738773098065090600,2.504090576171875,0.0008293472928926349,-0.00012579350732266903,-0.0012464789906516671
1738773098075081500,2.51408154296875,0.00039738265331834555,-0.0005353875458240509,-0.0003886747872456908
1738773098085072600,2.52407275390625,-0.0011072235647588968,-0.002738294191658497,-0.0013976974878460169
1738773098095064600,2.534064697265625,0.0005828184075653553,0.00014537665992975235,0.00012163599603809416
1738773098105055700,2.5440556640625,-0.0004953880561515689,0.0018397916574031115,0.001603119308128953
1738773098115046700,2.554046630859375,0.0012849350459873676,0.000013395911082625389,0.0001511639857199043
1738773098125037600,2.56403759765625,0.0005780858919024467,-0.0013939074706286192,-0.00022024495410732925
1738773098135028500,2.574028564453125,-0.0006403102888725698,0.000554993748664856,0.0017379773780703545
1738773098145019600,2.58401953125,-0.001751963049173355,0.0021259363275021315,-0.0013312904629856348
1738773098155010800,2.5940107421875,0.0002595225814729929,-0.0009510801173746586,-0.0005027810111641884
1738773098165001700,2.604001708984375,-0.00020644511096179485,-0.0011604544706642628,-0.0003725610440596938
1738773098174993000,2.613992919921875,0.0006958337035030127,0.0008496993687003851,0.0011600882280617952
1738773098184984600,2.623984619140625,-0.00023978552781045437,0.001129764597862959,0.0005374844768084586
1738773098194975500,2.6339755859375,0.0003903183387592435,-0.0006087471265345812,-0.0010502920486032963
1738773098204966700,2.643966552734375,-0.0002129742642864585,-0.00012537557631731033,0.0010763438185676932
1738773098214957800,2.653957763671875,-0.0005807567504234612,0.0001433372963219881,-0.001414244412444532
1738773098224948700,2.66394873046875,-0.0003394336672499776,0.0007100156508386135,0.001776787918061018
1738773098234940000,2.67393994140625,-0.000003608991391956806,-0.0029896474443376064,-0.0006011485820636153
1738773098244930800,2.683930908203125,0.0009122893679887056,-0.0011517435777932405,0.0016219991957768798
1738773098254921700,2.693921630859375,0.0008824621327221394,-0.0016236556693911552,0.0005878937663510442
1738773098264912600,2.70391259765625,-0.00043851963710039854,-0.0013232838828116655,0.0007982756942510605
1738773098274904000,2.713904052734375,0.0014920058893039823,0.0002772756852209568,0.0013104015961289406
1738773098284895000,2.72389501953125,-0.0005436955252662301,0.000059360871091485023,-0.0008650957606732845
1738773098294886000,2.733885986328125,0.002312811091542244,0.0011501915287226439,0.0004507721168920398
1738773098304877000,2.743876953125,-0.0009268659050576389,-0.0034829701762646437,0.0005910097388550639
1738773098314868000,2.753867919921875,0.0004289493663236499,0.000756516121327877,-0.0009759942768141627
1738773098324859000,2.76385888671875,-0.000944805215112865,0.0035926110576838255,0.00014595506945624948
1738773098334849800,2.773849853515625,0.0006160733755677938,-0.0020959009416401386,-0.001447147922590375
1738773098344841000,2.783841064453125,0.0005143535090610385,-0.0023384569212794304,0.0002653600531630218
1738773098354832000,2.793831787109375,-0.00002067547757178545,0.0028781427536159754,-0.0005929767503403127
1738773098364824000,2.803823974609375,-0.0004978419165126979,-0.0003062549512833357,-0.0006951421964913607
1738773098374815000,2.81381494140625,-0.001152713201008737,-0.00009533273987472057,-0.0007992718601599336
1738773098384806000,2.823805908203125,-0.0008691581897437572,-0.0004297439008951187,0.001554239890538156
1738773098394796800,2.833796875,0.00020063365809619427,0.0014501817058771849,-0.00032408759579993784
1738773098404788000,2.8437880859375,-0.0015442738076671958,0.000009202864021062851,-0.00046020798617973924
1738773098414779000,2.85377880859375,-0.0004843357019126415,-0.002376989461481571,0.0010434127179905772
1738773098424769800,2.863769775390625,-0.00047524558613076806,0.0016104644164443016,-0.0015483646420761943
1738773098434761000,2.873760986328125,-0.0004976161289960146,0.0002245553769171238,-0.0007376983994618058
1738773098444752000,2.883751953125,0.0009802738204598427,-0.0023453705944120884,0.0012260731309652328
1738773098454743800,2.893743896484375,-0.0003241423983126879,0.0005263159982860088,0.0004047543043270707
1738773098464735000,2.90373486328125,0.00023586698807775974,0.0017706097569316626,-0.0009915184928104281
1738773098474726000,2.913725830078125,0.0005264178616926074,-0.0022156096529215574,-0.0018370721954852343
1738773098484716800,2.923716796875,0.00039118598215281963,-0.0013380295131355524,0.00016742385923862457
1738773098494708000,2.9337080078125,-0.0002399832010269165,0.0025760182179510593,0.00041003781370818615
1738773098504699000,2.943698974609375,-0.00021495413966476917,-0.0009054502006620169,-0.0006018111016601324
1738773098514690000,2.95368994140625,-0.0003787385066971183,-0.0017049312591552734,0.0014323113719001412
1738773098524681000,2.963680908203125,0.00025827251374721527,0.0019549403805285692,-0.0006253760657273233
1738773098534672100,2.973672119140625,-0.0004450683481991291,0.00043214508332312107,0.0010281805880367756
1738773098544663800,2.983663818359375,0.00036057073157280684,-0.0006288799922913313,0.00037202268140390515
1738773098554654700,2.99365478515625,0.0005456604994833469,-0.0007817454170435667,-0.0003949676756747067
1738773098564646000,3.00364599609375,0.000023211701773107052,-0.00028502149507403374,0.0007246047607623041
1738773098574637000,3.013636962890625,0.00041070161387324333,0.00024521397426724434,0.0001416387385688722
1738773098584628000,3.0236279296875,0.0005176912527531385,-0.00219656340777874,-0.0008833810570649803
1738773098594619100,3.033619140625,-0.0007736756233498454,-0.00009852531366050243,0.0021646067034453154
1738773098604610000,3.043610107421875,0.0008853413164615631,0.0022401551250368357,0.00011301285121589899
1738773098614601000,3.05360107421875,0.00014658039435744286,0.000056895893067121506,0.0007060988573357463
1738773098624592000,3.063591796875,0.0019585788249969482,-0.002123652957379818,-0.0002644294290803373
1738773098634584000,3.073583984375,-0.0007711611688137054,0.002549928380176425,-0.0012708380818367004
1738773098644575000,3.083574951171875,-0.0016123142559081316,0.001274204347282648,-0.0010108861606568098
1738773098654566100,3.093566162109375,-0.00016781571321189404,-0.0018062738236039877,0.0005188335198909044
1738773098664557000,3.10355712890625,-0.000029056333005428314,0.00007177656516432762,-0.00006926553032826632
1738773098674548000,3.1135478515625,-0.0003712725592777133,0.0011631399393081665,0.0013390140375122428
1738773098684539000,3.123538818359375,-0.000026090070605278015,-0.001585762482136488,0.00034690246684476733
1738773098694530000,3.133530029296875,0.0014636822743341327,-9.152572602033615e-7,0.0006758029339835048
1738773098704521000,3.14352099609375,-0.0013953392626717687,0.001134395832195878,0.001853656372986734
1738773098714512000,3.153511962890625,-0.00012980506289750338,0.000035575591027736664,0.0014384695095941424
1738773098724504000,3.163504150390625,0.0005377746419981122,-0.0013011223636567593,0.00011814042227342725
1738773098734495000,3.173494873046875,0.001004094141535461,0.0003284658305346966,0.00025955430464819074
1738773098744486000,3.18348583984375,0.001136725302785635,0.0037918586749583483,-0.0009525594068691134
1738773098754477000,3.19347705078125,-0.00001083069946616888,-0.001724613131955266,0.0006211024592630565
1738773098764468000,3.203468017578125,-0.0001773812109604478,0.0008060005493462086,-0.00043814588570967317
1738773098774459000,3.213458984375,-0.0010548927821218967,0.0010563377290964127,-0.00045066274469718337
1738773098784450000,3.223449951171875,0.00008554849773645401,0.0008598323911428452,-0.000756292836740613
1738773098794441000,3.23344091796875,-0.002277208026498556,0.0002576918341219425,-0.00005215307464823127
1738773098804432000,3.243431884765625,-0.0004211743362247944,-0.0005676350556313992,0.0012024040333926678
1738773098814424000,3.253424072265625,-0.001515200943686068,0.0010742037557065487,-0.0008639426669105887
1738773098824415000,3.2634150390625,-0.0012399143306538463,-0.0027260342612862587,-0.0004823041381314397
1738773098834406000,3.273406005859375,0.0005262942286208272,0.000013825716450810432,0.0003091873077210039
1738773098844396800,3.283396728515625,0.000535713043063879,0.003511265153065324,0.0008534588851034641
1738773098854388000,3.293387939453125,-0.00042941642459481955,-0.00043207756243646145,-0.0020669635850936174
1738773098864379000,3.30337890625,-0.001053879619576037,-0.0009868158958852291,-0.00012470566434785724
1738773098874369800,3.313369873046875,-0.0015343138948082924,-0.0006368765607476234,-0.0007377653382718563
1738773098884361000,3.32336083984375,-0.0006751699256710708,0.0019319674465805292,-0.001643948256969452
1738773098894352000,3.333351806640625,-0.0009872923837974668,0.00018333573825657368,-0.0002340706851100549
1738773098904343800,3.34334375,-0.0014108348404988647,-0.000285271555185318,0.0016822165343910456
1738773098914335000,3.3533349609375,0.0001859965268522501,0.0008468381129205227,0.0008004438132047653
1738773098924326000,3.363325927734375,-0.0011559234699234366,-0.000602116109803319,0.000014037068467587233
1738773098934316800,3.37331689453125,0.0006614176090806723,0.0017081762198358774,0.001390358665958047
1738773098944308000,3.383307861328125,-0.0008325904491357505,0.0001030478160828352,0.0010268553160130978
1738773098954299000,3.393298828125,0.001492082723416388,-0.00023970124311745167,-0.0005886181606911123
1738773098964289800,3.403289794921875,0.0011042632395401597,0.0001957290805876255,-0.00038948003202676773
1738773098974281000,3.413281005859375,-0.0008976348908618093,-0.0005435643251985312,-0.0006054624100215733
1738773098984272100,3.423272216796875,-0.0004480393836274743,0.001210239715874195,0.00030344701372087
1738773098994263800,3.433263916015625,-0.0010674906661733985,0.0016062520444393158,-0.00010268506594002247
1738773099004255000,3.4432548828125,-0.0009274050826206803,-0.00097286282107234,-0.00019192149920854717
1738773099014246000,3.453245849609375,-0.0008541681454516947,-0.001900974428281188,-0.00032081850804388523
1738773099024236800,3.46323681640625,0.0008809980936348438,0.0010998998768627644,-0.00007550074951723218
1738773099034228000,3.47322802734375,-0.001614383771084249,0.0024125720374286175,-0.00009201234206557274
1738773099044219100,3.48321923828125,-0.0017628996865823865,-0.0006531719118356705,-0.0002564202295616269
1738773099054210000,3.4932099609375,-0.0003293200861662626,-0.00013598613440990448,-0.0006500354502350092
1738773099064201000,3.503200927734375,0.00020508782472461462,0.001144925132393837,0.0014535724185407162
1738773099074192100,3.513192138671875,0.00005328771658241749,-0.0005994455423206091,-0.0011776307364925742
1738773099084183800,3.523183837890625,-0.0007555566262453794,0.0007466820534318686,0.00031088473042473197
1738773099094175000,3.533175048828125,-0.00021759816445410252,0.0007956840563565493,0.0009814687073230743
1738773099104166100,3.543166259765625,-0.0012963723856955767,-0.0014813358429819345,0.0013369917869567871
1738773099114157000,3.553156982421875,0.0017766490345820785,0.00023001153022050858,0.0005409728619270027
1738773099124148000,3.56314794921875,0.000844634952954948,0.0007977851200848818,0.0007336712442338467
1738773099134139100,3.57313916015625,-0.001612663734704256,-0.00014923489652574062,-0.0003896500275004655
1738773099144130000,3.583130126953125,0.0008557017426937819,0.0018549910746514797,-0.0018661906942725182
1738773099154121000,3.593120849609375,-0.00007081206422299147,-0.0003450463991612196,0.00043531315168365836
1738773099164112000,3.60311181640625,0.0012153456918895245,-0.0006934134289622307,0.0008719023317098618
1738773099174104000,3.61310400390625,0.0015229408163577318,0.0008634706027805805,-0.0006514257984235883
1738773099184095000,3.623094970703125,0.00016432534903287888,-0.00028872862458229065,-0.00000920501770451665
1738773099194086000,3.6330859375,-0.00021144666243344545,0.0013107662089169025,0.0013676491798833013
1738773099204077000,3.6430771484375,-0.0015652383444830775,-0.001838552881963551,-0.0005157171981409192
1738773099214068000,3.65306787109375,-0.0008501795236952603,0.0005449762102216482,0.0013378428993746638
1738773099224059000,3.663058837890625,-0.0015326350694522262,0.0016182195395231247,-0.0016543788369745016
1738773099234050000,3.673050048828125,-0.0006862825248390436,-0.0032199453562498093,-0.0005912450142204762
1738773099244041000,3.683041015625,0.0005065215518698096,-0.0014996910467743874,0.00048705455265007913
1738773099254032000,3.693031982421875,0.000025820918381214142,0.003404253628104925,-0.0001907199330162257
1738773099264024000,3.703024169921875,-0.001768458285368979,-0.0019591613672673702,-0.0008453127229586244
1738773099274015700,3.713015625,-0.0002552501391619444,-0.0010771225206553936,-0.0020109782926738262
1738773099284006700,3.723006591796875,0.0014905877178534865,0.006044980138540268,-0.00011103320866823196
1738773099293997800,3.732997802734375,0.000971804023720324,-0.0010246473830193281,0.0016029772814363241
1738773099303988700,3.74298876953125,-0.0005125743336975574,-0.00494741927832365,-0.00003370799822732806
1738773099313979600,3.752979736328125,-0.0013541332446038723,0.005472198128700256,-0.001321612624451518
1738773099323970800,3.762970703125,0.000559502630494535,0.003535768250003457,-0.0008037852821871638
1738773099333961700,3.772961669921875,-0.0012839373666793108,-0.0089414082467556,-0.0008077800157479942
1738773099343952600,3.78295263671875,0.0008884043199941516,-0.0028434505220502615,-0.0007303784950636327
1738773099353944800,3.79294482421875,-0.0013571730814874172,0.008834511041641235,0.00024886580649763346
1738773099363935700,3.802935791015625,-0.0005369640421122313,0.0007156545761972666,-0.0005526898894459009
1738773099373926700,3.8129267578125,0.0000523935304954648,-0.007941482588648796,0.00029366265516728163
1738773099383917800,3.822917724609375,0.0009022172307595611,0.0015103884506970644,-0.0009750585304573178
1738773099393908700,3.83290869140625,0.0008689275709912181,0.008944869041442871,-0.000007798400474712253
1738773099403899600,3.842899658203125,-0.0007761440356262028,-0.005629552062600851,-0.000736225803848356
1738773099413890600,3.852890625,0.0004915206227451563,-0.002954140305519104,0.0015945726772770286
1738773099423881700,3.8628818359375,-0.0007903139921836555,0.0064484598115086555,0.0008314597071148455
1738773099433872600,3.87287255859375,-0.0021911365911364555,0.0005527541507035494,-0.0006593778962269425
1738773099443864600,3.882864501953125,0.00005172588862478733,-0.0073608290404081345,-0.00011356259346939623
1738773099453855700,3.892855712890625,-0.00044788315426558256,0.002002845285460353,-0.0005423315451480448
1738773099463846700,3.9028466796875,-0.0005876078503206372,0.0036951059009879827,0.0003395991516299546
1738773099473837600,3.912837646484375,0.000683518941514194,-0.004775344394147396,0.0008746281964704394
1738773099483828700,3.922828857421875,0.00015079567674547434,-0.002689685672521591,0.0016180465463548899
1738773099493819600,3.932819580078125,0.0006506709614768624,0.005922711454331875,-0.0017338080797344446
1738773099503810600,3.942810546875,-0.00032338674645870924,-0.00045111309736967087,0.0011344768572598696
1738773099515674600,3.954674560546875,0.000004182104021310806,-0.0032849828712642193,-0.000563021982088685
1738773099525665800,3.964665771484375,-0.0009924104670062661,0.0015778515953570604,-0.0003472285461612046
1738773099535657700,3.97465771484375,0.0009338540257886052,0.00035652588121593,-0.0008170101791620255
1738773099545649000,3.98464892578125,0.001907705212943256,-0.002737754490226507,0.0012808439787477255
1738773099555639800,3.994639892578125,-0.0009410781203769147,0.0012442038860172033,0.00021531322272494435
1738773099565630700,4.004630615234375,0.0004895986057817936,0.0009700332302600145,-0.00006860346184112132
1738773099575621600,4.01462158203125,-0.0006406469619832933,-0.0026955418288707733,-0.0007021694909781218
1738773099585612800,4.02461279296875,-0.00017580506391823292,-0.0009885113686323166,0.00026028967113234103
1738773099595603700,4.034603759765625,-0.0004951180308125913,0.003938336856663227,0.0006030384683981538
1738773099605594600,4.0445947265625,0.0008758158655837178,0.0004851131234318018,-0.00029201863799244165
1738773099615585800,4.054585693359375,-0.0016025218646973372,-0.0016978802159428596,-0.0004083987732883543
1738773099625577700,4.06457763671875,-0.0014890041202306747,0.0018154128920286894,0.0003547304368112236
1738773099635568600,4.074568603515625,0.0006423237500712276,0.000855875900015235,-0.0010159985395148396
1738773099645559800,4.084559814453125,-0.0004486150573939085,-0.0016009882092475891,0.00047450867714360356
1738773099655550700,4.09455078125,-0.0001543357502669096,0.0007111683953553438,-0.00019847210205625743
1738773099665541600,4.104541748046875,0.0008017331128939986,0.001270483946427703,0.002290179254487157
1738773099675532500,4.114532470703125,0.0009745721472427249,-0.00028639985248446465,0.00028907987871207297
1738773099685523700,4.124523681640625,-0.00024922890588641167,-0.0003953345585614443,-0.0008008648292161524
1738773099695514600,4.1345146484375,0.00025677180383354425,-0.0003356798551976681,-0.00003866813494823873
1738773099705505500,4.144505615234375,-0.0016909679397940636,0.0008192590903490782,-0.0011344201629981399
1738773099715497700,4.154497802734375,-0.0005522002466022968,0.0002810342703014612,0.00025175517657771707
1738773099725488600,4.164488525390625,-0.000591509509831667,-0.0008354145102202892,0.00022740615531802177
1738773099735479600,4.1744794921875,-0.0005656768917106092,0.0004176024813205004,0.0012924042530357838
1738773099745470700,4.184470703125,-0.0016970164142549038,0.001577145652845502,0.0011079811956733465
1738773099755461600,4.194461669921875,-0.000570232979953289,-0.001104923663660884,-0.0010715497191995382
1738773099765452500,4.20445263671875,-0.00026488304138183594,0.0016010149847716093,0.00048566743498668075
1738773099775443700,4.214443603515625,0.001133010140620172,0.0022984968964010477,-0.001652851002290845
1738773099785434600,4.2244345703125,-0.00010543921962380409,-0.00033332337625324726,0.00012442507431842387
1738773099795425500,4.234425537109375,-0.00026043527759611607,-0.0013583742547780275,0.00027675789897330105
1738773099805417700,4.244417724609375,-0.0005350764840841293,0.00018625915981829166,-0.0004529013531282544
1738773099815408600,4.25440869140625,0.000753893400542438,-0.00012612948194146156,-0.0005612919921986759
1738773099825399600,4.264399658203125,-0.0001793145202100277,-0.00017637526616454124,0.00003385389572940767
1738773099835390700,4.274390625,-0.0010144817642867565,0.00016557448543608189,0.00012200453784316778
1738773099845381600,4.284381591796875,-0.0002641230821609497,0.001136211445555091,0.00026242854073643684
1738773099855372500,4.29437255859375,0.001968937460333109,-0.000317608006298542,0.00022727478062734008
1738773099865988600,4.304988525390625,-0.0010819397866725922,-0.0016015709843486547,0.000604373577516526
1738773099875979800,4.314979736328125,-0.0005114906234666705,-0.00004015956073999405,0.0009146318770945072
1738773099885970700,4.324970703125,0.001275135320611298,0.00147385080344975,0.0007783920154906809
1738773099895961900,4.3349619140625,0.0005933659849688411,-0.0004835727158933878,-0.00021922815358266234
1738773099905952800,4.344952880859375,-0.0006812709616497159,0.000288831302896142,-0.0013000379549339414
1738773099915944700,4.35494482421875,-0.00031002622563391924,0.0006044160109013319,0.0009924110490828753
1738773099925935900,4.364935791015625,-0.002079886384308338,-0.0019502111244946718,0.0016816251445561647
1738773099935926800,4.3749267578125,0.0004144301638007164,0.0016900638584047556,-0.0007221439154818654
1738773099945917700,4.384917724609375,-0.0016233375063166022,0.0002780912909656763,-0.00022617564536631107
1738773099955908900,4.394908935546875,-0.0006017489358782768,-0.0008454963099211454,-0.000701816170476377
1738773099965899800,4.404899658203125,0.0008462226251140237,-0.0009141589980572462,0.0006655619363300502
1738773099975890700,4.414890625,-0.000928774185013026,0.0023404902312904596,-0.00048625527415424585
1738773099985881900,4.4248818359375,0.000772840459831059,-0.0005619053263217211,-0.00021211471175774932
1738773099995872800,4.434872802734375,-0.0004596706130541861,-0.0005017176736146212,0.0012771249748766422
1738773100005864700,4.44486474609375,-0.0010268832556903362,0.0015146955847740173,0.00014832505257800221
1738773100015855900,4.45485595703125,-0.0013917363248765469,0.001292587723582983,-0.00031746181775815785
1738773100025846800,4.4648466796875,0.0006903780158609152,0.00006849621422588825,0.000749101978726685
1738773100035837700,4.474837646484375,0.0006520284805446863,-0.0004566791467368603,-0.001190744573250413
1738773100045828600,4.48482861328125,0.0005052858032286167,0.0018880979623645544,0.0003524653147906065
1738773100055819800,4.49481982421875,-0.0016103293746709824,0.0018604008946567774,0.00029227789491415024
1738773100065810700,4.504810791015625,-0.00007540092337876558,-0.0018075797706842422,-0.0005019239615648985
1738773100075801600,4.514801513671875,0.00004071288276463747,-0.0013745496980845928,0.00012817993410862982
1738773100085792800,4.524792724609375,-0.0009966612560674548,0.0011035006027668715,0.0007027143146842718
1738773100095784700,4.53478466796875,-0.00040863524191081524,-0.0010669755283743143,-0.000053889714763499796
1738773100105775600,4.544775634765625,-0.0006480958545580506,0.0019113356247544289,-0.000554286758415401
1738773100115766800,4.554766845703125,-0.000025715096853673458,0.0006447359919548035,0.00007794771227054298
1738773100125757700,4.5647578125,-0.0008576115360483527,-0.0019918468315154314,0.0003016125410795212
1738773100135748600,4.57474853515625,-0.0019476433517411351,-0.0021681480575352907,0.00038683367893099785
1738773100145739800,4.58473974609375,-0.0015820239204913378,0.002390929264947772,-0.0004682581056840718
1738773100155730700,4.594730712890625,-0.001330355298705399,-0.0014983508735895157,-0.00033643163624219596
1738773100165721600,4.6047216796875,-0.0012102286564186215,-0.0013152945321053267,0.0011895881034433842
1738773100175713800,4.6147138671875,-0.0015135627472773194,0.0020565337035804987,0.0005996979889459908
1738773100185704700,4.62470458984375,0.00015033769886940718,-0.0005359416827559471,-0.0004923546221107244
1738773100195695600,4.634695556640625,0.0006781762931495905,-0.00017002341337502003,-0.0004433525027707219
1738773100205686800,4.644686767578125,0.0008597439154982567,0.0007747153285890818,-0.0006546146469190717
1738773100215677700,4.654677734375,-0.00008914037607610226,-0.0007289054337888956,0.0012567359954118729
1738773100225668600,4.664668701171875,-0.002010604366660118,-0.0013572042807936668,0.0006690595764666796
1738773100235659500,4.674659423828125,0.0005260565085336566,-0.0006639836356043816,0.0011454990599304438
1738773100245650700,4.684650634765625,0.0031901965849101543,-0.00034053088165819645,-0.0006385945016518235
1738773100255641600,4.6946416015625,0.0002772310981526971,-0.0009764938149601221,0.00016195172793231905
1738773100265633500,4.704633544921875,-0.00014908704906702042,0.0013752281665802002,-0.0010153560433536768
1738773100275624000,4.7146240234375,0.0004642390413209796,-0.0005246708169579506,0.00007121369708329439
1738773100285614800,4.72461474609375,0.0009545901557430625,-0.0005895264912396669,-0.0008812059531919658
1738773100295606000,4.73460595703125,0.00007734494283795357,-0.000748251099139452,-0.0003813306102529168
1738773100305597200,4.74459716796875,-0.000018883845768868923,0.00042372499592602253,-0.0022091190330684185
1738773100315588000,4.754588134765625,-0.0018617912428453565,0.00038510910235345364,-0.00016247971507254988
1738773100325579000,4.7645791015625,-0.0014044423587620258,-0.00128951296210289,-0.0006238228525035083
1738773100335570200,4.774570068359375,0.0006054453551769257,0.0013259772676974535,-0.0002658940211404115
1738773100345561000,4.78456103515625,-0.0003184018423780799,-0.0007505288813263178,-0.00011041948164347559
1738773100355553000,4.794552978515625,0.0013492695288732648,-0.0005997940897941589,-0.00020256484276615083
1738773100365544200,4.804544189453125,-0.0012633289443328977,0.0004292482044547796,-0.0009273656760342419
1738773100375535000,4.81453515625,-0.0013868996175006032,0.0013075585011392832,0.0006617425242438912
1738773100385526000,4.824526123046875,0.00025972200091928244,-0.0009967479854822159,0.0012859374983236194
1738773100395517000,4.834516845703125,0.0006581309717148542,0.0004392287228256464,0.00038126169238239527
1738773100405508000,4.844508056640625,-0.000710955006070435,0.001119918655604124,0.0006495755515061319
1738773100415499000,4.8544990234375,-0.002114973496645689,-0.0004409600514918566,-0.0002335286553716287
1738773100425490000,4.864489990234375,-0.0007913316949270666,-0.00014567561447620392,0.001132256700657308
1738773100435481000,4.874481201171875,-0.00022754049859941006,0.0003699124790728092,0.0004558138607535511
1738773100445473000,4.88447314453125,-0.0012114749988541007,0.0012163326609879732,-0.0006691908347420394
1738773100455464000,4.8944638671875,0.00177126529160887,-0.0006516084540635347,0.0007310992223210633
1738773100465455000,4.904455078125,0.0002890884643420577,-0.0004682759754359722,-0.00011047738371416926
1738773100475446000,4.914446044921875,-0.0014821799704805017,0.0012539899908006191,0.00016835558926686645
1738773100485437000,4.92443701171875,-0.001181611674837768,0.0008891660254448652,0.00017046002903953195
1738773100495428000,4.934427978515625,-0.00093766616191715,-0.001914343680255115,-0.0002708257525227964
1738773100505419000,4.9444189453125,-0.00090413709403947,0.00039950665086507797,0.0008247368386946619
1738773100515410000,4.954409912109375,0.00023170106578618288,0.0003222753293812275,-0.0018703821115195751
1738773100525402000,4.964402099609375,-0.0012355752987787127,0.0004994987975805998,0.0003245812840759754
1738773100535393000,4.97439306640625,-0.001896838191896677,-0.00002008373849093914,-0.0007044641533866525
1738773100545384000,4.984384033203125,-0.0010764081962406635,-0.0004005506634712219,0.0021391441114246845
1738773100555375000,4.994375,0.00048367155250161886,-0.00007165037095546722,-0.000965036335401237
1738773100565366000,5.004365966796875,-0.0002429290907457471,-0.0008079365361481905,-0.0003576511226128787
1738773100575357000,5.01435693359375,-0.002144426107406616,0.0008687893860042095,-0.00023940677056089044
1738773100585347800,5.024347900390625,0.0001950172008946538,-0.0018675000173971057,0.001076103886589408
1738773100595339000,5.034339111328125,0.0008421653183177114,0.0005823418032377958,-0.002142592566087842
1738773100605330000,5.044329833984375,0.0009407016914337873,0.00011537875980138779,-0.00018499785801395774
1738773100615321900,5.05432177734375,-0.0003386808093637228,-0.0014332493301481009,0.00029623531736433506
1738773100625313000,5.06431298828125,0.0000731560867279768,0.0002541826106607914,0.00035307399230077863
1738773100635304000,5.074303955078125,-0.0005516214878298342,0.001455001998692751,-0.0005151165532879531
1738773100645294800,5.084294921875,0.0006279704393818974,-0.0008857259526848793,0.0008324884111061692
1738773100655286000,5.0942861328125,-0.0001685810275375843,-0.00016613979823887348,0.0021648677065968513
1738773100665277000,5.10427685546875,-0.0006520083989016712,0.0005229061935096979,0.00017425487749278545
1738773100675267800,5.114267822265625,0.00102631573099643,0.0016579453367739916,-0.0007509272545576096
1738773100685259000,5.124259033203125,0.0007184010464698076,-0.0005978257395327091,0.000037388032069429755
1738773100695250000,5.13425,0.00017431739252060652,-0.0007328479550778866,-0.000784463481977582
1738773100705241900,5.144241943359375,-0.00041800690814852715,0.001392608042806387,-0.001641094102524221
1738773100715233000,5.15423291015625,-0.0002433034824207425,0.002140157390385866,0.002279877895489335
1738773100725224000,5.164223876953125,-0.0009352808119729161,-0.0014485721476376057,-0.0001357033324893564
1738773100735214800,5.17421484375,0.00022425944916903973,-0.00024162745103240013,-0.0004491573781706393
1738773100745205800,5.184205810546875,0.000240038032643497,0.001994640100747347,0.0004016208986286074
1738773100755197000,5.194197021484375,0.0004536235937848687,0.0006228461861610413,-0.00034939052420668304
1738773100765188000,5.20418798828125,0.0001695698592811823,-0.0011098021641373634,0.0006527772638946772
1738773100775179000,5.214178955078125,-0.0005524131120182574,0.00011312146671116352,-0.0004028997791465372
1738773100785170200,5.224170166015625,-0.0013356799026951194,0.0005316217429935932,0.0010702305007725954
1738773100795161900,5.234161865234375,0.00027926103211939335,0.0008991379290819168,-0.00040010077646002173
1738773100805152800,5.24415283203125,-0.00044589146273210645,-0.0014055718202143908,0.0000893599062692374
1738773100815144000,5.25414404296875,-0.0016187475994229317,0.0012376154772937298,-0.0003007932100445032
1738773100825135000,5.264135009765625,0.0004499958595260978,0.00043121841736137867,-0.00039746734546497464
1738773100835126000,5.2741259765625,0.001218051533214748,0.0011401523370295763,-0.0005279622273519635
1738773100845117200,5.2841171875,-0.00044779316522181034,-0.0006045338232070208,-0.00010924768866971135
1738773100855108000,5.294108154296875,0.00008324114605784416,-0.0007603287231177092,-0.0006820936687290668
1738773100865099000,5.30409912109375,0.00011295650620013475,0.0004564113914966583,-0.0019382343161851168
1738773100875091200,5.31409130859375,0.0006975203286856413,0.001100896392017603,-0.00026576907839626074
1738773100885082000,5.32408203125,-0.00035357626620680094,-0.0007035573944449425,0.00017926993314176798
1738773100895073000,5.334072998046875,-0.0014217700809240341,0.00039313221350312233,0.0018152497941628098
1738773100905064200,5.344064208984375,0.000855201855301857,0.00004584575071930885,0.0002824371331371367
1738773100915055000,5.35405517578125,-0.0006505493656732142,0.00037554511800408363,0.0009341126424260437
1738773100925046000,5.3640458984375,-0.0004876708844676614,-0.0007657399401068687,0.0010900904890149832
1738773100935037000,5.374036865234375,-0.00005836936179548502,0.000780757749453187,-0.00011206044291611761
1738773100945028000,5.384028076171875,0.0015668931882828474,-0.0000681406818330288,0.0007760041626170278
1738773100955019000,5.39401904296875,-0.0007649706676602364,-0.000015143770724534988,-0.00020457177015487105
1738773100965011000,5.404010986328125,0.00043019396252930164,0.0022677788510918617,-0.0001801403413992375
1738773100975002000,5.414002197265625,-0.0008028496522456408,0.000304230023175478,-0.0010083834640681744
1738773100984993000,5.423992919921875,-0.00104344985447824,-0.0027079633437097073,0.0002300520718563348
1738773100994984000,5.43398388671875,-0.0004940396756865084,0.000970394816249609,0.00011660141171887517
1738773101004975000,5.44397509765625,-0.0011193652171641588,0.001143729779869318,-0.0007853327551856637
1738773101014966000,5.453966064453125,-0.00035690213553607464,0.000291251577436924,0.00018592207925394177
1738773101024957000,5.46395703125,-0.00040056934813037515,-0.004015346057713032,-0.002365585183724761
1738773101034947800,5.47394775390625,0.00003112910781055689,0.001112836878746748,-0.0013674324145540595
1738773101044939000,5.48393896484375,-0.001067153993062675,0.0036441688425838947,0.0003238559584133327
1738773101054931000,5.493930908203125,0.0002697529271245003,-0.002081627491861582,-0.0001805467763915658
1738773101064922000,5.503922119140625,0.00045493443030864,0.0005314876325428486,0.002226858865469694
1738773101074913000,5.5139130859375,-0.0016431037802249193,0.00177278695628047,-0.00067092664539814
1738773101084904000,5.523904052734375,-0.0006386413588188589,-0.000002703629434108734,-0.0005230061942711473
1738773101094894800,5.533894775390625,-0.0003134694416075945,-0.0017627868801355362,-0.0002002310357056558
1738773101104886000,5.543885986328125,-0.00009410991333425045,0.0009833942167460918,0.0006160215707495809
1738773101114877000,5.553876953125,-0.0003132880665361881,0.0007037627510726452,0.00012227147817611694
1738773101124867800,5.563867919921875,0.0005295420996844769,-0.0015921222511678934,0.0008445662679150701
1738773101134859000,5.57385888671875,-0.0004180105752311647,-0.0018890646751970053,-0.000018564242054708302
1738773101144851000,5.583850830078125,-0.0007468161638826132,0.0021108146756887436,-0.0004826352815143764
1738773101154841900,5.593841796875,0.00044654635712504387,-0.00009082071483135223,0.000690753455273807
1738773101164833000,5.6038330078125,0.0004978830693289638,-0.0010992251336574554,-0.0009387957979924977
1738773101174824000,5.613823974609375,0.0004707188345491886,0.00035352911800146103,0.0014034544583410025
1738773101184814800,5.62381494140625,-0.00020772067364305258,0.0007934253662824631,0.0008515921654179692
1738773101194806000,5.633805908203125,0.0006282456452026963,-0.00034614093601703644,0.0009157743770629168
1738773101204797000,5.643796875,0.0005063097923994064,-0.0003706645220518112,0.00011422733950894326
1738773101214787800,5.653787841796875,-0.000122995232231915,0.002792638260871172,-0.00012146242806920782
1738773101224779000,5.663779052734375,-0.0004016933380626142,-0.001972468104213476,0.0006591975688934326
1738773101234771000,5.67377099609375,0.00018739793449640274,-0.0024345265701413155,0.0010935591999441385
1738773101244761900,5.683761962890625,-0.0003313402412459254,0.002077866345643997,-0.0005314795998856425
1738773101254752800,5.693752685546875,0.0005288608372211456,0.0006773099303245544,0.0014589669881388545
1738773101264744000,5.703743896484375,-0.00025028560776263475,-0.0032530799508094788,-0.0008116287644952536
1738773101274734800,5.71373486328125,-0.00010327913332730532,0.000283864326775074,0.00034471580875106156
1738773101284726000,5.72372607421875,-0.00009958934970200062,0.00014865025877952576,-0.000021969099179841578
1738773101294717000,5.733717041015625,-0.001035157823935151,-0.00017039617523550987,0.0002448796294629574
1738773101304707800,5.743707763671875,0.0017493170453235507,-0.004004375077784061,0.0008508524624630809
1738773101314699000,5.753698974609375,0.0017288107192143798,0.00939265638589859,-0.000692715693730861
1738773101324691000,5.76369091796875,0.0002052151830866933,-0.0029717048164457083,-0.0006757744122296572
1738773101334681900,5.773681884765625,0.001540257828310132,-0.008439706638455391,0.00100041925907135
1738773101344673000,5.783673095703125,0.0018366952426731586,0.005233356729149818,-0.0009337831288576126
1738773101354664000,5.793663818359375,0.0015112569089978933,-0.0016831390094012022,-0.0007793197873979807
1738773101364654800,5.80365478515625,-0.0002821501111611724,0.00398744223639369,0.00020793569274246693
1738773101374645800,5.813645751953125,-0.0005529936170205474,-0.006078507751226425,0.0001227145257871598
1738773101384637000,5.823636962890625,0.0021067603956907988,0.004761757329106331,0.0008164186729118228
1738773101394627800,5.8336279296875,-0.0009899633005261421,-0.0005597712006419897,0.00037939389585517347
1738773101404618800,5.84361865234375,-0.0010001256596297026,-0.002020736923441291,0.0005333138979040086
1738773101414611000,5.85361083984375,-0.000754049513489008,0.005585517268627882,0.00020867455168627203
1738773101424601900,5.863601806640625,-0.0006535782013088465,-0.0053260838612914085,0.0006984181236475706
1738773101434592800,5.8735927734375,0.00044284528121352196,-0.005354579538106918,0.00030427027377299964
1738773101444584000,5.883583984375,-0.0001458475599065423,0.0018331287428736687,-0.0017386926338076591
1738773101454574800,5.893574951171875,0.000238712877035141,0.004688037093728781,0.00022139388602226973
1738773101464565800,5.903565673828125,0.00047078344505280256,-0.0032089115120470524,0.0011593662202358246
1738773101474557000,5.913556884765625,0.00045320659410208464,-0.0013438996393233538,0.0003995664301328361
1738773101484547800,5.9235478515625,0.0007185302674770355,0.0016541555523872375,-0.00038555433275178075
1738773101494538800,5.933538818359375,0.0005459574749693274,0.000018442049622535706,0.0004663908912334591
1738773101504531000,5.943531005859375,0.00044224283192306757,-0.002142391400411725,-0.0005689316894859076
1738773101514521900,5.95352197265625,0.0002920405240729451,-0.0013647484593093395,0.0007016623858362436
1738773101524512800,5.9635126953125,0.0010316568659618497,-0.002309514442458749,-0.0005457436782307923
1738773101534504000,5.97350390625,-0.0008685084758326411,0.00024925079196691513,0.00064522196771577
1738773101544494800,5.983494873046875,-0.0021262788213789463,0.00037144217640161514,-0.0013058828189969063
1738773101554485800,5.99348583984375,0.0017275817226618528,-0.00007756659761071205,-0.0006430220673792064
1738773101564476700,6.0034765625,-0.0002758246846497059,-0.001003190642222762,-0.0006761080585420132
1738773101574467800,6.0134677734375,-0.0010715771932154894,-0.002500153612345457,-0.00018076006381306797
1738773101584458800,6.023458740234375,0.00032602448482066393,0.0018538986332714558,-0.0011173016391694546
1738773101594450700,6.03345068359375,-0.0006446976913139224,0.004098144825547934,-0.0007756181294098496
1738773101604441900,6.04344189453125,0.00169281754642725,-0.002766961231827736,-0.0008330041309818625
1738773101614432800,6.053432861328125,0.0014952109195291996,-0.00321410596370697,0.0015049849171191454
1738773101624423700,6.063423583984375,0.00113284878898412,0.001178169623017311,-0.0006514028646051884
1738773101634414800,6.073414794921875,0.0005192565731704235,0.003569155465811491,0.000010126328561455011
1738773101644405800,6.08340576171875,-0.0003702512476593256,-0.0029536017682403326,0.00007353076944127679
1738773101654396700,6.093396728515625,-0.00006105832289904356,-0.0007937781047075987,0.0009835328673943877
1738773101664387600,6.1033876953125,0.0006637908518314362,0.0002188398502767086,-0.0006775655783712864
1738773101674378800,6.113378662109375,-0.0016038906760513783,-0.002552179154008627,0.0002473502536304295
1738773101684370700,6.12337060546875,-0.0010955610778182745,0.0006876070983707905,-0.0006711186724714935
1738773101694361900,6.13336181640625,-0.0006335026700980961,0.0008545871824026108,-0.0008114672964438796
1738773101704352800,6.143352783203125,0.0007383617339655757,-0.0013687459286302328,-0.000622448802459985
1738773101714343700,6.15334375,-0.00012077414430677891,-0.002698462223634124,0.0016819844022393227
1738773101724334600,6.16333447265625,0.0005936885718256235,0.002357367891818285,-0.00039494739030487835
1738773101734325800,6.17332568359375,0.0008091381751000881,0.0013120770454406738,0.00017683330224826932
1738773101744317000,6.18331689453125,-0.0001308934297412634,-0.0034595499746501446,0.00024522689636796713
1738773101754307800,6.193307861328125,0.0005029388703405857,-0.0014573854859918356,0.000032174022635445
1738773101764299000,6.203299072265625,-0.00006927107460796833,0.0026424983516335487,-0.000881655840203166
1738773101774290700,6.213290771484375,-0.0005036326474510133,-0.0006161453202366829,-0.0009812579955905676
1738773101784281900,6.22328173828125,-0.000024365726858377457,-0.002502631861716509,0.00027175445575267076
1738773101794273000,6.23327294921875,-0.0007175865466706455,0.0010987608693540096,0.00003579840995371342
1738773101804264000,6.243263916015625,-0.0014653860125690699,0.0010067378170788288,-0.00198127469047904
1738773101814254800,6.2532548828125,0.000173523323610425,-0.0012361761182546616,-0.0010065578389912844
1738773101824246000,6.26324609375,0.0007112635066732764,-0.00048630894161760807,0.002142009325325489
1738773101834237000,6.27323681640625,0.0004998085787519813,0.00047136377543210983,0.0018195004668086767
1738773101844227800,6.283227783203125,0.00017786200623959303,-0.0019008072558790445,-0.0001409607066307217
1738773101854218800,6.29321875,-0.0009800803381949663,-0.0007588437292724848,0.0009003352606669068
1738773101864211000,6.3032109375,0.00012895080726593733,0.002892973367124796,0.00018952786922454834
1738773101874201900,6.313201904296875,0.0002892730990424752,-0.0008498330134898424,-0.000817147025372833
1738773101884192800,6.32319287109375,0.00008506211452186108,-0.0033075271639972925,0.00018836691742762923
1738773101894184000,6.333183837890625,0.0009340777760371566,0.00047549325972795486,0.0007329833460971713
1738773101904174800,6.3431748046875,0.00037091446574777365,0.0019825706258416176,-0.00005697153392247856
1738773101914165800,6.353165771484375,-0.0003883527824655175,-0.0021804829593747854,-0.0009976000292226672
1738773101924157000,6.363156982421875,-0.00003193225711584091,-0.0007387888617813587,0.00032378919422626495
1738773101934147800,6.37314794921875,-0.00021702202502638102,0.0019238395616412163,-0.0008325553499162197
1738773101944138800,6.383138671875,0.000356237986125052,-0.0015627613756805658,0.0006259045330807567
1738773101954131000,6.393130859375,-0.001050976337864995,-0.003160125343129039,-0.0003035386325791478
1738773101964121900,6.403121826171875,-0.0011390261352062225,0.0014698682352900505,0.00034016434801742435
1738773101974112800,6.41311279296875,-0.002337448764592409,0.0017801262438297272,-0.00008381088264286518
1738773101984104000,6.42310400390625,-0.0003440679283812642,-0.0025175975169986486,-0.00042934651719406247
1738773101994094800,6.4330947265625,-0.00035871530417352915,-0.00012634508311748505,-0.0010394767159596086
1738773102004085800,6.443085693359375,0.00008437468204647303,0.0021909880451858044,-0.0005490417242981493
1738773102014076700,6.45307666015625,0.000827662879601121,-0.002460755407810211,-0.0010558413341641426
1738773102024067800,6.46306787109375,0.0010422789491713047,-0.001321461284533143,-0.0005358221824280918
1738773102034058800,6.473058837890625,-0.0008456358918920159,0.002203764859586954,-0.0010980154620483518
1738773102044051000,6.483051025390625,-0.00022863643243908882,0.00047463923692703247,-0.0012866766192018986
1738773102054041900,6.493041748046875,0.0004507359117269516,-0.0005498786922544241,-0.0002813333412632346
1738773102064032800,6.50303271484375,0.0005470423493534327,-0.000239670742303133,-0.0015448962803930044
1738773102074023700,6.513023681640625,0.000026660622097551823,-0.00004952121526002884,-0.0007741774315945804
1738773102084014800,6.523014892578125,-0.002318201120942831,-0.0006460279691964388,0.001136133330874145
1738773102094005800,6.533005859375,-0.000018827966414391994,-0.001229792833328247,-0.0009299469529651105
1738773102103996700,6.54299658203125,-0.001287388033233583,0.0003789183683693409,-0.00041138584492728114
1738773102113987800,6.55298779296875,-0.0005331807769834995,0.001628207042813301,0.00024907808983698487
1738773102123978800,6.562978759765625,-0.0010345171904191375,-0.003999443259090185,0.00015145252109505236
1738773102133970700,6.572970703125,0.0008169123902916908,0.00002565840259194374,0.0008212375687435269
1738773102143961900,6.5829619140625,-0.00047078821808099747,0.0025505670346319675,-0.0011114147491753101
1738773102153952800,6.592952880859375,0.000776902656070888,-0.0018769383896142244,-0.0005822445964440703
1738773102163943700,6.602943603515625,0.0006501153111457825,0.0005681687034666538,0.001799898804165423
1738773102173934800,6.612934814453125,0.00006608420517295599,0.0009644469246268272,0.0000810947094578296
1738773102183925800,6.62292578125,0.0005992741789668798,-0.0013130349107086658,-0.00008831731975078583
1738773102193916700,6.632916748046875,-0.0007110010483302176,-0.0019838851876556873,-0.0014057831140235066
1738773102203907800,6.642907958984375,-0.0001508175628259778,0.0009681768715381622,-0.0008647983195260167
1738773102213899000,6.65289892578125,-0.000228581833653152,-0.00044782599434256554,-0.00022963441733736545
1738773102223890700,6.662890625,0.0008466052822768688,0.0007339450530707836,-0.000646679662168026
1738773102233881600,6.672881591796875,0.000397862633690238,-0.001918829744681716,-0.0009180557681247592
1738773102243872800,6.682872802734375,-0.0005652633844874799,-0.0006138475146144629,0.0000041602179408073425
1738773102253864000,6.692864013671875,-0.0013112148735672235,0.0007297173142433167,0.00022893102141097188
1738773102263854800,6.702854736328125,-0.00033032801002264023,-0.0020422593224793673,0.00043126934906467795
1738773102273846000,6.712845947265625,0.0009972576517611742,-0.0002984215971082449,-0.0006052329554222524
1738773102283837200,6.722837158203125,0.00037023157346993685,0.002453024499118328,0.0007742409943602979
1738773102293828000,6.732828125,-0.0020527124870568514,-0.0007635413203388453,-0.00028170240693725646
1738773102303819800,6.74281982421875,0.000820869579911232,-0.0017961931880563498,-0.0010642498964443803
1738773102313811000,6.75281103515625,0.00013963307719677687,0.00013806065544486046,-0.00019925518427044153
1738773102323802000,6.762802001953125,-0.0004664562293328345,-0.0008796653710305691,-0.00023930903989821672
1738773102333793000,6.77279296875,-0.0011114737717434764,-0.0009113568812608719,0.00042674754513427615
1738773102343784200,6.7827841796875,0.0006294994382187724,-0.0008512639906257391,-0.00007525473483838141
1738773102353775000,6.792775146484375,0.000771712395362556,0.0018374635837972164,0.00009012757800519466
1738773102363766000,6.80276611328125,0.000019439845345914364,0.00026470981538295746,-0.00034601931110955775
1738773102373757000,6.8127568359375,-0.00019867299124598503,-0.002257037442177534,-0.00020433914323803037
1738773102383748000,6.822748046875,-0.001046213787049055,0.0002851453609764576,0.0011835191398859024
1738773102393739000,6.832739013671875,0.001185781555250287,0.0012582642957568169,-0.00032303098123520613
1738773102403731000,6.84273095703125,-0.00021097087301313877,0.0005731219425797462,0.0006926272762939334
1738773102413722000,6.85272216796875,-0.0012482721358537674,0.00031133322045207024,0.0010620077373459935
1738773102423713000,6.862713134765625,-0.0016096403123810887,0.00002893805503845215,0.0015377363888546824
1738773102433704000,6.872703857421875,-0.0005763338413089514,-0.00033351825550198555,0.00041601291741244495
1738773102443695000,6.882695068359375,-0.000500459864269942,0.0008139414712786674,-0.001137931365519762
1738773102453686000,6.89268603515625,0.0008265932556241751,-0.0003400063142180443,0.0000951122201513499
1738773102463677000,6.902677001953125,0.0018539378652349114,0.0003703986294567585,0.0008538912516087294
1738773102473668000,6.912668212890625,0.0014027984580025077,0.0021696300245821476,0.00019129671272821724
1738773102483660000,6.922659912109375,0.00021973380353301764,-0.0017134526278823614,0.0003113467537332326
1738773102493651000,6.93265087890625,0.0002985633909702301,-0.0008146355394273996,-0.000040190527215600014
1738773102503642000,6.94264208984375,0.00039630557876080275,-0.00005967402830719948,-0.00017494392523076385
1738773102513633000,6.952633056640625,-0.0010407360969111323,-0.00020774570293724537,0.0008628899813629687
1738773102523624000,6.9626240234375,-0.00007445819210261106,0.0006029712967574596,-0.0008329952834174037
1738773102533614800,6.97261474609375,0.0003085043281316757,0.00021122023463249207,-0.0012106314534321427
1738773102543606000,6.98260595703125,0.0006102423649281263,0.0007529305294156075,-0.00036515184910967946
1738773102553597000,6.992596923828125,0.0005868065636605024,0.00011350540444254875,-0.00009883576421998441
1738773102563587800,7.002587890625,0.0011723670177161694,-0.0007458901964128017,-0.0008238616865128279
1738773102573580000,7.012580078125,-0.0002785230753943324,0.0014320430345833302,0.00027921967557631433
1738773102583571000,7.022571044921875,0.0005321877542883158,-0.001059145899489522,0.0012737028300762177
1738773102593561900,7.032561767578125,-0.0003133658319711685,0.0008924184367060661,-0.0002059494872810319
1738773102603553000,7.042552978515625,0.0014511010376736522,-0.00004963018000125885,0.0008323897491209209
1738773102613544000,7.0525439453125,-0.0018469576025381684,0.00010190345346927643,0.0009879183489829302
1738773102623534800,7.062534912109375,-0.00021651736460626125,0.00027340836822986603,-0.0002332554868189618
1738773102633526000,7.072526123046875,0.0008663240587338805,-0.0002677459269762039,-0.00037040829192847013
1738773102643517000,7.082516845703125,0.00006109895184636116,0.0009651170112192631,0.00015385961160063744
1738773102653508900,7.0925087890625,0.0021660616621375084,-0.0002245169598609209,-0.0005774444434791803
1738773102663500000,7.1025,0.00022392161190509796,-0.00012220069766044617,0.0005886261351406574
1738773102673491000,7.112490966796875,-0.0002615726552903652,0.0011566495522856712,0.0005321671487763524
1738773102683481900,7.12248193359375,-0.0001912189181894064,-0.00042476365342736244,-0.0008094197837635875
1738773102693473000,7.13247314453125,0.00034354382660239935,-0.00038241944275796413,0.00019033087301068008
1738773102703464000,7.1424638671875,-0.0001011724816635251,0.0015799379907548428,-0.0013739252462983131
1738773102713454800,7.152454833984375,-0.0012236948823556304,0.00047712307423353195,-0.0003241071244701743
1738773102723446000,7.162446044921875,0.0005003501428291202,-0.0018710470758378506,-0.0004712209338322282
1738773102733437200,7.172437255859375,0.0009304507402703166,0.0000368412584066391,-0.00023899329244159162
1738773102743428900,7.182428955078125,-0.0007199478568509221,0.0005194693803787231,0.0004861665074713528
1738773102753419800,7.192419677734375,-0.0009170217672362924,-0.00005337689071893692,0.0007194593781605363
1738773102763411000,7.202410888671875,0.0002748683327808976,-0.00005159247666597366,0.0005553858354687691
1738773102773401900,7.21240185546875,-0.0004401904297992587,0.0003002113662660122,-0.0008174737449735403
1738773102783393000,7.22239306640625,0.0002046853769570589,0.00021695438772439957,0.0014135041274130344
1738773102793384200,7.23238427734375,0.00005048827733844519,0.00008885655552148819,0.0009405267774127424
1738773102803375000,7.242375,-0.0006673120078630745,0.0013505751267075539,0.001061541959643364
1738773102813366000,7.252365966796875,-0.00017302925698459148,0.0003532213158905506,-0.0013158619403839111
1738773102823357200,7.262357177734375,-0.0009130696998909116,-0.0006012171506881714,0.00011978059774264693
1738773102833348900,7.272348876953125,-0.0007876348099671304,-0.0011255936697125435,0.0017586898757144809
1738773102843340000,7.282340087890625,0.0009006754262372851,-0.00043940567411482334,0.00019823855836875737
1738773102853331200,7.292331298828125,-0.0016407790826633573,0.0015675523318350315,-0.00142309395596385
1738773102863322000,7.302322021484375,-0.001285959267988801,-0.0006113243289291859,-0.0006989308167248964
1738773102873313000,7.31231298828125,0.0010381813626736403,-0.002032919554039836,0.000303483015159145
1738773102883304000,7.322303955078125,0.0005927559686824679,0.0006783786229789257,0.0005204691551625729
1738773102893295000,7.332295166015625,0.00006864592432975769,-0.0007698484696447849,-0.0008875441271811724
1738773102903286000,7.3422861328125,0.0015055756084620953,-0.0005942175630480051,0.0007314333925023675
1738773102913277000,7.35227685546875,0.0017346073873341084,-0.001789976842701435,0.00019800217705778778
1738773102923269000,7.36226904296875,0.000864866771735251,0.0005312934517860413,0.00021624169312417507
1738773102933260000,7.372260009765625,0.0005982844159007072,0.0004167775623500347,0.000808262440841645
1738773102943251000,7.3822509765625,0.0025720326229929924,-0.0021751332096755505,-0.001510894508101046
1738773102953242000,7.3922421875,-0.0005409361328929663,0.00115168746560812,0.00006223469972610474
1738773102963233000,7.40223291015625,8.058268576860428e-7,0.002143191173672676,0.0008189507061615586
1738773102973224000,7.412223876953125,0.0013795242412015796,-0.000626762630417943,-0.0007235521916300058
1738773102983215000,7.422215087890625,0.00005546363536268473,-0.0008724879007786512,-0.0002505292068235576
1738773102993206000,7.4322060546875,0.0002978112315759063,0.0016641728579998016,-0.0009794363286346197
1738773103003197000,7.442197021484375,-0.0016111203003674746,-0.0002996032126247883,-0.001334028784185648
1738773103013189000,7.452189208984375,0.0004275295650586486,-0.0014887044671922922,0.0016612284816801548
1738773103023180000,7.462179931640625,-0.0012401327257975936,0.00015234528109431267,-0.00008870952297002077
1738773103033171000,7.4721708984375,0.00016521732322871685,0.00008336920291185379,0.0007589746965095401
1738773103043161900,7.482161865234375,-0.000724415818694979,0.0001677563413977623,-0.0009840322891250253
1738773103053153000,7.492153076171875,-0.00012840039562433958,-0.0007435774896293879,0.0002767081605270505
1738773103063144000,7.50214404296875,0.0004948599962517619,-0.001227248227223754,-0.0006971877301111817
1738773103073134800,7.512134765625,0.0003638324560597539,0.001292368397116661,0.00020695541752502322
1738773103083126000,7.5221259765625,0.00018026831094175577,0.0016307304613292217,-0.00046964717330411077
1738773103093117000,7.532116943359375,-0.0005651505198329687,-0.0021925035398453474,-0.00012902887829113752
1738773103103108900,7.54210888671875,-0.00003274169284850359,0.0011328323744237423,0.000044984102714806795
1738773103113100000,7.55210009765625,-0.00029506313148885965,0.0025019636377692223,-0.0002596815465949476
1738773103123091000,7.562091064453125,0.0006144738290458918,-0.0003335119690746069,-0.00004626536974683404
1738773103133081900,7.572081787109375,0.00027918186970055103,-0.0009364516008645296,0.00038516672793775797
1738773103143073000,7.582072998046875,0.0006306059658527374,0.0010594227351248264,0.00031950994161888957
1738773103153064000,7.59206396484375,0.000024736742489039898,0.0015824674628674984,-0.00037664035335183144
1738773103163054800,7.602054931640625,-0.001079897629097104,-0.0012018270790576935,0.0002793970634229481
1738773103173045800,7.612045654296875,-0.0009448754135519266,-0.0016005022916942835,-0.0003887900384142995
1738773103183038000,7.622037841796875,-0.0007240932900458574,0.002082246821373701,-0.0005056585068814456
1738773103193028900,7.63202880859375,-0.0002553769154474139,0.000769574660807848,0.0009862442966550589
1738773103203020000,7.64202001953125,-0.0009232651209458709,-0.003209683345630765,0.0009954076958820224
1738773103213011000,7.652010986328125,0.0005167060298845172,0.0001453668810427189,0.001056660432368517
1738773103223001900,7.662001953125,0.0012868494959548116,0.0011161686852574348,-0.0005631905514746904
1738773103232992800,7.67199267578125,-0.0009741743560880423,-0.0014396670740097761,-0.00036558398278430104
1738773103242984000,7.68198388671875,0.0015647700056433678,-0.001645754324272275,-0.0017444777768105268
1738773103252975000,7.69197509765625,0.0005799329373985529,0.0009604152292013168,0.000401497381972149
1738773103262966000,7.701966064453125,0.000770605867728591,-0.0004833729472011328,-0.00040891431854106486
1738773103272958000,7.7119580078125,0.0007405122742056847,-0.0006010846700519323,-0.0013332974631339312
1738773103282949400,7.721949462890625,-0.0006049750954844058,0.0028737080283463,0.00018961462774313986
1738773103292940300,7.731940185546875,0.0008520402479916811,0.0011583659797906876,-0.00041199347469955683
1738773103302931500,7.741931396484375,-0.00020277046132832766,-0.0028568035922944546,0.0008474088972434402
1738773103312922400,7.75192236328125,-0.0011732263956218958,0.002275640144944191,-0.0003302409313619137
1738773103322913500,7.76191357421875,0.0007600968237966299,0.0010930821299552917,-0.001797874690964818
1738773103332904400,7.771904541015625,0.0004780680174008012,-0.0011445055715739727,-0.00048466993030160666
1738773103342895600,7.7818955078125,-0.0010722019942477345,-0.001224455889314413,0.00043700114474631846
1738773103352886500,7.791886474609375,-0.00009402295108884573,0.0013002208434045315,-0.000230120713240467
1738773103362878500,7.80187841796875,-0.0007791189709678292,0.00019915588200092316,-0.0004312657692935318
1738773103372869400,7.811869384765625,-0.0006781851407140493,-0.0013465427327901125,0.0005698165041394532
1738773103382860500,7.821860595703125,-0.0008222893229685724,-0.00022216117940843105,0.0016473684227094054
1738773103392851500,7.8318515625,0.0004821269540116191,0.003094539511948824,0.0005320365307852626
1738773103402842600,7.841842529296875,0.0006936312420293689,-0.0014181588776409626,0.0004252480575814843
1738773103412833500,7.85183349609375,0.001173000200651586,-0.00024769967421889305,0.001361082773655653
1738773103422824400,7.861824462890625,0.0008135833777487278,0.0022104927338659763,0.000816886720713228
1738773103432815600,7.871815673828125,-0.0004839085740968585,0.0008576069958508015,-0.001590078230947256
1738773103442806500,7.881806640625,0.0007872931892052293,-0.0011944924481213093,-0.0005051156622357666
1738773103452798500,7.891798583984375,-0.00006225507240742445,0.0026335353031754494,0.0009891840163618326
1738773103462789600,7.90178955078125,0.0001703470479696989,0.000775093212723732,-0.0010305678006261587
1738773103472780500,7.911780517578125,-0.0005838602082803845,-0.00018071522936224937,-0.0014449555892497301
1738773103482771500,7.921771484375,0.0006753362249583006,-0.0002849006559699774,-0.00006311552715487778
1738773103492762400,7.931762451171875,-0.0011715659638866782,0.00022402917966246605,-0.0000918776640901342
1738773103502753500,7.94175341796875,0.000033734948374331,-0.0011308430694043636,0.00017272643162868917
1738773103514617300,7.953617431640625,0.0006635724566876888,-0.0019705379381775856,0.0009463746682740748
1738773103524608300,7.963608154296875,0.0007072750013321638,0.0008218162693083286,0.0012128984089940786
1738773103534599400,7.973599365234375,-0.00040832324884831905,0.0016697668470442295,-0.001407918520271778
1738773103544591400,7.98359130859375,-0.0009131825063377619,-0.0004529091529548168,-0.000804771319963038
1738773103554582300,7.993582275390625,0.000309208407998085,-0.0008007178548723459,0.001040000352077186
1738773103564573400,8.003573486328126,0.000405258615501225,0.00031017279252409935,0.0007787972572259605
1738773103574564400,8.013564453125,-0.00033936125691980124,-0.00015268474817276,-0.0008356110192835331
1738773103584555300,8.02355517578125,-0.00041173980571329594,-0.003540966659784317,0.0004147173895034939
1738773103594546400,8.03354638671875,0.00037788739427924156,0.0014617815613746643,-0.0008132661459967494
1738773103604537600,8.04353759765625,0.0009375085355713964,0.001083513256162405,0.00013286207104101777
1738773103614528500,8.053528564453124,-0.000824172399006784,-0.002615351229906082,-0.00094625074416399
1738773103624519400,8.06351953125,0.0009821942076086998,-0.0015690524596720934,-0.00011119824193883687
1738773103634511400,8.073511474609376,0.0001523531973361969,0.0006501595489680767,-0.00020414256141521037
1738773103644502500,8.08350244140625,0.00030582956969738007,0.00036265142261981964,-0.0011133585358038545
1738773103654493400,8.093493408203125,0.00024777266662567854,-0.001100755762308836,0.00023499992676079273
1738773103664484600,8.103484619140625,0.0009348453022539616,0.00002908613532781601,-0.0008027963922359049
1738773103674475500,8.1134755859375,-0.0003360150149092078,0.0012261769734323025,-0.0014129264745861292
1738773103684466400,8.123466552734374,0.0007276509422808886,-0.002051614923402667,-0.0007151433965191245
1738773103694457600,8.13345751953125,0.0007636037189513445,-0.0010294937528669834,-0.00044643046567216516
1738773103704448500,8.143448486328126,0.0037385779432952404,0.0016561411321163177,-0.00017095802468247712
1738773103714439400,8.153439453125,-0.00006281817331910133,-0.0016626899596303701,0.0016732810763642192
1738773103724431600,8.163431640625,-0.0013652800116688013,0.00030196551233530045,-0.00022505460947286338
1738773103734422500,8.173422607421875,0.0009426153264939785,0.002020237036049366,-0.00023650619550608099
1738773103744413400,8.183413330078125,0.0005679595051333308,-0.0029161996208131313,0.0012052911333739758
1738773103754404600,8.193404541015624,-0.001014490844681859,-0.003010209184139967,0.000864140223711729
1738773103764395500,8.2033955078125,0.00021349627058953047,0.001274406909942627,-0.0007678315741941333
1738773103774386400,8.213386474609376,-0.001260030665434897,0.002342334482818842,-0.0006743546109646559
1738773103784377300,8.22337744140625,0.0011834496399387717,-0.0017767674289643764,-0.0012153222924098372
1738773103794368500,8.233368408203125,0.0005631992826238275,-0.0037435118574649096,0.0008345128153450787
1738773103804359400,8.243359375,-0.0005144348833709955,0.0012832330539822578,-0.0005738717736676335
1738773103814351600,8.2533515625,-0.000694198242854327,0.0006898809224367142,-0.0006652181618846953
1738773103824342500,8.263342529296875,-0.0005851822788827121,-0.001306361285969615,-0.0003974221181124449
1738773103834333400,8.27333349609375,0.00043906946666538715,-0.00004508811980485916,0.0017096709925681353
1738773103844324400,8.283324462890626,0.0010177197400480509,0.0019961781799793243,0.0010153718758374453
1738773103854315500,8.2933154296875,-0.001775936339981854,-0.000837425235658884,0.000556509243324399
1738773103864931300,8.303931396484375,0.000837234896607697,-0.0021964642219245434,0.001377643900923431
1738773103874922500,8.313922607421874,0.00021165842190384865,0.0013716388493776321,0.0006700420053675771
1738773103884913400,8.323913330078126,0.0013092574663460255,0.00006925081834197044,0.0008127266773954034
1738773103894904300,8.333904296875,0.0006179008632898331,-0.0023206700570881367,0.0006175170419737697
1738773103904895500,8.3438955078125,0.0007681753486394882,-0.00040025427006185055,0.0011109330225735903
1738773103914886400,8.353886474609375,0.00001130509190261364,0.0025891438126564026,-0.0007639323594048619
1738773103924877300,8.363877197265625,0.000183402793481946,-0.0001988660078495741,-0.0005779556231573224
1738773103934869500,8.373869384765625,-0.0002530892379581928,-0.002909697825089097,-0.0005334807792678475
1738773103944860400,8.3838603515625,-0.00006309559103101492,-0.0006329561583697796,0.0003059925511479378
1738773103954851300,8.393851318359374,-0.0004567108117043972,0.000836309976875782,-0.0012735282070934772
1738773103964842500,8.403842529296876,0.0007105831755325198,-0.0005266983062028885,-0.00039104369352571666
1738773103974833400,8.41383349609375,0.0004021890927106142,-0.001021779840812087,0.00033253716537728906
1738773103984824300,8.42382421875,0.00032778677996248007,0.002390662208199501,-0.0006473526591435075
1738773103994815200,8.433815185546875,0.002403188031166792,0.000533639919012785,-0.000004998233634978533
1738773104004806400,8.443806396484375,-0.0006631474243476987,-0.0012984313070774078,-0.00017249371740035713
1738773104014797600,8.453797607421874,-0.0003025553887709975,0.002192440442740917,0.0018216813914477825
1738773104024789200,8.463789306640624,0.0005317394388839602,-0.0009631493594497442,0.0011992312502115965
1738773104034780400,8.473780517578126,0.0009740905370563269,-0.0016513101290911436,-0.00150973629206419
1738773104044771300,8.483771240234375,-0.00039520038990303874,0.0007436918094754219,0.0008038408705033362
1738773104054762200,8.49376220703125,-0.001886037876829505,0.0008403644897043705,-0.0015543883200734854
1738773104064753400,8.50375341796875,-0.0008520050905644894,-0.0010824007913470268,-0.0010442123748362064
1738773104074744600,8.51374462890625,0.00021991715766489506,0.00042734527960419655,-0.0008157130796462297
1738773104084735500,8.523735595703124,-0.0005247685476206243,0.000021114014089107513,0.00003094758721999824
1738773104094726700,8.5337265625,0.000422251527197659,-0.0006388174369931221,-0.0006540174363180995
1738773104104718300,8.54371826171875,-0.00034242437686771154,-0.0006826776079833508,0.0005303417565301061
1738773104114709500,8.55370947265625,-0.0013720024144276977,-0.0010973317548632622,-0.000012676813639700413
1738773104124700700,8.56370068359375,-0.0007039078045636415,0.0002827439457178116,0.0003604770463425666
1738773104134691600,8.573691650390625,0.001189865986816585,-0.0002549481578171253,-0.00013700142153538764
1738773104144682500,8.5836826171875,0.00022664712741971016,-0.0016896091401576996,0.00017238437430933118
1738773104154673400,8.59367333984375,-0.0015432897489517927,-0.0000565587542951107,0.0008376420009881258
1738773104164664600,8.60366455078125,0.00027295283507555723,0.00029313983395695686,-0.0006014611572027206
1738773104174655500,8.613655517578126,-0.0008839243091642857,0.00015864986926317215,-0.0007471360731869936
1738773104184647700,8.623647705078126,0.00023358315229415894,-0.0004931569565087557,-0.0002906868467107415
1738773104194638600,8.633638671875,-0.0005661640898324549,0.0013713221997022629,-0.0013120091753080487
1738773104204629500,8.64362939453125,-0.00040949572576209903,-0.00074046291410923,0.00008194160182029009
1738773104214620400,8.653620361328125,-0.00008166057523339987,-0.0009516514837741852,0.0007626456208527088
1738773104224611600,8.663611572265625,-0.0005110356141813099,-0.000800984213128686,-0.0012403116561472416
1738773104234602500,8.6736025390625,-0.001365377684123814,0.0010890611447393894,-0.000013393393601290882
1738773104244593400,8.683593505859376,-0.0008900313405320048,-0.000030811410397291183,-0.0005260420148260891
1738773104254584600,8.69358447265625,0.000427700811997056,-0.0006667741108685732,0.00026038946816697717
1738773104264575500,8.703575439453125,0.000740194576792419,-0.00016490952111780643,0.000009561656042933464
1738773104274567000,8.71356689453125,0.0010904002701863647,-0.00004826299846172333,0.00029425357934087515
1738773104284558000,8.72355810546875,0.0010480222990736365,-0.000010174233466386795,-0.00010533627937547863
1738773104294549000,8.733549072265625,-0.000039612757973372936,0.00006093224510550499,-0.0000866941554704681
1738773104304540000,8.743539794921874,0.0009714009938761592,-0.0013351512607187033,0.00030378528754226863
1738773104314530800,8.75353076171875,0.0011389137944206595,-0.00022381427697837353,-0.0007100801449269056
1738773104324522000,8.76352197265625,-0.001901454059407115,0.0000057891011238098145,-0.0007597216172143817
1738773104334513000,8.773512939453125,-0.00037519639590755105,-0.0006528107915073633,-0.0009823618456721306
1738773104344503800,8.78350390625,0.0009266783017665148,0.0005709831602871418,0.0007298844866454601
1738773104354495000,8.793494873046875,0.002043608110398054,-0.0011294449213892221,-0.0009564290521666408
1738773104364487000,8.80348681640625,-0.0017633893294259906,-0.00037416256964206696,0.0012524921912699938
1738773104374477800,8.813477783203124,0.0004020269261673093,0.0019680876284837723,-0.0002623139298520982
1738773104384469000,8.823468994140624,-0.0007348785293288529,-0.00025703548453748226,-0.00024585155188106
1738773104394460000,8.8334599609375,0.000592174706980586,-0.0014328211545944214,0.0013730840291827917
1738773104404450800,8.843450927734375,0.0003508718218654394,-0.0002682281192392111,-0.0012587078381329775
1738773104414442000,8.85344189453125,0.0006600648630410433,0.0023973300121724606,0.00002972953370772302
1738773104424433000,8.863432861328125,0.0004096599295735359,-0.0022693006321787834,-0.00016667232557665557
1738773104434423800,8.873423828125,-0.0005125927273184061,-0.0005382460076361895,0.00043493573321029544
1738773104444416000,8.883416015625,0.0010512130102142692,0.0018846332095563412,-0.00023748220701236278
1738773104454407000,8.893406982421874,0.0006059323204681277,-0.0021774866618216038,-0.0006838280241936445
1738773104464397800,8.903397705078126,-0.000925110187381506,-0.0014694426208734512,0.0020024278201162815
1738773104474388700,8.913388671875,0.00010846264194697142,-0.00004545040428638458,0.001007204526104033
1738773104484380000,8.9233798828125,0.0005121572175994515,-0.00035451771691441536,-0.0010829494567587972
1738773104494370800,8.933370849609375,0.0008045723661780357,0.0005970294587314129,0.0004251986392773688
1738773104504362000,8.943362060546875,-0.00026092701591551304,-0.0007991443853825331,-0.0006250364822335541
1738773104514353200,8.953353271484374,-0.00015413423534482718,-0.002254561986774206,0.0010287865297868848
1738773104524344000,8.963343994140626,0.0006338211242109537,-0.002067059278488159,-0.0004212214844301343
1738773104534335700,8.973335693359376,0.0010556660126894712,0.0007337871938943863,-0.0009605116210877895
1738773104544327000,8.983326904296876,0.0018376511288806796,0.0008652950637042522,-0.001000178512185812
1738773104554317800,8.99331787109375,-0.0014412328600883484,-0.002023435663431883,0.00020996181410737336
1738773104564309000,9.00330908203125,0.00018426834139972925,-0.0006972781848162413,-0.00004807709774468094
1738773104574300200,9.013300048828125,-0.0009582277270965278,-0.0003593231085687876,-0.000783908530138433
1738773104584291000,9.023291015625,0.0006982213817536831,-0.0009544882923364639,0.0003739400708582252
1738773104594282000,9.033281982421874,-0.000513517006766051,-0.0007164014969021082,-0.0008947898168116808
1738773104604273000,9.04327294921875,-0.0002000313252210617,-0.00032878550700843334,-0.0007436488522216678
1738773104614265000,9.05326513671875,-0.000971549074165523,-0.000806822907179594,0.001308316714130342
1738773104624256000,9.063256103515625,0.000041188555769622326,0.0012313961051404476,-0.00047241285210475326
1738773104634247200,9.0732470703125,-0.0005327226244844496,-0.0012378869578242302,-0.0003690822049975395
1738773104644238000,9.083238037109375,-0.0004896747996099293,-0.0007784648332744837,-0.0009072939865291119
1738773104654229000,9.09322900390625,0.000332709401845932,-0.0007044288795441389,-0.0003685365372803062
1738773104664220000,9.103219970703124,-0.000765735749155283,0.00047307834029197693,-0.0008622908499091864
1738773104674211000,9.113211181640626,0.0010244410950690508,0.00015989085659384727,-0.0007666833698749542
1738773104684202000,9.123201904296875,-0.0001307447673752904,-0.00041942461393773556,-0.0007364353514276445
1738773104694193000,9.13319287109375,-0.0006553874700330198,0.003831779584288597,-0.0001470778079237789
1738773104704185000,9.14318505859375,0.0006993451388552785,-0.0007791591342538595,0.0004936327459290624
1738773104714176000,9.153176025390625,0.0013518197229132056,-0.00367907527834177,0.00132560427300632
1738773104724167000,9.1631669921875,0.0002610846422612667,-0.0009877677075564861,-0.00012005172175122425
1738773104734158000,9.173157958984374,0.002535157836973667,0.0007054703310132027,0.001012856955640018
1738773104744149000,9.18314892578125,-0.0011665069032460451,-0.0007094675675034523,-0.0001511735317762941
1738773104754140000,9.193139892578126,0.0003251296002417803,-0.001023720484226942,-0.0000622239604126662
1738773104764130800,9.203130859375,0.0010532920714467764,0.0007203007116913795,0.0031116653699427843
1738773104774122000,9.2131220703125,-0.002075123367831111,-0.0001569446176290512,0.00035982084227725863
1738773104784113000,9.22311279296875,0.0011110844789072871,0.0007139737717807293,-0.0017978230025619268
1738773104794105000,9.23310498046875,-0.0007230345509015024,0.0014223745092749596,-0.0009522694163024426
1738773104804096000,9.243095947265624,0.00032609887421131134,-0.00030375528149306774,-0.00025595334591344
1738773104814087000,9.2530869140625,-0.00047045265091583133,-0.0009346581064164639,0.001201328355818987
1738773104824077800,9.263077880859376,0.0008479987736791372,0.0009209462441504002,0.0004007021780125797
1738773104834069000,9.273069091796875,0.0007926051039248705,0.0027870233170688152,-0.0008611035300418735
1738773104844060000,9.283059814453125,-0.0006052337121218443,-0.001183636486530304,-0.00007126419222913682
1738773104854050800,9.29305078125,0.00047867291141301394,0.0003841663710772991,0.00007201387779787183
1738773104864042000,9.3030419921875,0.0006875294493511319,-0.0005952839273959398,0.00035761791514232755
1738773104874034000,9.313033935546875,0.0007434558356180787,0.0006492109969258308,-0.0002615670091472566
1738773104884024800,9.32302490234375,0.0005246098153293133,0.0002865777350962162,-0.0004094571340829134
1738773104894016000,9.33301611328125,0.000017543905414640903,0.0008604889735579491,0.00019854254787787795
1738773104904007000,9.3430068359375,0.0011951790656894445,-0.0004819680470973253,0.0015017929254099727
1738773104913997800,9.352997802734375,0.0009168786928057671,0.0010799760930240154,-0.0013717578258365393
1738773104923989000,9.362989013671875,0.0004005043301731348,0.002273714169859886,-0.0007739287102594972
1738773104933980000,9.37297998046875,0.00007320183794945478,-0.0007894537411630154,0.00019333139061927795
1738773104943970800,9.382970703125,-0.0010405387729406357,-0.0006733150221407413,0.0006635295576415956
1738773104953961700,9.392961669921876,0.0004926429828628898,-0.0003273703623563051,-0.0004731075605377555
1738773104963954000,9.402953857421876,0.0013717507245019078,0.002684310544282198,0.00013049496919848025
1738773104973944800,9.41294482421875,0.0006745351711288095,-0.0013248121831566095,0.0001499360369052738
1738773104983935700,9.422935791015625,0.000012137345038354397,0.00013540219515562057,-0.00021609209943562746
1738773104993927000,9.432927001953125,-0.0002810766454786062,0.0008531240746378899,0.00031494221184402704
1738773105003917800,9.442917724609375,0.00037722312845289707,-0.0005664476193487644,0.0010871569393202662
1738773105013908700,9.45290869140625,-0.000664072809740901,-0.0006287656724452972,0.0015340354293584824
1738773105023900200,9.462900146484374,0.0003164211520925164,0.0016956808976829052,0.001077409484423697
1738773105033891000,9.47289111328125,0.0011100430274382234,-0.000677195843309164,-0.00036096374969929457
1738773105043882000,9.482882080078125,0.0008696840377524495,0.0006053703837096691,0.0003968440869357437
1738773105053874000,9.4928740234375,-0.0009788160677999258,0.0010003172792494297,0.0022333599627017975
1738773105063864800,9.50286474609375,-0.0013178298249840736,0.0006162123754620552,0.000642469385638833
1738773105073856000,9.51285595703125,-0.0007311354856938124,-0.0007041827775537968,0.00006855814717710018
1738773105083847200,9.52284716796875,-0.0017538799438625574,-0.00027919840067625046,-0.000566375267226249
1738773105093838000,9.532838134765624,-0.00027982029132544994,0.0002968432381749153,-0.001563196536153555
1738773105103829000,9.5428291015625,-0.0006627211696468294,0.0005826009437441826,0.0003088241792283952
1738773105113820000,9.55281982421875,0.0004278433043509722,0.0006009768694639206,-0.0005361968069337308
1738773105123811000,9.56281103515625,0.001888304715976119,-0.0012695197947323322,-0.0011670297244563699
1738773105133803000,9.572802978515625,-0.0007226583547890186,-0.001161395339295268,0.000920888502150774
1738773105143794200,9.582794189453125,0.00010851840488612652,-0.0001725184265524149,-0.0018552036490291357
1738773105153785000,9.59278515625,0.0007740424480289221,0.00030578533187508583,0.00011606814223341644
1738773105163776000,9.60277587890625,0.0010006987722590566,0.00008649053052067757,-0.0003079470479860902
1738773105173767000,9.612766845703124,-0.0004720292636193335,-0.0008818346541374922,-0.0003739934181794524
1738773105183758000,9.622758056640626,0.00027737044729292393,0.00030001625418663025,0.0008041139808483422
1738773105193749000,9.6327490234375,0.00043343170545995235,0.0005820449441671371,0.00015696579066570848
1738773105203740000,9.642739990234375,-0.0007669133483432233,-0.00006928155198693275,-0.00025676697259768844
1738773105213731000,9.65273095703125,-0.0004159086965955794,0.0012569725513458252,-0.0010301489382982254
1738773105223723000,9.662722900390625,0.0020562191493809223,0.0006870185025036335,0.00041455705650150776
1738773105233714000,9.6727138671875,-0.000826918869279325,-0.00093671097420156,0.0010252200299873948
1738773105243705000,9.682705078125,0.0004518160130828619,0.0008922507986426353,0.0003207992413081229
1738773105253696000,9.692696044921876,0.00046246859710663557,0.0005732043646275997,-0.0002427256404189393
1738773105263687000,9.70268701171875,-0.00027963484171777964,-0.0008926012087613344,0.0003627911792136729
1738773105273678000,9.712677978515625,-0.0005917573580518365,-0.0005250850226730108,0.00020939309615641832
1738773105283669500,9.72266943359375,-0.0010973000898957253,0.0004162848927080631,0.0006194167071953416
1738773105293660400,9.732660400390625,-0.00032018963247537613,0.0003843270242214203,0.00039065114106051624
1738773105303651300,9.7426513671875,-0.0003745729336515069,-0.0013108833227306604,0.000028386886697262526
1738773105313643500,9.7526435546875,0.0004430175758898258,-0.001922345021739602,-0.0006778833921998739
1738773105323634400,9.762634521484374,-0.00142049475107342,0.0013142800889909267,0.00012039183638989925
1738773105333625600,9.77262548828125,-0.0010982522508129478,0.0008530206978321075,0.0007283914601430297
1738773105343616500,9.782616455078125,0.0005953237414360046,-0.003036018693819642,0.00008702100603841245
1738773105353607400,9.792607421875,-0.00024836580269038677,-0.0002775164321064949,-0.00007836130680516362
1738773105363598300,9.802598388671875,-0.0007145676063373685,0.0022423211485147476,-0.0012626101961359382
1738773105373589500,9.812589599609375,-0.0001403900096192956,-0.0027441815473139286,0.00033368857111781836
1738773105383580400,9.822580322265624,-0.00024476589169353247,0.0013249474577605724,0.0007211145712062716
1738773105393571300,9.8325712890625,0.0012143799103796482,0.0007515689358115196,-0.00030686554964631796
1738773105403563500,9.8425634765625,-0.0007781212916597724,-0.0018750608433037996,0.0005793535383418202
1738773105413554400,9.852554443359375,-0.0005546820466406643,-0.00135814119130373,0.0019876330625265837
1738773105423545300,9.86254541015625,-0.0007456979947164655,0.0019453377462923527,-0.00037068905658088624
1738773105433536500,9.87253662109375,0.0005754963494837284,0.000511491671204567,0.00039470344199799
1738773105443527400,9.88252734375,-0.0013513104058802128,-0.0009160852059721947,0.0006152926944196224
1738773105453518300,9.892518310546874,-0.0004879135522060096,-0.0005855869967490435,-0.00021801040566060692
1738773105463509500,9.902509521484374,-0.0004562361282296479,0.002261658199131489,-0.001769698690623045
1738773105473500400,9.91250048828125,0.000530997640453279,-0.0022049956023693085,0.0005901283002458513
1738773105483492400,9.922492431640626,-0.001421328168362379,-0.0017467292491346598,-0.00029185484163463116
1738773105493483500,9.9324833984375,-0.0015241261571645737,0.0025982181541621685,0.0013933933805674314
1738773105503474400,9.942474365234375,-0.002236840780824423,0.0006587207317352295,-0.00038559938548132777
1738773105513465300,9.95246533203125,-0.0015103304758667946,-0.002071019262075424,-0.0014101173728704453
1738773105523456300,9.962456298828124,-0.0006650773575529456,-0.0016229709144681692,-0.00015969415835570544
1738773105533447400,9.972447509765624,0.00016849208623170853,0.0026143845170736313,-0.000133861496578902
1738773105543438300,9.982438232421876,-0.0011566926259547472,-0.00019812770187854767,0.00013294193195179105
1738773105553429200,9.99242919921875,0.0010710416827350855,-0.00177658349275589,-0.00021539951558224857
1738773105563420400,10.00242041015625,0.001067397533915937,0.00007498054765164852,-0.0017701007891446352
1738773105573412400,10.012412353515625,0.0007621991680935025,0.0013935116585344076,-0.000015344034181907773
1738773105583403300,10.0224033203125,-0.0002521837595850229,-0.0014564432203769684,0.00015342148253694177
1738773105593394400,10.03239453125,0.0009337218943983316,-0.0025443444028496742,-0.00047961191739887
1738773105603385300,10.04238525390625,-0.0018973442493006587,0.0023031928576529026,0.00010860917973332107
1738773105613376300,10.052376220703126,0.0009277369827032089,-0.000727218110114336,0.0009056932758539915
1738773105623367400,10.062367431640626,0.0009445965988561511,-0.0018195109441876411,-0.0009033880778588355
1738773105633358600,10.072358642578125,0.000569357187487185,0.0023653802927583456,-0.00013746292097494006
1738773105643349500,10.082349609375,0.00001714483369141817,0.0010615233331918716,-0.00042766460683196783
1738773105653340400,10.09234033203125,-0.0005802021478302777,-0.0009827192407101393,-0.0009722810355015099
1738773105663332400,10.102332275390625,0.000249863020144403,-0.0007343969773501158,0.0003390811034478247
1738773105673323500,10.112323486328124,-0.0010249920887872577,0.0007511142175644636,-0.000048941466957330704
1738773105683314700,10.122314697265624,0.0005217189900577068,-0.000558073865249753,-0.00192622235044837
1738773105693305600,10.1323056640625,-0.00164076779037714,-0.0009021542500704527,-0.000786655698902905
1738773105703296500,10.142296630859375,0.0011878672521561384,0.0006510044913738966,-0.0006287344149313867
1738773105713287400,10.152287353515625,0.0007268739864230156,0.0006134535651654005,-0.0013275478268042207
1738773105723278600,10.162278564453125,-0.0011485508875921369,-0.0005862878169864416,-0.0001586844737175852
1738773105733269500,10.17226953125,-0.002207423560321331,0.000992966815829277,-0.001507575623691082
1738773105743260400,10.182260498046874,-0.0005554927629418671,0.0006768705788999796,-0.0008068584720604122
1738773105753252600,10.192252685546874,0.0013603853294625878,0.0005730071570724249,0.0011058237869292498
1738773105763243500,10.202243408203126,-0.0010169167071580887,-0.00000560050830245018,-0.00026594847440719604
1738773105773234400,10.212234375,-0.00023394741583615541,0.0015145321376621723,-0.00006567875971086323
1738773105783225600,10.2222255859375,0.0010518411872908473,-0.00012779422104358673,0.00002296062302775681
1738773105793216500,10.232216552734375,0.000869148294441402,-0.0015400685369968414,-0.0005530811031349003
1738773105803207400,10.24220751953125,-0.0019842979963868856,0.00021675927564501762,0.0012419109698385
1738773105813198300,10.2521982421875,0.0004298575222492218,0.002509474754333496,-0.0005115143721923232
1738773105823189500,10.262189453125,0.001444855472072959,-0.0023659192956984043,0.0014559703413397074
1738773105833180400,10.272180419921876,0.00047226890455931425,-0.000193312531337142,0.00007565398118458688
1738773105843172600,10.282172607421876,-0.001060366164892912,-0.0004946659319102764,0.000503244053106755
1738773105853163500,10.29216357421875,-0.0007487763068638742,0.0016603642143309116,-0.00032499906956218183
1738773105863154400,10.302154541015625,-0.0002586360787972808,-0.0013782624155282974,-0.0009547445806674659
1738773105873145300,10.312145263671875,0.00012485915794968605,-0.0010560199152678251,0.0008601996232755482
1738773105883136500,10.322136474609374,-0.0015095248818397522,0.0007974966429173946,0.0004619400715455413
1738773105893127400,10.33212744140625,-0.0005108394543640316,-0.0004525913391262293,-0.0006331517361104488
1738773105903118300,10.342118408203126,-0.00008259154856204987,-0.002143970225006342,0.000602430896833539
1738773105913109500,10.352109619140625,-0.0010610369499772787,0.0008843098767101765,-0.000018085673218593
1738773105923100400,10.362100341796875,-0.0007388063822872937,-0.0012717158533632755,0.0011537433601915836
1738773105933092400,10.37209228515625,0.00018957152497023344,0.0005219229497015476,0.001464267959818244
1738773105943083500,10.38208349609375,-0.0002417275682091713,0.00011677597649395466,-0.002363164909183979
1738773105953074400,10.392074462890625,-0.000749326020013541,-0.0009926969651132822,-0.0002422233810648322
1738773105963065300,10.4020654296875,-0.00016413908451795578,-0.0000985714141279459,-0.00003727813600562513
1738773105973056500,10.412056396484376,0.0011195046827197075,-0.00023279478773474693,0.001199493883177638
1738773105983047400,10.42204736328125,-0.00003126694355159998,-0.001117864390835166,0.00016632932238280773
1738773105993038300,10.432038330078125,-0.00024778186343610287,0.0016004240605980158,-0.000042728817788884044
1738773106003029200,10.442029296875,0.0002315114252269268,-0.0009233555756509304,0.001431571668945253
1738773106013020400,10.4520205078125,0.00007198809180408716,-0.0008330745622515678,0.0011990776984021068
1738773106023012400,10.462012451171875,-0.00007098040077835321,0.0003787174355238676,0.00164882093667984
1738773106033003300,10.472003173828124,-0.00044222507858648896,0.0010575575288385153,0.00032736037974245846
1738773106042994400,10.481994384765626,-0.0009348173043690622,-0.0009594769217073917,-0.0006602216162718832
1738773106052985300,10.4919853515625,-0.0008099150727503002,-0.002445254474878311,0.0003099679306615144
1738773106062976300,10.501976318359375,-0.0004984592669643462,0.0028616732452064753,0.0005742850480601192
1738773106072967400,10.511967529296875,-0.0010465378873050213,-0.0007226751185953617,-0.00012186526146251708
1738773106082958300,10.521958251953125,-0.0006487350328825414,-0.002270538592711091,0.0009972956031560898
1738773106092949500,10.531949462890625,-0.0023036233615130186,0.0031908059027045965,0.001613817410543561
1738773106102940700,10.541940673828124,-0.0014436094788834453,0.0007239086553454399,-0.0004875631129834801
1738773106112932400,10.551932373046874,-0.0001394595019519329,-0.0012247264385223389,-0.0002646565262693912
1738773106122923300,10.56192333984375,-0.00021132768597453833,0.0005530498456209898,0.0013446256052702665
1738773106132914400,10.57191455078125,-0.0003340994007885456,0.00032961065880954266,-0.0011832468444481492
1738773106142905600,10.581905517578125,-0.0008174162358045578,-0.0012006077449768782,-0.00040100235491991043
1738773106152896500,10.591896484375,-0.0005148811615072191,0.00022524874657392502,0.0004173870838712901
1738773106162887400,10.601887451171875,-0.001497873687185347,0.0010606707073748112,0.0010040425695478916
1738773106172878600,10.611878662109374,-0.0004405987565405667,-0.000840027118101716,0.00046262191608548164
1738773106182869500,10.621869384765626,0.000949787674471736,0.0003163740038871765,-0.00044019613415002823
1738773106192860400,10.6318603515625,-0.0015868733171373606,0.0011254423297941685,-0.0013904119841754436
1738773106202852600,10.6418525390625,-0.0020481767132878304,0.00014040153473615646,-0.00015492254169657826
1738773106212843500,10.651843505859375,0.0003737019142135978,-0.0011096864473074675,-0.0005509345792233944
1738773106222834400,10.66183447265625,-0.0005901969270780683,-0.0003433066885918379,-0.0012208940461277962
1738773106232825600,10.67182568359375,-0.0017297635786235332,0.0012689707800745964,-0.0008941241540014744
1738773106242816500,10.68181640625,-0.0002980361459776759,-0.0005242652259767056,-0.0006801321869716048
1738773106252807400,10.691807373046874,0.00018559384625405073,-0.000945311039686203,-0.00031341490102931857
1738773106262798600,10.701798583984376,0.00006208708509802818,0.0012788856402039528,-0.0010926563991233706
1738773106272789500,10.71178955078125,-0.0005320641212165356,-0.0029571382328867912,0.001271165325306356
1738773106282781000,10.721781005859375,0.00013815273996442556,-0.0006252669263631105,-0.00048328377306461334
1738773106292771800,10.731771728515625,-0.0006117934826761484,0.002030970063060522,0.0003673298633657396
1738773106302762800,10.7417626953125,-0.00013967801351100206,-0.00044090463779866695,0.0001961828675121069
1738773106312754000,10.75175390625,-0.0001138453371822834,-0.0033285701647400856,-0.0010693513322621584
1738773106322744800,10.761744873046876,0.00015283667016774416,0.0036102221347391605,-0.00010551279410719872
1738773106332735700,10.77173583984375,0.0011800179490819573,0.000026938971132040024,-0.0008011304889805615
1738773106342727000,10.781726806640625,-0.0011945669539272785,-0.002655564807355404,0.00015522868488915265
1738773106352717800,10.7917177734375,-0.00032770808320492506,0.0012070839293301105,0.0007584346458315849
1738773106362708700,10.801708740234375,-0.0007483471999876201,-0.0003426019102334976,-0.00007230097253341228
1738773106372701000,10.811700927734375,-0.0010138642974197865,-0.000900001497939229,0.0008805780671536922
1738773106382691800,10.82169189453125,0.0006085364148020744,-0.0005072723142802715,0.00006519383168779314
1738773106392682800,10.831682861328124,0.00005885993596166372,0.00027862656861543655,0.00003696430940181017
1738773106402674000,10.841673828125,0.0012899083085358143,0.0005452125333249569,-0.00017224655312020332
1738773106412664800,10.851664794921875,-0.0016739238053560257,-0.0009062103927135468,0.00010072745499201119
1738773106422655700,10.86165576171875,-0.001248462707735598,-0.000968005508184433,-0.0002494534710422158
1738773106432646700,10.871646728515625,-0.0010162349790334702,0.0008165789768099785,0.00013137856149114668
1738773106442637800,10.881637939453125,-0.00016801164019852877,-0.0015992254484444857,-0.000020563340513035655
1738773106452628700,10.891628662109374,0.0007278757402673364,0.0013409042730927467,0.0000713157351128757
1738773106462621000,10.901620849609374,0.00007127679418772459,-0.0002190805971622467,0.0003042651223950088
1738773106472611800,10.91161181640625,-0.0007891905843280256,-0.0026705204509198666,-0.0003375567030161619
1738773106482602800,10.921602783203125,-0.00007885403465479612,0.0009935852140188217,0.0009822044521570206
1738773106492593700,10.93159375,0.000024476670660078526,0.000009813811630010605,-0.0004889257252216339
1738773106502584800,10.941584716796875,-0.0007362511823885143,-0.001098451903089881,-0.001505454070866108
1738773106512575700,10.95157568359375,-0.00028884015046060085,0.0005596322007477283,0.00016115212929435074
1738773106522567000,10.96156689453125,0.0006824830779805779,-0.0008350263815373182,-0.0008648360380902886
1738773106532558000,10.97155810546875,0.0015980779426172376,-0.00044407439418137074,0.0005250677932053804
1738773106542549000,10.981549072265626,0.00022522080689668655,-0.0017712763510644436,-0.0003345167788211256
1738773106552540000,10.991539794921875,0.00041830004192888737,-0.000015454133972525597,0.0005033137276768684
1738773106562531800,11.00153173828125,-0.0002833197358995676,-0.0004263815935701132,-0.00009584345389157534
1738773106572522800,11.011522705078125,0.0002197513822466135,-0.0033942083828151226,-0.0006745483260601759
1738773106582514000,11.021513916015625,-0.0008345688693225384,-0.00038421223871409893,0.0011363495141267776
1738773106592505000,11.031505126953125,-0.0019397807773202658,-0.002461211523041129,-0.0005771283758804202
1738773106602496000,11.04149609375,0.0007461369968950748,-0.0007230888586491346,-0.0007325056940317154
1738773106612487000,11.05148681640625,-0.0005151360528543591,0.0011155575048178434,-0.0001846934319473803
1738773106622477800,11.061477783203125,-0.0030786017887294292,-0.00025048269890248775,0.0017277509905397892
1738773106632469000,11.071468994140625,0.0004120032535865903,0.0012310335878282785,-0.0008597761625424027
1738773106642460000,11.0814599609375,0.00003732158802449703,-0.0009991575498133898,0.00018580042524263263
1738773106652451800,11.091451904296875,-0.00009583646897226572,-0.002397849690169096,-0.00015987790538929403
1738773106662443000,11.101443115234375,-0.0026655164547264576,0.0015930929221212864,-0.001089642639271915
1738773106672434000,11.111433837890624,0.0006645000539720058,0.0005856193602085114,-0.0008528876351192594
1738773106682424800,11.1214248046875,-0.0012896453263238072,-0.0014054779894649982,-0.0005354858003556728
1738773106692416000,11.131416015625,0.0007348897634074092,0.0010291838552802801,-0.0005330889252945781
1738773106702407000,11.141406982421875,0.00012961809989064932,0.002312339609488845,-0.0003584084624890238
1738773106712397800,11.151397705078125,-0.0004861047491431236,-0.0017617640551179647,0.0002653038827702403
1738773106722388700,11.161388671875,-0.0011922530829906464,0.00013582338578999043,0.0004486367688514292
1738773106732380000,11.1713798828125,-0.0004923743545077741,-0.0001280957367271185,0.0007650203187949955
1738773106742371800,11.181371826171874,-0.00006197730544954538,0.0023966801818460226,-0.0010891850106418133
1738773106752363000,11.191363037109374,-0.0005096546956337988,-0.0018795577343553305,-0.0002500230330042541
1738773106762354000,11.20135400390625,-0.000152338994666934,-0.0006124046631157398,0.00039965822361409664
1738773106772344800,11.2113447265625,0.0007813653210178018,0.001156466780230403,-0.0011753351427614689
1738773106782335700,11.221335693359375,-0.0012769019231200218,-0.0016034834552556276,-0.00018270258442498744
1738773106792327000,11.231326904296875,0.0010067587718367577,0.0003989473916590214,-0.0008511560154147446
1738773106802317800,11.24131787109375,0.0002860408276319504,-0.0005594203248620033,0.0008698971359990537
1738773106812308700,11.251308837890624,0.000380050390958786,-0.0006560932379215956,-0.00006673656753264368
1738773106822300000,11.2612998046875,-0.0010792375542223454,-0.0001480812206864357,0.0005770854186266661
1738773106832291800,11.271291748046876,0.001923742820508778,-0.0003318393137305975,-0.000004815257852897048
1738773106842282800,11.28128271484375,-0.00010296795517206192,-0.0003763684071600437,0.00027176630101166666
1738773106852274000,11.29127392578125,-0.0008851382881402969,-0.0020850524306297302,-0.0006712590111419559
1738773106862264800,11.301264892578125,-0.00003886898048222065,0.0015834877267479897,0.0009255927288904786
1738773106872255700,11.311255859375,-0.0006330201867967844,0.0017797630280256271,-0.0007332903333008289
1738773106882247000,11.321246826171874,-0.00013462838251143694,-0.001388784497976303,0.000403122539864853
1738773106892237800,11.33123779296875,0.00037589960265904665,0.0005822211969643831,7.189228199422359e-7
1738773106902228700,11.341228759765626,-0.0004924287786707282,0.0009445480536669493,0.0015984397614374757
1738773106912221000,11.351220947265626,0.0008753706933930516,-0.0018549670930951834,-0.0007262334693223238
1738773106922211800,11.3612119140625,0.000018809805624186993,0.0006782456766813993,-0.0008256746805272996
1738773106932202800,11.37120263671875,0.0005708830431103706,0.0009472251404076815,-0.0010099654318764806
1738773106942193700,11.381193603515625,0.002130401786416769,-0.0012975081335753202,0.0003205857356078923
1738773106952184800,11.391184814453124,0.001175658660940826,0.0008849522564560175,-0.000056784163461998105
1738773106962175700,11.40117578125,0.00047728209756314754,0.00009078625589609146,-0.0003552065172698349
1738773106972166700,11.411166748046876,-0.0005427086143754423,-0.0030892943032085896,-0.00010992938041454181
1738773106982157800,11.42115771484375,-0.00027935474645346403,0.0007910635322332382,-0.0013317345874384046
1738773106992149000,11.43114892578125,0.001382990274578333,0.0014991979114711285,-0.0004622125707101077
