time,seconds_elapsed,z,y,x
1738773095584795600,0.023795654296875,0.0005768407136201859,0.014093714766204357,-0.00034461304312571883
1738773095594786600,0.03378662109375,0.0011257182341068983,0.02171941101551056,-0.0008375641773454845
1738773095604777700,0.04377783203125,0.0011970909545198083,-0.011841746047139168,0.0014998923288658261
1738773095614768600,0.0537685546875,-0.00017017599020618945,-0.006671485025435686,0.0008327704854309559
1738773095624760600,0.063760498046875,0.0026341325137764215,0.02040860243141651,-0.00036458674003370106
1738773095634751700,0.073751708984375,0.002033855998888612,0.006214486435055733,0.0013707289472222328
1738773095644742700,0.08374267578125,-0.00042211104300804436,-0.010043312795460224,0.0009456885163672268
1738773095654733600,0.093733642578125,0.0026170883793383837,0.00821132492274046,-0.00012303804396651685
1738773095664724500,0.103724365234375,0.001219727797433734,0.01344816479831934,-0.0017787253018468618
1738773095674715600,0.113715576171875,-0.0001280980504816398,-0.005621932912617922,0.0005257080192677677
1738773095684706600,0.12370654296875,0.002507632365450263,0.0005313006113283336,0.00005699164830730297
1738773095694697700,0.13369775390625,0.0022658174857497215,0.012577311135828495,-0.0004223773430567235
1738773095704689000,0.14368896484375,0.0016016251174733043,0.0039044604636728764,0.0013771206140518188
1738773095714680600,0.1536806640625,0.003433879930526018,-0.0046333675272762775,0.0015664712991565466
1738773095724671500,0.16367138671875,0.0021973741240799427,0.007104514632374048,-0.0002537992550060153
1738773095734662700,0.17366259765625,0.0009715211344882846,0.009281382896006107,-0.0006966829532757401
1738773095744653800,0.18365380859375,0.0013856426812708378,-0.0003813646617345512,-0.0001597896625753492
1738773095754644700,0.193644775390625,0.002600310370326042,0.002551840851083398,-0.0003866909828502685
1738773095764636000,0.203635986328125,0.0021528995130211115,0.00980469398200512,0.0002972087822854519
1738773095774626800,0.213626708984375,0.000571248063351959,0.0016370450612157583,0.000609863898716867
1738773095784617700,0.22361767578125,0.002441852353513241,-0.00138031633105129,0.0015571502735838294
1738773095794609700,0.233609619140625,0.001151018193922937,0.008374043740332127,0.0008037420338951051
1738773095804600800,0.243600830078125,0.00040240364614874125,0.005856823641806841,-0.0006737797521054745
1738773095814591700,0.253591796875,0.0028988507110625505,-0.0011400992516428232,-0.00017843178648035973
1738773095824582700,0.263582763671875,0.002683134749531746,0.003310841741040349,-0.0005448827287182212
1738773095834573800,0.27357373046875,0.0016229304019361734,0.008418518118560314,-0.0005611280212178826
1738773095844564700,0.283564697265625,0.002728142309933901,0.003951598424464464,0.00012144014181103557
1738773095854555600,0.2935556640625,0.005119660869240761,0.0013619405217468739,-0.000699079770129174
1738773095864546800,0.303546875,0.003422162029892206,0.0035321505274623632,0.0011765845119953156
1738773095874538800,0.313538818359375,0.003315103007480502,0.0049092709086835384,-0.0007552724564447999
1738773095884529700,0.32352978515625,0.0007568703731521964,0.0033545177429914474,-0.0012895026011392474
1738773095894520800,0.333520751953125,0.0002822950773406774,0.00583685003221035,-0.0013603427214547992
1738773095904511700,0.34351171875,0.0031273500062525272,0.0035958001390099525,0.0006697850185446441
1738773095914502700,0.353502685546875,0.0020471718162298203,0.001987517112866044,-0.00122558674775064
1738773095924493800,0.363493896484375,0.0013640711549669504,0.0021281319204717875,0.0018261295044794679
1738773095934484700,0.373484619140625,0.0011877698125317693,0.006803844124078751,0.0007091998122632504
1738773095944475600,0.3834755859375,0.0012202603975310922,0.0037587855476886034,0.003090598387643695
1738773095954466600,0.393466552734375,0.0009113337146118283,0.0005584649043157697,0.001445830101147294
1738773095964458800,0.403458740234375,0.0016951019642874599,0.002680737990885973,-0.00003941478280466981
1738773095974449700,0.41344970703125,0.00290417717769742,0.005246693734079599,0.001074052881449461
1738773095984440800,0.42344091796875,0.0006386260502040386,0.0025102957151830196,0.00032890037982724607
1738773095994431700,0.433431640625,0.0022570290602743626,0.002924417145550251,0.00045619948650710285
1738773096004422700,0.443422607421875,0.0023409186396747828,0.005623797420412302,0.0005805690889246762
1738773096014413600,0.45341357421875,0.002538258908316493,0.0038120488170534372,-0.001335841603577137
1738773096024404700,0.46340478515625,0.0014567491598427296,0.000987766426987946,0.0007203850545920432
1738773096034395600,0.473395751953125,0.00031425300403498113,0.0060933125205338,-0.000045806369598722085
1738773096044387600,0.4833876953125,0.0025949841365218163,0.006485596299171448,-0.00021678130724467337
1738773096054378800,0.493378662109375,0.00177952426020056,0.0005928196478635073,-0.000029827404432580806
1738773096064369700,0.50336962890625,-0.0005038700764998794,0.0013483584625646472,-0.0012631373247131705
1738773096074360600,0.513360595703125,0.0010037453612312675,0.005769738461822271,-0.0020804614759981632
1738773096084351700,0.523351806640625,0.001443166984245181,0.005278118886053562,-0.0007193197961896658
1738773096094342700,0.5333427734375,0.0017840516520664096,0.003323625074699521,-0.0007946872501634061
1738773096104333600,0.54333349609375,-0.00008628641808172688,0.00415319949388504,0.0004511394945438951
1738773096114324700,0.55332470703125,0.001157143502496183,0.004049070179462433,0.0002692455891519785
1738773096124316700,0.563316650390625,0.0014197311829775572,0.0029257487040013075,0.0003251719754189253
1738773096134307600,0.5733076171875,0.000041545314161339775,0.003911917097866535,0.0006482133758254349
1738773096144298800,0.583298828125,0.0009243832319043577,0.005528189707547426,0.00036618465674109757
1738773096154289700,0.59328955078125,0.0005589975044131279,0.004441886208951473,0.00021651499264407903
1738773096164280600,0.603280517578125,0.00032330775866284966,0.00008442220860160887,0.000824248360004276
1738773096174271500,0.613271484375,0.0012386362068355083,0.005617139395326376,-0.0008056062506511807
1738773096184262700,0.6232626953125,-0.0003608583356253803,0.0065710837952792645,-0.0005456816870719194
1738773096194253600,0.633253662109375,0.001915878034196794,0.0013044163351878524,-0.00045353634050115943
1738773096204245800,0.643245849609375,0.0009086705395020545,0.0020453077740967274,0.00037470675306394696
1738773096214236700,0.653236572265625,0.0006149238906800747,0.005340170580893755,-0.0003270361921750009
1738773096224227600,0.6632275390625,0.000740625080652535,0.004406199790537357,0.0002996056282427162
1738773096234218500,0.673218505859375,0.0027079021092504263,0.004238953348249197,0.0009100021561607718
1738773096244209700,0.683209716796875,0.001264468883164227,0.004489556886255741,-0.00007776429993100464
1738773096254200600,0.69320068359375,0.0019196064677089453,0.004653075244277716,0.0009339706157334149
1738773096264190700,0.703190673828125,0.0034469293896108866,0.0016508935950696468,0.0012362393317744136
1738773096274182000,0.713181884765625,0.0010524812387302518,0.0041366880759596825,0.0015427692560479045
1738773096284172800,0.7231728515625,0.000025300030756625347,0.0049436260014772415,0.0005520732956938446
1738773096294164700,0.733164794921875,0.0013190637109801173,0.002981142606586218,0.000012250540748937055
1738773096304156000,0.743156005859375,-0.0002721750643104315,0.0024029703345149755,-0.00025486451340839267
1738773096314146800,0.753146728515625,0.00022663500567432493,0.005367867648601532,0.00041278995922766626
1738773096324137700,0.7631376953125,0.0005089300684630871,0.003620833856984973,0.000782436749432236
1738773096334129000,0.77312890625,-0.0000015978966985130683,0.0017310547409579158,0.0006689860601909459
1738773096344119800,0.783119873046875,0.0026442527305334806,0.0036586506757885218,0.0012572783743962646
1738773096354110700,0.79311083984375,0.001433845958672464,0.0046488139778375626,0.0018285263795405626
1738773096364101600,0.8031015625,0.001148088718764484,0.004770254250615835,-0.000571248063351959
1738773096374093800,0.81309375,0.0016908409306779504,0.0038714371621608734,0.0017680726014077663
1738773096384084700,0.823084716796875,0.001660480978898704,0.0043867588974535465,0.0009209210984408855
1738773096394075600,0.83307568359375,0.003022421384230256,0.0033960631117224693,0.0020881847012788057
1738773096404066800,0.84306689453125,0.0004519384237937629,0.0034437335561960936,0.0021763353142887354
1738773096414057700,0.8530576171875,0.0031577101908624172,0.003771835006773472,0.0006548712844960392
1738773096424048600,0.863048583984375,0.0008977515972219408,0.006073338910937309,0.0014479606179520488
1738773096434039800,0.873039794921875,0.0009451558580622077,0.003484213724732399,-0.0009001484140753746
1738773096444030700,0.88303076171875,0.001139300293289125,0.002633067313581705,0.0003861583536490798
1738773096454022700,0.893022705078125,0.002502039773389697,0.00595509447157383,0.0007858988246880472
1738773096464013800,0.903013916015625,0.0015299860388040543,0.0038165762089192867,-0.0006588660762645304
1738773096474004700,0.913004638671875,0.0012841762509196997,0.0028306739404797554,0.0008495483780279756
1738773096483995600,0.92299560546875,0.0016492956783622503,0.004599811974912882,-0.00040480049210600555
1738773096493986800,0.93298681640625,0.0006005428149364889,0.004466121084988117,0.0010074737947434187
1738773096503977700,0.942977783203125,0.0011406318517401814,0.003988349810242653,0.0002993392990902066
1738773096513968600,0.95296875,0.0010772485984489322,0.0018197379540652037,0.0011936287628486753
1738773096523959600,0.96295947265625,0.0020903151016682386,0.004333495628088713,0.0003270361921750009
1738773096533951700,0.97295166015625,0.0017712684348225594,0.0041337586008012295,0.000015978966985130683
1738773096543942700,0.982942626953125,0.0018738001817837358,0.003762513864785433,-0.00006817692337790504
1738773096553933600,0.99293359375,0.0027545075863599777,0.002549976808950305,-0.0005243764026090503
1738773096563924700,1.0029248046875,0.002365153282880783,0.0027236149180680513,-0.0006431533838622272
1738773096573915600,1.01291552734375,0.001041562296450138,0.004999286029487848,-0.0007403587806038558
1738773096583906600,1.022906494140625,0.002027997048571706,0.0033814155030995607,0.0006503439508378506
1738773096593897700,1.032897705078125,0.0006223807577043772,0.003555319970473647,0.00027270769351162016
1738773096603888600,1.042888671875,0.0002103897277265787,0.005724198184907436,0.00011478224041638896
1738773096613879800,1.0528798828125,0.0010876349406316876,0.002745985286310315,0.0006418218254111707
1738773096623871700,1.062871826171875,0.0019092201255261898,0.004033091012388468,0.00088949577184394
1738773096633862700,1.072862548828125,0.000800279900431633,0.0035657063126564026,0.0009121326729655266
1738773096643853600,1.082853515625,0.00011904330312972888,0.004486094694584608,0.0018367822049185634
1738773096653844700,1.0928447265625,-0.00000958738019107841,0.0034051176626235247,-0.0011502192355692387
1738773096663835600,1.102835693359375,0.002255431143566966,0.0037649108562618494,-0.00040559942135587335
1738773096673826800,1.112826904296875,0.0031316110398620367,0.0032051142770797014,-0.0002324939559912309
1738773096683817700,1.122817626953125,0.0013201289111748338,0.0036818201187998056,0.0011829761788249016
1738773096693809000,1.132808837890625,0.003096990054473281,0.003450657706707716,0.0005850964807905257
1738773096703800600,1.142800537109375,0.0010151970200240612,0.0033542513847351074,0.0005038700764998794
1738773096713791700,1.152791748046875,0.0014082795241847634,0.0025502429343760014,0.0012405004817992449
1738773096723782700,1.16278271484375,0.0016815199051052332,0.0037979339249432087,0.0009496832499280572
1738773096733773800,1.17277392578125,0.0006053365068510175,0.003947869874536991,0.00040187101694755256
1738773096743764700,1.1827646484375,0.0012024171883240342,0.0039175101555883884,0.0008370315190404654
1738773096753756000,1.192755859375,0.0022146848496049643,0.004739894066005945,0.0005739112384617329
1738773096763746800,1.202746826171875,0.00236275652423501,0.003939347807317972,0.0007699198904447258
1738773096773737700,1.21273779296875,0.0019923108629882336,0.0034525219816714525,0.0008420915110036731
1738773096783729000,1.22272900390625,0.0015970977256074548,0.0020815266761928797,0.001996571896597743
1738773096793720800,1.232720947265625,0.0018093516118824482,0.003123888047412038,-0.0002902845444623381
1738773096803711700,1.242711669921875,-0.0006050702068023384,0.004634432960301638,-0.0001930791768245399
1738773096813703000,1.252702880859375,0.0009603358921594918,0.00515801040455699,-0.0005230448441579938
1738773096823693800,1.26269384765625,0.0008295746520161629,0.001958222361281514,0.0010697918478399515
1738773096833684700,1.272684814453125,0.002371278591454029,0.005088767968118191,0.001279116258956492
1738773096843676000,1.282676025390625,0.0008383630774915218,0.004854409955441952,0.00021731393644586205
1738773096853666800,1.292666748046875,0.0017592841759324074,0.005018460564315319,0.00025007082149386406
1738773096863657700,1.30265771484375,0.0009805759182199836,0.005278651602566242,0.0006942860782146454
1738773096873650000,1.31264990234375,-0.0010908307740464807,0.0031529164407402277,-0.0013616742799058557
1738773096883640800,1.322640869140625,-0.000035420041967881843,0.0039113848470151424,-0.0007941546500660479
1738773096893631700,1.3326318359375,0.0011201255256310105,0.00358781055547297,0.0015640745405107737
1738773096903622700,1.34262255859375,0.001820536912418902,0.003344397759065032,-0.0009060074225999415
1738773096913613800,1.35261376953125,0.002070607617497444,0.002817358123138547,-0.00016884441720321774
1738773096923604700,1.362604736328125,0.0012144014472141862,0.0049345712177455425,0.00010599380766507238
1738773096933595600,1.372595703125,0.0027182884514331818,0.0057492321357131,0.0003757720405701548
1738773096943586800,1.3825869140625,0.0006492786924354732,0.0041436124593019485,0.0005198490689508617
1738773096953577700,1.39257763671875,0.00021944446780253202,0.0026551715563982725,0.00047883635852485895
1738773096963569700,1.402569580078125,0.0013584784464910626,0.00734313391149044,0.0005273058777675033
1738773096973560800,1.412560791015625,0.0002932140196207911,0.0030386666767299175,0.00018216021999251097
1738773096983551700,1.4225517578125,0.0004495415778364986,-0.0008261125767603517,0.00012916330888401717
1738773096993542700,1.432542724609375,0.003515905234962702,0.0046211169101297855,0.0006612628931179643
1738773097003533800,1.442533935546875,0.0010910971323028207,0.007274158298969269,0.0008450209861621261
1738773097013524700,1.452524658203125,0.00011984224693151191,0.002118811011314392,-0.00010599380766507238
1738773097023515600,1.462515625,0.0010817759903147817,0.0006311691831797361,0.0012985573848709464
1738773097033506600,1.472506591796875,0.0015560849569737911,0.005417935084551573,0.0004271710349712521
1738773097043498800,1.482498779296875,0.0011906992876902223,0.004433097783476114,0.0010998855577781796
1738773097053489700,1.49248974609375,0.0010197244118899107,0.0022682142443954945,0.0009366337326355278
1738773097063480800,1.502480712890625,0.0010993528412654996,0.0037593182642012835,0.000024767397917457856
1738773097073471700,1.5124716796875,0.0031286815647035837,0.004506068304181099,0.00027616979787126184
1738773097083462700,1.522462646484375,-0.00012623383372556418,0.002951315138489008,-0.0005672533297911286
1738773097093453600,1.53245361328125,0.003513242118060589,0.006277869455516338,-0.0004934837343171239
1738773097103444700,1.54244482421875,0.002316950121894479,0.002514823107048869,-0.000026365294615970924
1738773097113435600,1.552435546875,0.0024927188642323017,0.002514290390536189,-0.0003968109958805144
1738773097123426600,1.562426513671875,0.001600826159119606,0.003826696192845702,-0.0000045273736759554595
1738773097133418800,1.572418701171875,-0.0007888282998465002,0.0070885359309613705,-0.0003235740587115288
1738773097143409700,1.58240966796875,0.0022423816844820976,0.0035169704351574183,0.00007376955909421667
1738773097153400600,1.592400634765625,0.0002620550512801856,0.003855191869661212,0.0005747101386077702
1738773097163391700,1.602391845703125,0.0014295848086476326,0.004548945464193821,-0.0000798948312876746
1738773097173382700,1.612382568359375,0.0010010822443291545,0.0038184402510523796,0.0007499461644329131
1738773097183373600,1.62237353515625,0.0020391824655234814,0.0029350698459893465,0.0012628709664568305
1738773097193364700,1.63236474609375,0.002597380895167589,0.004538292996585369,-0.0006916229031048715
1738773097203356000,1.64235595703125,0.0018791264155879617,0.003421895671635866,0.0002569950302131474
1738773097213347600,1.65234765625,0.0005845638806931674,0.0035835495218634605,0.0006404902087524533
1738773097223338800,1.6623388671875,0.0010333064710721374,0.0023675502743571997,0.0021734058391302824
1738773097233329700,1.67232958984375,0.000958205375354737,0.003294330323114991,0.0007211840129457414
1738773097243320600,1.682320556640625,0.0007454187725670636,0.004674912896007299,-0.0003499393642414361
1738773097253311700,1.692311767578125,0.0035428032279014587,0.004412058740854263,0.000322775129461661
1738773097263303000,1.702302978515625,0.0012311793398112059,0.0031438616570085287,-0.0008452873444184661
1738773097273294600,1.712294677734375,0.000441818410763517,0.004376106429845095,-0.0002980077115353197
1738773097283285500,1.722285400390625,0.0011672634864225984,0.003975300583988428,0.000553404854144901
1738773097293276700,1.732276611328125,-0.0019185412675142288,0.002651443239301443,0.001130245509557426
1738773097303268600,1.7422685546875,0.0017776599852368236,0.004226436838507652,0.00026738137239590287
1738773097313259500,1.752259521484375,0.0036639769095927477,0.0014642059104517102,-0.00017656758427619934
1738773097323250700,1.762250732421875,0.001466869143769145,0.004003263544291258,0.0002532666258048266
1738773097333241600,1.77224169921875,0.002715625334531069,0.002921221312135458,-0.000008255799002654385
1738773097343232500,1.782232421875,0.0007531419396400452,0.003849332919344306,0.0009629990672692657
1738773097353223700,1.7922236328125,0.001279116258956492,0.004474909510463476,0.0005462143453769386
1738773097363214800,1.80221484375,0.0022650184109807014,0.00395585922524333,-0.00010812433902174234
1738773097373205800,1.812205810546875,0.0003818972909357399,0.0014969628537073731,0.0004961469094268978
1738773097383197700,1.82219775390625,0.0012263857061043382,0.003861583536490798,0.0009012137306854129
1738773097393188600,1.832188720703125,0.0005576659459620714,0.004245078656822443,-0.001315068919211626
1738773097403179500,1.842179443359375,-0.0005499427788890898,0.0030426615849137306,0.0006628608098253608
1738773097413170700,1.852170654296875,0.0005044027348048985,0.0024767396971583366,-0.0010295780375599861
1738773097423161900,1.862161865234375,0.0028415927663445473,0.005498095881193876,0.000824248360004276
1738773097433152800,1.87215283203125,0.0009369000908918679,0.0038748993538320065,0.0018274611793458462
1738773097443143700,1.882143798828125,0.0023454460315406322,0.0005243764026090503,-0.00019414443522691727
1738773097453134800,1.892134765625,0.0016783240716904402,0.0052086105570197105,-0.0007550061563961208
1738773097463125800,1.902125732421875,0.0006378270918503404,0.004224305972456932,0.0009134642314165831
1738773097473116700,1.91211669921875,0.0011994877131655812,0.0020999026019126177,0.0007107976707629859
1738773097483108900,1.92210888671875,0.002639458980411291,0.003525492735207081,-0.0005379585199989378
1738773097493099800,1.932099853515625,0.0011704593198373914,0.005528189707547426,0.0012120045721530914
1738773097503090700,1.942090576171875,0.0016905746888369322,0.004029096569865942,0.0011235876008868217
1738773097513081900,1.952081787109375,0.0021017666440457106,0.003626959165558219,-0.0003110571997240186
1738773097523072800,1.96207275390625,0.003430950455367565,0.0054152715019881725,0.00036378781078383327
1738773097533063700,1.972063720703125,0.0011797803454101086,0.00264798104763031,-0.001389104756526649
1738773097543054600,1.9820546875,-0.00004447478931979276,0.003623763332143426,0.0011848403373733163
1738773097553045800,1.992045654296875,0.0005856291390955448,0.004063983913511038,-0.00032730249222368
1738773097563037700,2.00203759765625,0.001555552356876433,0.005515939090400934,0.00006072007090551779
1738773097573028900,2.01202880859375,0.0017747305100783706,0.003612311789765954,0.00045566685730591416
1738773097583019800,2.022019775390625,0.0019861855544149876,0.002366218715906143,0.0009028115891851485
1738773097593010700,2.0320107421875,-0.0002442118711769581,0.005369465332478285,0.001347559504210949
1738773097603001600,2.042001708984375,0.003165433183312416,0.0038224351592361927,0.0003230414295103401
1738773097612992800,2.05199267578125,0.0005637911963276565,0.0027172232512384653,-0.00034647725988179445
1738773097622983700,2.061983642578125,0.0025180187076330185,0.0043926178477704525,-0.0002540655550546944
1738773097632974600,2.071974609375,0.0013294500531628728,0.004962534178048372,-0.00045540055725723505
1738773097642965800,2.0819658203125,0.0015646071406081319,0.0034021881874650717,-0.0006609965930692852
1738773097652957700,2.091957763671875,0.0015840481501072645,0.002615756820887327,0.0006862966110929847
1738773097662948600,2.101948486328125,0.0011020160745829344,0.003242664970457554,0.0003201119543518871
1738773097672939800,2.111939697265625,0.0007291734800674021,0.0036253612488508224,0.0007872303831391037
1738773097682930700,2.1219306640625,0.003135872073471546,0.0026104305870831013,0.00004500742215896025
1738773097692921600,2.131921630859375,0.002493517706170678,0.0037832865491509438,0.0011997540714219213
1738773097702912800,2.141912841796875,0.0017174725653603673,0.00446984963491559,0.0018407768802717328
1738773097712903700,2.151903564453125,0.0025190841406583786,0.004328169394284487,0.0005925533478148282
1738773097722894600,2.16189453125,0.0016341155860573053,0.0033997914288192987,0.00012596751912496984
1738773097732885500,2.171885498046875,-0.00023808660625945777,0.003983822651207447,0.0002663161139935255
1738773097742877700,2.181877685546875,0.0005376922199502587,0.004086087923496962,0.0010540791554376483
1738773097752868600,2.19186865234375,0.0005816344055347145,0.004476773552596569,-0.0004308994684834033
1738773097762859500,2.201859619140625,0.0009898969437927008,0.0014444985426962376,0.0007387608638964593
1738773097772850700,2.2118505859375,-0.0006852313526906073,0.004729773849248886,0.0007009439868852496
1738773097782841600,2.221841552734375,0.002246376359835267,0.0056802560575306416,0.0009544769418425858
1738773097792832500,2.23183251953125,0.0018303906545042992,0.0027209515683352947,-0.00012490226072259247
1738773097802823700,2.24182373046875,0.0028599686920642853,0.0041529336012899876,-0.00016538229829166085
1738773097812814600,2.251814697265625,0.0011803129455074668,0.0044173854403197765,-0.00008016114588826895
1738773097822805800,2.2618056640625,0.0009765811264514923,0.0031318773981183767,0.0001651159836910665
1738773097832797700,2.271797607421875,0.0015837819082662463,0.005314604379236698,-0.001184307737275958
1738773097842788600,2.28178857421875,-0.00040772996726445854,0.002525209216400981,-0.00017656758427619934
1738773097852779500,2.291779541015625,0.002356897573918104,0.004044010303914547,0.0007022755453363061
1738773097862770700,2.301770751953125,0.0021430456545203924,0.003955060616135597,-0.0014391721924766898
1738773097872761600,2.31176171875,0.002350505907088518,0.002606435678899288,0.00007962851668708026
1738773097882752800,2.321752685546875,0.0020743361674249172,0.0012873720843344927,0.00009560748003423214
1738773097892743700,2.33174365234375,0.0012591425329446793,0.004532167688012123,-0.00041784998029470444
1738773097902734800,2.34173486328125,0.0015198660548776388,0.0027292075101286173,0.001141963410191238
1738773097912726500,2.3517265625,0.0002868224401026964,0.0013494236627593637,0.0007126618875190616
1738773097922717700,2.3617177734375,0.0022186795249581337,0.00506906071677804,0.00037763622822239995
1738773097932708900,2.371708984375,0.001141963410191238,0.0046754456125199795,-0.0012831110507249832
1738773097942699800,2.38169970703125,0.0017619474092498422,0.0019971043802797794,-0.00016671388584654778
1738773097952690700,2.391690673828125,0.00009374327055411413,0.0036448021419346333,0.0003515372518450022
1738773097962681900,2.401681884765625,0.0016450346447527409,0.004027232062071562,0.0012626046082004905
1738773097972672800,2.4116728515625,0.0024887239560484886,0.0028096348978579044,0.001680987305007875
1738773097982663700,2.42166357421875,0.0012506204657256603,0.0043801008723676205,-0.0009912285022437572
1738773097992654800,2.43165478515625,0.0006585997180081904,0.003427754621952772,0.001424791174940765
1738773098002646800,2.441646728515625,0.001648230361752212,0.003952131140977144,0.000559530162718147
1738773098012637700,2.4516376953125,0.0008950884221121669,0.0020482372492551804,-0.0010748518398031592
1738773098022628900,2.46162890625,0.00042104575550183654,0.003757720347493887,0.00026738137239590287
1738773098032619800,2.471619873046875,-0.0013456953456625342,0.005452556069940329,-0.0001411475386703387
1738773098042610700,2.481610595703125,0.002314020646736026,0.003605121048167348,0.0013430321123450994
1738773098052601900,2.491601806640625,0.0034463966730982065,0.0017270599491894245,-0.0009499495499767363
1738773098062592800,2.5015927734375,0.00024154871061909944,0.003102316288277507,0.0002463423879817128
1738773098072583700,2.511583740234375,0.0027084348257631063,0.004579572007060051,-0.0009827064350247383
1738773098082574600,2.52157470703125,0.0006348976166918874,0.00018562232435215265,0.0006242449744604528
1738773098092566800,2.53156689453125,0.0007651261985301971,0.0029843382071703672,0.0017145430902019143
1738773098102557700,2.5415576171875,0.0019379822770133615,0.006425142288208008,0.00012863067968282849
1738773098112548600,2.551548583984375,0.0014090784825384617,0.005047488957643509,0.0010346380295231938
1738773098122539800,2.561539794921875,0.002960103563964367,0.0028570392169058323,-0.0005560680292546749
1738773098132530700,2.57153076171875,0.0024551681708544493,0.004035221878439188,0.0005656554130837321
1738773098142521600,2.581521484375,0.0009544769418425858,0.004972121678292751,-0.0002263686910737306
1738773098152512800,2.5915126953125,0.0017757958266884089,0.0044054011814296246,-0.00022663500567432493
1738773098162503700,2.601503662109375,0.00020879182557109743,0.002892192918807268,-0.0010282464791089296
1738773098172494600,2.61149462890625,0.001261805766262114,0.003855458227917552,0.0006245112745091319
1738773098182486800,2.62148681640625,0.0017797905020415783,0.005621400196105242,0.0011379687348380685
1738773098192477700,2.631477783203125,0.0012463594321161509,0.0029848709236830473,0.0013683321885764599
1738773098202468600,2.641468505859375,0.0016327840276062489,0.00339126936160028,0.00044661210267804563
1738773098212459800,2.651459716796875,0.0011616708943620324,0.003501257859170437,0.00004314320904086344
1738773098222450700,2.66145068359375,0.00119602563790977,0.004950284026563168,0.0014559502014890313
1738773098232441600,2.671441650390625,0.001371794263832271,0.002264485927298665,-0.0013382384786382318
1738773098242432500,2.6814326171875,0.001714010490104556,0.0019180085510015488,0.000862864195369184
1738773098252423700,2.691423583984375,0.000999750685878098,0.004000866785645485,0.0004799016169272363
1738773098262414600,2.70141455078125,-0.0005941512063145638,0.0023073628544807434,0.0006058691651560366
1738773098272405800,2.71140576171875,0.0021960425656288862,0.004363855812698603,0.001898034941405058
1738773098282397000,2.72139697265625,0.0007209177128970623,0.0028631645254790783,0.00013795174891129136
1738773098292387800,2.731387939453125,0.001110005541704595,0.00555056007578969,0.0004242415598127991
1738773098302379000,2.74137890625,0.000838895735796541,0.003090864745900035,0.0008178567513823509
1738773098312370200,2.7513701171875,0.000544350128620863,0.0031848743092268705,-0.0019441075855866075
1738773098322361000,2.761361083984375,0.0002695118892006576,0.007337008602917194,-0.0005579322460107505
1738773098332352000,2.77135205078125,-0.0007243797881528735,0.0034285534638911486,-0.0004921521758660674
1738773098342343000,2.781343017578125,0.0016961672808974981,0.0008167914929799736,0.0005880259559489787
1738773098352334000,2.791333984375,0.0008404936525039375,0.006435795221477747,0.00014434332842938602
1738773098362326000,2.801325927734375,0.0031790153589099646,0.004010187927633524,-0.0003222425002604723
1738773098372317000,2.81131689453125,0.0016263924771919847,0.002567020943388343,-0.0018160095205530524
1738773098382308000,2.82130810546875,0.003052515210583806,0.002674079965800047,0.001487375469878316
1738773098392299000,2.831299072265625,0.0011036139912903309,0.006973487325012684,0.0006607302348129451
1738773098402290000,2.8412900390625,0.0006652576266787946,0.003994475118815899,-0.00043649208964779973
1738773098412281000,2.851281005859375,0.0015390408225357533,0.0027387947775423527,0.0015243934467434883
1738773098422272000,2.86127197265625,0.0011116034584119916,0.0037926076911389828,0.0005805690889246762
1738773098432263000,2.871262939453125,0.0008442220860160887,0.00520727876573801,-0.0007392935222014785
1738773098442253800,2.88125390625,0.0014106763992458582,0.0007510114228352904,0.0011720572365447879
1738773098452246000,2.89124609375,0.0017022925894707441,0.0032866070978343487,0.0004593952908180654
1738773098462237000,2.90123681640625,0.003227218519896269,0.005471996963024139,0.0005046690348535776
1738773098472228000,2.91122802734375,0.002119077369570732,0.0022327941842377186,0.0009257147903554142
1738773098482219000,2.921218994140625,0.0009488842915743589,0.001942509668879211,-0.000031691615731688216
1738773098492210000,2.9312099609375,0.000595216522924602,0.005782255437225103,-0.0005360943032428622
1738773098502200800,2.941200927734375,0.0017773937433958054,0.0037590519059449434,-0.00025060345069505274
1738773098512192000,2.95119189453125,0.0016295883106067777,0.002304965863004327,0.0016841830220073462
1738773098522183000,2.961182861328125,0.0017635452095419168,0.005776396486908197,0.00032437301706522703
1738773098532173800,2.971173828125,0.00003488740912871435,0.004839496221393347,0.0006641923682764173
1738773098542166000,2.981166015625,0.0013177321525290608,0.002538258908316493,-0.0009869674686342478
1738773098552157000,2.991156982421875,0.002748914761468768,0.0025033713318407536,0.0009307747823186219
1738773098562147800,3.00114794921875,0.001312139444053173,0.005404885392636061,-0.0007603325066156685
1738773098572139000,3.011138916015625,0.0013662016717717052,0.005397162400186062,0.000603738590143621
1738773098582130000,3.0211298828125,0.0003478088474366814,0.0016042882343754172,-0.0005102616851218045
1738773098592120800,3.031120849609375,0.0007384945638477802,0.004230697639286518,0.002466087229549885
1738773098602112000,3.041112060546875,0.0009006810723803937,0.005753759294748306,0.0002639192680362612
1738773098612103000,3.05110302734375,0.0018546254141256213,0.004209392238408327,0.000245543458731845
1738773098622093800,3.06109375,0.0004213120846543461,0.0033955303952097893,0.00036511936923488975
1738773098632086000,3.0710859375,0.0038189729675650597,0.0043532028794288635,-0.0013859090395271778
1738773098642077000,3.081076904296875,0.001241033081896603,0.00538411270827055,-0.0018636800814419985
1738773098652067800,3.09106787109375,0.0041039311327040195,0.002520682057365775,-0.000026897927455138415
1738773098662058800,3.101058837890625,0.0010604707058519125,0.0031443943735212088,0.0008426241693086922
1738773098672050000,3.1110498046875,0.0015954998089000583,0.004095409065485001,0.0018847191240638494
1738773098682040800,3.121040771484375,0.001136104459874332,0.0022863238118588924,0.0008580705034546554
1738773098692031700,3.13103173828125,0.0015339808305725455,0.002986468840390444,0.0005182511522434652
1738773098702023000,3.14102294921875,-0.00012197277828818187,0.004059989005327225,0.0009576727170497179
1738773098712014000,3.15101416015625,-0.00028336033574305475,0.00535614974796772,-0.00039947417099028826
1738773098722005800,3.161005859375,0.001714010490104556,0.002668487373739481,-0.0003962783666793257
1738773098731997000,3.170996826171875,0.002356897573918104,0.0013422331539914012,-0.00036911413189955056
1738773098741987800,3.18098779296875,0.0016367788193747401,0.00820866134017706,-0.000586161739192903
1738773098751978800,3.190978759765625,0.0020868529099971056,0.002403769176453352,0.0007251787465065718
1738773098761970000,3.200969970703125,0.0008902947301976383,0.002216548891738057,0.00024208133982028812
1738773098771961000,3.210961181640625,0.00250496924854815,0.00421258807182312,0.0003259709046687931
1738773098781952000,3.220951904296875,0.0010242518037557602,0.004629106726497412,0.0014892396284267306
1738773098791943000,3.23094287109375,-0.00010253170330543071,0.0028186896815896034,0.0007896272582001984
1738773098801934000,3.24093408203125,0.0005898901727050543,0.0037289580795913935,-0.0017904432024806738
1738773098811926000,3.250926025390625,0.0012298477813601494,0.0065588331781327724,0.0005968143814243376
1738773098821917200,3.260917236328125,0.00003941478280466981,0.0018365158466622233,-0.00035979304811917245
1738773098831908000,3.270908203125,0.0010061422362923622,0.002570749493315816,0.00010972223390126601
1738773098841899000,3.28089892578125,0.000761664065066725,0.006992395501583815,0.0002961435238830745
1738773098851890000,3.290889892578125,0.00043063313933089375,0.005287173669785261,-0.00047857005847617984
1738773098861881000,3.300881103515625,0.0005153216770850122,0.002019741339609027,0.00054142065346241
1738773098871872000,3.3108720703125,0.0011467571603134274,0.002810700098052621,-0.0005408879951573908
1738773098881863000,3.32086279296875,0.0012860405258834362,0.004807005636394024,0.00039228363311849535
1738773098891854000,3.33085400390625,0.0014210627414286137,0.0034967304673045874,0.00006631271389778703
1738773098901846000,3.340845947265625,0.0005728459218516946,0.002484729280695319,0.0021643510553985834
1738773098911837000,3.3508369140625,0.0017542241839691997,0.0028594359755516052,0.0004391552647575736
1738773098921828000,3.360828125,0.000291616132017225,0.002898051869124174,0.0009523464250378311
1738773098931819000,3.370819091796875,0.0023968450259417295,0.005803028121590614,0.001002680161036551
1738773098941810000,3.380809814453125,0.0022570290602743626,0.0044205812737345695,0.0013243899447843432
1738773098951801000,3.390801025390625,0.002123870886862278,0.0037912761326879263,0.0003259709046687931
1738773098961792000,3.4007919921875,0.0021489046048372984,0.0037859496660530567,0.001306280493736267
1738773098971783000,3.410782958984375,0.0012319782981649041,0.0020042951218783855,-0.0010335728293284774
1738773098981773800,3.42077392578125,0.002484196564182639,0.004456001333892345,-0.0002769687562249601
1738773098991766000,3.43076611328125,0.0016200009267777205,0.005101551301777363,-0.0001400822657160461
1738773099001757000,3.4407568359375,0.0014274542918428779,0.003775563556700945,0.00007376955909421667
1738773099011747800,3.450747802734375,0.0029577065724879503,0.0027539748698472977,0.0005289037944748998
1738773099021739000,3.460739013671875,0.0002492718631401658,0.004054929129779339,0.0001400822657160461
1738773099031730000,3.47072998046875,-0.00000958738019107841,0.0046424223110079765,0.0008370315190404654
1738773099041720800,3.480720947265625,0.0006503439508378506,0.004284227266907692,-0.0007137271459214389
1738773099051712000,3.4907119140625,0.0011113371001556516,0.0021544971968978643,-0.0005060005933046341
1738773099061703000,3.500702880859375,-0.0002918824611697346,0.0049188584089279175,-0.00038775624125264585
1738773099071693800,3.51069384765625,0.0009856359101831913,0.0033457293175160885,-0.00047697214176878333
1738773099081686000,3.52068603515625,0.0012040151050314307,0.004539357963949442,-0.001386707997880876
1738773099091677000,3.530677001953125,0.0006857639527879655,0.005225121974945068,0.000012250540748937055
1738773099101667800,3.540667724609375,0.0006966829532757401,0.002653573639690876,0.0019241338595747948
1738773099111659000,3.550658935546875,0.0013821806060150266,0.0052376389503479,0.001190433045849204
1738773099121650000,3.56064990234375,0.002367816399782896,0.004285824950784445,0.00033209618413820863
1738773099131640800,3.570640869140625,0.0010357033461332321,0.0027270768769085407,0.0013435647124424577
1738773099141631700,3.5806318359375,0.0008905610884539783,0.005008340813219547,0.0005350290448404849
1738773099151623000,3.590622802734375,0.002210956299677491,0.004197940696030855,0.0011315771844238043
1738773099161613800,3.60061376953125,0.0027025758754462004,0.0028391960076987743,-0.0001560612436151132
1738773099171606000,3.61060595703125,0.0012783173006027937,0.004097007215023041,-0.0002306297537870705
1738773099181597000,3.620596923828125,0.000618918624240905,0.004128965083509684,0.0003731088654603809
1738773099191587800,3.630587890625,0.001276453142054379,0.0036043222062289715,0.0003067961661145091
1738773099201578800,3.640578857421875,0.0014836470363661647,0.0028162929229438305,-0.0004593952908180654
1738773099211570000,3.65056982421875,0.0023193468805402517,0.003352120751515031,-0.00048709215479902923
1738773099221560800,3.660560791015625,0.0013515542959794402,0.005601160228252411,-0.0009145294898189604
1738773099231552000,3.670552001953125,-0.0004122573300264776,0.002243180526420474,-0.00019361180602572858
1738773099241543200,3.680543212890625,0.0017686053179204464,0.0018666095566004515,0.0006428870838135481
1738773099251534000,3.6905341796875,0.0014860439114272594,0.006120743229985237,-0.0005760417552664876
1738773099261525800,3.70052587890625,0.0013885721564292908,0.002834135899320245,0.0009089368977583945
1738773099271517700,3.710517578125,-0.0015638081822544336,0.0016695356462150812,-0.0010048106778413057
1738773099281508600,3.720508544921875,0.002638926263898611,0.009401490911841393,0.00017230652156285942
1738773099291499500,3.73049951171875,0.0015931029338389635,0.004110589157789946,0.0018791264155879617
1738773099301490700,3.74049072265625,0.0012990899849683046,-0.002784867538139224,0.0016556872287765145
1738773099311481600,3.750481689453125,0.00028336033574305475,0.007334079127758741,-0.0013065468519926071
1738773099321472800,3.76047265625,0.0015600797487422824,0.010979147627949715,-0.0007241134881041944
1738773099331464000,3.7704638671875,0.001246625673957169,-0.0019185412675142288,0.0009100021561607718
1738773099341454800,3.780454833984375,0.0011909656459465623,-0.0017233315156772733,-0.000021305288100847974
1738773099351446500,3.790446533203125,0.0006221143994480371,0.01149659976363182,-0.0018319884547963738
1738773099361437700,3.800437744140625,0.0004551342281047255,0.008196144364774227,-0.0004242415598127991
1738773099371428600,3.8104287109375,0.0012711267918348312,-0.0033212280832231045,0.0001603222917765379
1738773099381419800,3.820419677734375,0.0005507417372427881,0.0012724583502858877,0.0008045409340411425
1738773099391410700,3.83041064453125,0.001576857641339302,0.013500362634658813,0.0002950782363768667
1738773099401401900,3.84040185546875,0.000011984225238848012,0.0006878945278003812,0.0010772485984489322
1738773099411392800,3.850392822265625,0.0012024171883240342,-0.0025100293569266796,0.001970206620171666
1738773099421383700,3.8603837890625,0.001044225413352251,0.009312009438872337,-0.00007297061529243365
1738773099431374800,3.870374755859375,0.0004207794554531574,0.007209975738078356,-0.001086037140339613
1738773099441366800,3.88036669921875,0.0008945558220148087,-0.0027443873696029186,0.0003171824791934341
1738773099451357700,3.890357666015625,0.00133850472047925,0.003978496417403221,0.0003755057114176452
1738773099461348900,3.900348876953125,0.0009081379394046962,0.009698966518044472,-0.0007880293414928019
1738773099471339800,3.91033984375,0.0036069853231310844,0.0016215987270697951,-0.000636495475191623
1738773099481330700,3.92033056640625,0.002261822810396552,-0.0005305017111822963,0.0014615427935495973
1738773099491321900,3.93032177734375,0.0006149238906800747,0.007632619701325893,-0.0013819142477586865
1738773099501312800,3.940312744140625,0.0005936186062172055,0.005891445092856884,0.0010551444720476866
1738773099515674600,3.954674560546875,0.0014434333425015211,0.0005161206354387105,-0.00019281286222394556
1738773099525665800,3.964665771484375,0.00044288369826972485,0.005377987399697304,0.000021305288100847974
1738773099535657700,3.97465771484375,0.002369148191064596,0.004156661685556173,-0.00044847631943412125
1738773099545649000,3.98464892578125,0.003343598684296012,0.0010626012226566672,0.001648496720008552
1738773099555639800,3.994639892578125,0.0004948153509758413,0.005044559482485056,0.0005829659639857709
1738773099565630700,4.004630615234375,0.0019257317762821913,0.004770520608872175,0.0002980077115353197
1738773099575621600,4.01462158203125,0.0007954862085171044,0.0011049455497413874,-0.0003355582884978503
1738773099585612800,4.02461279296875,0.0012562130577862263,0.002810966456308961,0.0006245112745091319
1738773099595603700,4.034603759765625,0.0009369000908918679,0.007737814448773861,0.0009672601008787751
1738773099605594600,4.0445947265625,0.0023102923296391964,0.004285292699933052,0.00007190534961409867
1738773099615585800,4.054585693359375,-0.0001680454588495195,0.0021022993605583906,-0.00004447478931979276
1738773099625577700,4.06457763671875,-0.00005193164179218002,0.005616340320557356,0.0007182545377872884
1738773099635568600,4.074568603515625,0.0020793962758034468,0.0046568033285439014,-0.0006524744676426053
1738773099645559800,4.084559814453125,0.000984570593573153,0.002198972040787339,0.0008354336023330688
1738773099655550700,4.09455078125,0.001278849900700152,0.004511128645390272,0.00016245282313320786
1738773099665541600,4.104541748046875,0.002237587934359908,0.005071191117167473,0.0026501116808503866
1738773099675532500,4.114532470703125,0.0024104269687086344,0.0035143073182553053,0.0006490123341791332
1738773099685523700,4.124523681640625,0.0011824434623122215,0.0034043188206851482,-0.00044341632747091353
1738773099695514600,4.1345146484375,0.0016884441720321774,0.0034639735240489244,0.00031878036679700017
1738773099705505500,4.144505615234375,-0.0002540655550546944,0.004620318301022053,-0.0007768440991640091
1738773099715497700,4.154497802734375,0.0008847020799294114,0.004082093480974436,0.0006093312404118478
1738773099725488600,4.164488525390625,0.0008423578692600131,0.0029648973140865564,0.0005824333056807518
1738773099735479600,4.1744794921875,0.0008681904873810709,0.004217914305627346,0.0016474314033985138
1738773099745470700,4.184470703125,-0.0002623213513288647,0.005377721041440964,0.0014620753936469555
1738773099755461600,4.194461669921875,0.0008644621120765805,0.002695651724934578,-0.0007174555794335902
1738773099765452500,4.20445263671875,0.0011659319279715419,0.005400624126195908,0.0008364989189431071
1738773099775443700,4.214443603515625,0.00256382510997355,0.006098106037825346,-0.0013020194601267576
1738773099785434600,4.2244345703125,0.0013265205780044198,0.003466636873781681,0.0004732437082566321
1738773099795425500,4.234425537109375,0.0011715245200321078,0.002441585995256901,0.0006255765329115093
1738773099805417700,4.244417724609375,0.0008966863388195634,0.00398621940985322,-0.00010626012954162434
1738773099815408600,4.25440869140625,0.0021856562234461308,0.0036738307680934668,-0.0002146507758880034
1738773099825399600,4.264399658203125,0.0012519520241767168,0.003623496973887086,0.0003779025573749095
1738773099835390700,4.274390625,0.00041678472189232707,0.003965446725487709,0.00046605319948866963
1738773099845381600,4.284381591796875,0.0011683288030326366,0.004936435259878635,0.000604004948399961
1738773099855372500,4.29437255859375,0.0034013893455266953,0.0034826158080250025,0.0005688511882908642
1738773099865988600,4.304988525390625,0.0003475425182841718,0.0021979068405926228,0.0009419600828550756
1738773099875979800,4.314979736328125,0.0009179916232824326,0.0037593182642012835,0.0012522183824330568
1738773099885970700,4.324970703125,0.0027055053506046534,0.005273591727018356,0.0011145329335704446
1738773099895961900,4.3349619140625,0.0020237360149621964,0.0033161682076752186,0.00011691277177305892
1738773099905952800,4.344952880859375,0.0007486145477741957,0.0040884846821427345,-0.0009661948424763978
1738773099915944700,4.35494482421875,0.0011198592837899923,0.004404069390147924,0.0013262542197480798
1738773099925935900,4.364935791015625,-0.0006466155173256993,0.00185036426410079,0.002013349672779441
1738773099935926800,4.3749267578125,0.001847701147198677,0.0054906392470002174,-0.0003904194163624197
1738773099945917700,4.384917724609375,-0.00019334549142513424,0.004077832214534283,0.00010199906682828441
1738773099955908900,4.394908935546875,0.0008282430935651064,0.002954244613647461,-0.0003736414946615696
1738773099965899800,4.404899658203125,0.0022770026698708534,0.002885801251977682,0.0009917612187564373
1738773099975890700,4.414890625,0.0005020058597438037,0.006140450481325388,-0.00016005597717594355
1738773099985881900,4.4248818359375,0.0022058964241296053,0.0032386700622737408,0.00010998855577781796
1738773099995872800,4.434872802734375,0.0009733853512443602,0.0032988577149808407,0.0015992282424122095
1738773100005864700,4.44486474609375,0.00040320257539860904,0.005311408545821905,0.00046605319948866963
1738773100015855900,4.45485595703125,0.00003834952076431364,0.005089300684630871,2.6631610694494157e-7
1738773100025846800,4.4648466796875,0.0021222729701548815,0.0038658445701003075,0.0010602044640108943
1738773100035837700,4.474837646484375,0.0020839234348386526,0.003340669209137559,-0.0008796420879662037
1738773100045828600,4.48482861328125,0.0019321233266964555,0.005684250965714455,0.0006538060260936618
1738773100055819800,4.49481982421875,-0.00018349179299548268,0.005656553898006678,0.0005936186062172055
1738773100065810700,4.504810791015625,0.0013510215794667602,0.0019885823130607605,-0.00020772656716872007
1738773100075801600,4.514801513671875,0.0014671353856101632,0.00242161238566041,0.0004223773430567235
1738773100085792800,4.524792724609375,0.0004316983977332711,0.0049007488414645195,0.0009898969437927008
1738773100095784700,4.53478466796875,0.0010197244118899107,0.0027302727103233337,0.00023329291434492916
1738773100105775600,4.544775634765625,0.0007819040911272168,0.005708752200007439,-0.0002716424351092428
1738773100115766800,4.554766845703125,0.001404284848831594,0.004442152567207813,0.0003605920064728707
1738773100125757700,4.5647578125,0.0005664543714374304,0.0018050905782729387,0.0005789712304249406
1738773100135748600,4.57474853515625,-0.000523577444255352,0.0016287893522530794,0.0006641923682764173
1738773100145739800,4.58473974609375,-0.00015712650201749057,0.006189186125993729,-0.00019201391842216253
1738773100155730700,4.594730712890625,0.00009454221435589716,0.002299905987456441,-0.0000601874417043291
1738773100165721600,4.6047216796875,0.000215716048842296,0.0024839304387569427,0.0014652712270617485
1738773100175713800,4.6147138671875,-0.0000876179983606562,0.005855758674442768,0.0008753810543566942
1738773100185704700,4.62470458984375,0.0015717976493760943,0.0032647692132741213,-0.00021678130724467337
1738773100195695600,4.634695556640625,0.0020996362436562777,0.0036306874826550484,-0.00016777914424892515
1738773100205686800,4.644686767578125,0.002281530061736703,0.004577707499265671,-0.0003789678157772869
1738773100215677700,4.654677734375,0.001332645770162344,0.0030740867368876934,0.001532382913865149
1738773100225668600,4.664668701171875,-0.0005930859479121864,0.0024469124618917704,0.0009454221581108868
1738773100235659500,4.674659423828125,0.0019435749854892492,0.0031401331070810556,0.001421861699782312
1738773100245650700,4.684650634765625,0.004607002250850201,0.0034645062405616045,-0.00035686357296071947
1738773100255641600,4.6946416015625,0.0016940367640927434,0.002828543307259679,0.00044368262751959264
1738773100265633500,4.704633544921875,0.0012692625168710947,0.0051803807727992535,-0.0007265103631652892
1738773100275624000,4.7146240234375,0.0018825886072590947,0.0032804817892611027,0.000360059377271682
1738773100285614800,4.72461474609375,0.002368082758039236,0.003213636577129364,-0.0005874933558516204
1738773100295606000,4.73460595703125,0.0014908375451341271,0.003054911969229579,-0.0000876179983606562
1738773100305597200,4.74459716796875,0.0013957626651972532,0.004226170480251312,-0.0019097528420388699
1738773100315588000,4.754588134765625,-0.0004471447318792343,0.004187554586678743,0.00013688647595699877
1738773100325579000,4.7645791015625,0.000009054747351910919,0.002511627273634076,-0.0003206445835530758
1738773100335570200,4.774570068359375,0.0020189424976706505,0.00512711750343442,0.00003728425508597866
1738773100345561000,4.78456103515625,0.001094825565814972,0.003050118451938033,0.00019387812062632293
1738773100355553000,4.794552978515625,0.0027624969370663166,0.003200853243470192,0.00010173275222769007
1738773100365544200,4.804544189453125,0.00014620754518546164,0.004228833597153425,-0.0006226470577530563
1738773100375535000,4.81453515625,0.000022636868379777297,0.005107143893837929,0.0009664611425250769
1738773100385526000,4.824526123046875,0.001668736687861383,0.002802178030833602,0.0015954998089000583
1738773100395517000,4.834516845703125,0.0020671456586569548,0.004238154739141464,0.0006908240029588342
1738773100405508000,4.844508056640625,0.0006996124284341931,0.0049196574836969376,0.0009653958841226995
1738773100415499000,4.8544990234375,-0.0007044061203487217,0.003358778776600957,0.00008229167724493891
1738773100425490000,4.864489990234375,0.0006183860241435468,0.0036543896421790123,0.0014540859265252948
1738773100435481000,4.874481201171875,0.0011821772204712033,0.0041699777357280254,0.0007776430575177073
1738773100445473000,4.88447314453125,0.00019441076437942684,0.005016063805669546,-0.00034194986801594496
1738773100455464000,4.8944638671875,0.003177151083946228,0.003148122690618038,0.0010583401890471578
1738773100465455000,4.904455078125,0.0016916398890316486,0.0033310819417238235,0.00022290658671408892
1738773100475446000,4.914446044921875,-0.00007962851668708026,0.005053347907960415,0.0005017395596951246
1738773100485437000,4.92443701171875,0.00022370553051587194,0.0046903593465685844,0.0005099953268654644
1738773100495428000,4.934427978515625,0.0004676510870922357,0.0018868496408686042,0.00006870955257909372
1738773100505419000,4.9444189453125,0.0004982774262316525,0.004200337454676628,0.0011675298446789384
1738773100515410000,4.954409912109375,0.0016341155860573053,0.004123106133192778,-0.0015275891637429595
1738773100525402000,4.964402099609375,0.00016831177345011383,0.00430100504308939,0.0006676545017398894
1738773100535393000,4.97439306640625,-0.0004929511342197657,0.003781422507017851,-0.00036139096482656896
1738773100545384000,4.984384033203125,0.000322775129461661,0.0033989925868809223,0.0024796691723167896
1738773100555375000,4.994375,0.001882854849100113,0.003727892879396677,-0.0006245112745091319
1738773100565366000,5.004365966796875,0.001157143502496183,0.0029912625905126333,-0.00001864212754298933
1738773100575357000,5.01435693359375,-0.0007443535141646862,0.004667988512665033,0.00009960222087102011
1738773100585347800,5.024347900390625,0.0015901734586805105,0.001928128651343286,0.0014122743159532547
1738773100595339000,5.034339111328125,0.002237321576103568,0.0043779704719781876,-0.0018064221367239952
1738773100605330000,5.044329833984375,0.002338788006454706,0.003910319413989782,0.00014567491598427296
1738773100615321900,5.05432177734375,0.001059405505657196,0.0023616913240402937,0.0006269080913625658
1738773100625313000,5.06431298828125,0.0014711301773786545,0.00404507527127862,0.0006772418855689466
1738773100635304000,5.074303955078125,0.0008463526028208435,0.005245894659310579,-0.00019094864546786994
1738773100645294800,5.084294921875,0.00202240445651114,0.0029020465444773436,0.0011504855938255787
1738773100655286000,5.0942861328125,0.0012258529895916581,0.0036216326989233494,0.0024828650057315826
1738773100665277000,5.10427685546875,0.0007416903390549123,0.004307130351662636,0.0004902879591099918
1738773100675267800,5.114267822265625,0.0024200144689530134,0.0054421694949269295,-0.0004348942020442337
1738773100685259000,5.124259033203125,0.002108957152813673,0.0031843415927141905,0.0003504719934426248
1738773100695250000,5.13425,0.001564873498864472,0.003049319377169013,-0.0004713795206043869
1738773100705241900,5.144241943359375,0.0009744506096467376,0.0051745218224823475,-0.0013305152533575892
1738773100715233000,5.15423291015625,0.0011491540353745222,0.005922071170061827,0.0025904567446559668
1738773100725224000,5.164223876953125,0.00045619948650710285,0.0023339942563325167,0.00017470336752012372
1738773100735214800,5.17421484375,0.0016157397767528892,0.003540938952937722,-0.00013875069271307439
1738773100745205800,5.184205810546875,0.0016269250772893429,0.005780124571174383,0.0007105313707143068
1738773100755197000,5.194197021484375,0.0018405106384307146,0.0044083306565880775,-0.000040480048483004794
1738773100765188000,5.20418798828125,0.0015563513152301311,0.0026847326662391424,0.0009614011505618691
1738773100775179000,5.214178955078125,0.0008343683439306915,0.003907656297087669,-0.00009427589975530282
1738773100785170200,5.224170166015625,0.000054328484111465514,0.004333761986345053,0.0013784521725028753
1738773100795161900,5.234161865234375,0.001669269404374063,0.004701278172433376,-0.00009187905379803851
1738773100805152800,5.24415283203125,0.0009387642494402826,0.0024027039762586355,0.00039414784987457097
1738773100815144000,5.25414404296875,-0.00023409185814671218,0.005045891273766756,0.000003994741746282671
1738773100825135000,5.264135009765625,0.0018359832465648651,0.004250138532370329,-0.00009640643111197278
1738773100835126000,5.2741259765625,0.0026040389202535152,0.0049590724520385265,-0.00022690132027491927
1738773100845117200,5.2841171875,0.0009363674325868487,0.003227218519896269,0.00018429075134918094
1738773100855108000,5.294108154296875,0.0014674017438665032,0.0030714236199855804,-0.0003885551996063441
1738773100865099000,5.30409912109375,0.0014982944121584296,0.00430233683437109,-0.0016530241118744016
1738773100875091200,5.31409130859375,0.002082858234643936,0.0049468218348920345,0.00001944107498275116
1738773100885082000,5.32408203125,0.0010295780375599861,0.0031577101908624172,0.0004546015989035368
1738773100895073000,5.334072998046875,-0.00003861583536490798,0.004254399798810482,0.0020905814599245787
1738773100905064200,5.344064208984375,0.002237321576103568,0.003924434073269367,0.0005518069956451654
1738773100915055000,5.35405517578125,0.0007315703551284969,0.004254133440554142,0.0012034825049340725
1738773100925046000,5.3640458984375,0.0008916263468563557,0.003129480639472604,0.001356347929686308
1738773100935037000,5.374036865234375,0.001320927869528532,0.0046759783290326595,0.00015419702685903758
1738773100945028000,5.384028076171875,0.0029438582714647055,0.0038424087688326836,0.0010402307379990816
1738773100955019000,5.39401904296875,0.0006119944155216217,0.0038954056799411774,0.00005965480886516161
1738773100965011000,5.404010986328125,0.0018074874533340335,0.006194512825459242,0.00008335694292327389
1738773100975002000,5.414002197265625,0.0005744438385590911,0.004230963997542858,-0.0007448861724697053
1738773100984993000,5.423992919921875,0.00033156355493701994,0.0012322446564212441,0.0004902879591099918
1738773100994984000,5.43398388671875,0.0008809737046249211,0.004910602699965239,0.00037683729897253215
1738773101004975000,5.44397509765625,0.00025220136740244925,0.005097024142742157,-0.000529702752828598
1738773101014966000,5.453966064453125,0.001014664419926703,0.004244545940309763,0.0004415521107148379
1738773101024957000,5.46395703125,0.0009691243176348507,-0.00004793690095539205,-0.0021137509029358625
1738773101034947800,5.47394775390625,0.0014008227735757828,0.005080245900899172,-0.001115598133765161
1738773101044939000,5.48393896484375,0.0002998719282913953,0.007626228034496307,0.0005701828049495816
1738773101054931000,5.493930908203125,0.0016367788193747401,0.0019004317000508308,0.00006578007742064074
1738773101064922000,5.503922119140625,0.0018210695125162601,0.004526308737695217,0.0024655545130372047
1738773101074913000,5.5139130859375,-0.0002769687562249601,0.0057676080614328384,-0.00043223105603829026
1738773101084904000,5.523904052734375,0.0007257114048115909,0.004004595335572958,-0.0002937466779258102
1738773101094894800,5.533894775390625,0.0010508833220228553,0.0022445120848715305,0.00002902845517382957
1738773101104886000,5.543885986328125,0.0012692625168710947,0.005003280472010374,0.000835966260638088
1738773101114877000,5.553876953125,0.001050084363669157,0.004723649006336927,0.00034221619716845453
1738773101124867800,5.563867919921875,0.0018903117161244154,0.0024402544368058443,0.001056476030498743
1738773101134859000,5.57385888671875,0.0009427590412087739,0.0021433120127767324,0.00019334549142513424
1738773101144851000,5.583850830078125,0.0006133259739726782,0.00615323381498456,-0.00027616979787126184
1738773101154841900,5.593841796875,0.0018066884949803352,0.003951598424464464,0.0008972189389169216
1738773101164833000,5.6038330078125,0.001862082164734602,0.002953445538878441,-0.0007334345718845725
1738773101174824000,5.613823974609375,0.0018349179299548268,0.004406199790537357,0.0016088156262412667
1738773101184814800,5.62381494140625,0.0011531487107276917,0.004853344522416592,0.0010567422723397613
1738773101194806000,5.633805908203125,0.0019891150295734406,0.003713778220117092,0.0011209244839847088
1738773101204797000,5.643796875,0.0018647453980520368,0.003695135936141014,0.0003246393462177366
1738773101214787800,5.653787841796875,0.0012354403734207153,0.006858438719063997,0.00008894957863958552
1738773101224779000,5.663779052734375,0.0009595369338057935,0.00210629403591156,0.0008767126128077507
1738773101234771000,5.67377099609375,0.0015486282063648105,0.0016442356863990426,0.0013110742438584566
1738773101244761900,5.683761962890625,0.0010250506456941366,0.006160424090921879,-0.0003070624661631882
1738773101254752800,5.693752685546875,0.0018852517241612077,0.004759867675602436,0.001683384063653648
1738773101264744000,5.703743896484375,0.0011084076249971986,0.0008354336023330688,-0.0005792375304736197
1738773101274734800,5.71373486328125,0.001255414099432528,0.004372377879917622,0.000577107013668865
1738773101284726000,5.72372607421875,0.0012591425329446793,0.00424214918166399,0.000218645524000749
1738773101294717000,5.733717041015625,0.0003235740587115288,0.003923102747648954,0.0004854942671954632
1738773101304707800,5.743707763671875,0.00310604483820498,0.00009454221435589716,0.0011004181578755379
1738773101314699000,5.753698974609375,0.003085538512095809,0.013491573743522167,-0.00044314999831840396
1738773101324691000,5.76369091796875,0.0015627428656443954,0.0011286477092653513,-0.00042104575550183654
1738773101334681900,5.773681884765625,0.002897785510867834,-0.004339354578405619,0.0012551478575915098
1738773101344673000,5.783673095703125,0.003192597534507513,0.009333314374089241,-0.0006740460521541536
1738773101354664000,5.793663818359375,0.0028671592008322477,0.0024168186355382204,-0.0005195827106945217
1738773101364654800,5.80365478515625,0.001074052881449461,0.008087487891316414,0.0004724447790067643
1738773101374645800,5.813645751953125,0.000803209375590086,-0.001978462329134345,0.00038722361205145717
1738773101384637000,5.823636962890625,0.003463441040366888,0.008861934766173363,0.001086037140339613
1738773101394627800,5.8336279296875,0.00036671728594228625,0.003540406236425042,0.0006490123341791332
1738773101404618800,5.84361865234375,0.0003563309437595308,0.0020793962758034468,0.0008088020258583128
1738773101414611000,5.85361083984375,0.0006024070316925645,0.00968565046787262,0.00048416267964057624
1738773101424601900,5.863601806640625,0.0007001450285315514,-0.0012266519479453564,0.0009797769598662853
1738773101434592800,5.8735927734375,0.0017965685110539198,-0.0012551478575915098,0.0005856291390955448
1738773101444584000,5.883583984375,0.0012125372886657715,0.005933789070695639,-0.0014482269762083888
1738773101454574800,5.893574951171875,0.0015970977256074548,0.00878869742155075,0.0005118595436215401
1738773101464565800,5.903565673828125,0.0018255969043821096,0.0008908273885026574,0.001457814360037446
1738773101474557000,5.913556884765625,0.0018080200534313917,0.002755839144811034,0.0006980145117267966
1738773101484547800,5.9235478515625,0.002073803450912237,0.005754025653004646,-0.00007696535612922162
1738773101494538800,5.933538818359375,0.001901230658404529,0.0041183121502399445,0.0007749798824079335
1738773101504531000,5.943531005859375,0.0018013621447607875,0.001958488719537854,-0.000251402409048751
1738773101514521900,5.95352197265625,0.001651159836910665,0.0027361316606402397,0.0010191916953772306
1738773101524512800,5.9635126953125,0.0023872575256973505,0.0017904432024806738,-0.00022264027211349458
1738773101534504000,5.97350390625,0.00048709215479902923,0.004349208436906338,0.0009683253592811525
1738773101544494800,5.983494873046875,-0.0007715177489444613,0.004471180960536003,-0.000975782226305455
1738773101554485800,5.99348583984375,0.003082342678681016,0.004022172186523676,-0.0003129214164800942
1738773101564476700,6.0034765625,0.001079645473510027,0.003096723696216941,-0.00033928672201000154
1738773101574467800,6.0134677734375,0.00028389296494424343,0.0015997608425095677,0.0001560612436151132
1738773101584458800,6.023458740234375,0.001683384063653648,0.00595429539680481,-0.0007725830073468387
1738773101594450700,6.03345068359375,0.0007126618875190616,0.008198541589081287,-0.0004308994684834033
1738773101604441900,6.04344189453125,0.00304718897677958,0.001332645770162344,-0.0004830974212381989
1738773101614432800,6.053432861328125,0.00284958234988153,0.0008855010382831097,0.0018548916559666395
1738773101624423700,6.063423583984375,0.0024916534312069416,0.005278917960822582,-0.0002926813904196024
1738773101634414800,6.073414794921875,0.0018780612153932452,0.007669903803616762,0.000368847802747041
1738773101644405800,6.08340576171875,0.000985103310085833,0.0011462245602160692,0.0004410194815136492
1738773101654396700,6.093396728515625,0.0012942962348461151,0.003306048223748803,0.0013510215794667602
1738773101664387600,6.1033876953125,0.0020178770646452904,0.004318315535783768,-0.0002985403698403388
1738773101674378800,6.113378662109375,-0.00024980452144518495,0.0015472965314984322,0.0006263754912652075
1738773101684370700,6.12337060546875,0.00026045716367661953,0.004787564743310213,-0.00027803401462733746
1738773101694361900,6.13336181640625,0.0007225155713967979,0.004954544827342033,-0.0004183826094958931
1738773101704352800,6.143352783203125,0.0020969731267541647,0.0027318706270307302,-0.00021598236344289035
1738773101714343700,6.15334375,0.00123783724848181,0.0014021543320268393,0.002088450826704502
1738773101724334600,6.16333447265625,0.0019510318525135517,0.006457632873207331,0.000025566347176209092
1738773101734325800,6.17332568359375,0.0021664814557880163,0.0054123420268297195,0.0005973470397293568
1738773101744317000,6.18331689453125,0.0012277172645553946,0.0006410228670574725,0.0006809702608734369
1738773101754307800,6.193307861328125,0.0018615495646372437,0.0026431872975081205,0.0004679173871409148
1738773101764299000,6.203299072265625,0.0012865731259807944,0.0067423246800899506,-0.00043302998528815806
1738773101774290700,6.213290771484375,0.0008522115531377494,0.003483681008219719,-0.000532632227987051
1738773101784281900,6.22328173828125,0.0013342436868697405,0.001597896683961153,0.0007307713967747986
1738773101794273000,6.23327294921875,0.0006410228670574725,0.0051992894150316715,0.0004948153509758413
1738773101804264000,6.243263916015625,-0.0001102548703784123,0.005106344819068909,-0.0015161376213654876
1738773101814254800,6.2532548828125,0.0015286544803529978,0.0028634308837354183,-0.00054142065346241
1738773101824246000,6.26324609375,0.0020698087755590677,0.003614175831899047,0.0026133600622415543
1738773101834237000,6.27323681640625,0.0018583538476377726,0.004571848548948765,0.002290851203724742
1738773101844227800,6.283227783203125,0.001534779672510922,0.0021992383990436792,0.00033582461765035987
1738773101854218800,6.29321875,0.00037683729897253215,0.003341201925650239,0.0013771206140518188
1738773101864211000,6.3032109375,0.0014865765115246177,0.006993194576352835,0.0006719155353493989
1738773101874201900,6.313201904296875,0.0016468988033011556,0.0032503881957381964,-0.0003347593592479825
1738773101884192800,6.32319287109375,0.0014442323008552194,0.0007930893916636705,0.0006748450105078518
1738773101894184000,6.333183837890625,0.002293247962370515,0.004576109815388918,0.001219461439177394
1738773101904174800,6.3431748046875,0.0017281252657994628,0.006082660052925348,0.00043302998528815806
1738773101914165800,6.353165771484375,0.0009688580175861716,0.0019196064677089453,-0.0005075985100120306
1738773101924157000,6.363156982421875,0.0013227921444922686,0.0033606430515646935,0.0008170577930286527
1738773101934147800,6.37314794921875,0.0011377023765817285,0.0060232714749872684,-0.00033928672201000154
1738773101944138800,6.383138671875,0.001714010490104556,0.002537459833547473,0.001121457084082067
1738773101954131000,6.393130859375,0.0003067961661145091,0.000940095866099,0.00019201391842216253
1738773101964121900,6.403121826171875,0.00021837920940015465,0.005570001434534788,0.0008372978190891445
1738773101974112800,6.41311279296875,-0.0009800433181226254,0.005880259443074465,0.00041332258842885494
1738773101984104000,6.42310400390625,0.0010104032699018717,0.0015608787070959806,0.00006870955257909372
1738773101994094800,6.4330947265625,0.0009957558941096067,0.003952131140977144,-0.00054142065346241
1738773102004085800,6.443085693359375,0.0014413028256967664,0.0062696137465536594,-0.000050333743274677545
1738773102014076700,6.45307666015625,0.0021845910232514143,0.0016178702935576439,-0.0005571332876570523
1738773102024067800,6.46306787109375,0.002397643867880106,0.002755306428298354,-0.00003968110104324296
1738773102034058800,6.473058837890625,0.0005097290268167853,0.006280532572418451,-0.0006018743733875453
1738773102044051000,6.483051025390625,0.0011291803093627095,0.004551075864583254,-0.0007941546500660479
1738773102054041900,6.493041748046875,0.00180855265352875,0.0035265579354017973,0.00021118867152836174
1738773102064032800,6.50303271484375,0.0019030949333682656,0.0038344194181263447,-0.0010580739472061396
1738773102074023700,6.513023681640625,0.0013827132061123848,0.004024568945169449,-0.0002873550693038851
1738773102084014800,6.523014892578125,-0.0009614011505618691,0.0034264230635017157,0.0016165387351065874
1738773102094005800,6.533005859375,0.0013379721203818917,0.0028426581993699074,-0.0004495415778364986
1738773102103996700,6.54299658203125,0.000070307454734575,0.004449609667062759,0.00006072007090551779
1738773102113987800,6.55298779296875,0.0008245146600529552,0.00569889834150672,0.0007211840129457414
1738773102123978800,6.562978759765625,0.0003211772127542645,0.00006924218905624002,0.0006138586322776973
1738773102133970700,6.572970703125,0.0021726067643612623,0.0040943436324596405,0.0012836436508223414
1738773102143961900,6.5829619140625,0.0008862999966368079,0.006618221756070852,-0.0006570018595084548
1738773102153952800,6.592952880859375,0.0021339908707886934,0.0021907163318246603,-0.00012783173588104546
1738773102163943700,6.602943603515625,0.0020058928057551384,0.004633900243788958,0.002246376359835267
1738773102173934800,6.612934814453125,0.001421861699782312,0.005030178464949131,0.0005275722360238433
1738773102183925800,6.62292578125,0.0019534286111593246,0.0027510453946888447,0.00035127095179632306
1738773102193916700,6.632916748046875,0.0006431533838622272,0.002080195117741823,-0.0009661948424763978
1738773102203907800,6.642907958984375,0.001201884588226676,0.005029113497585058,-0.00043223105603829026
1738773102213899000,6.65289892578125,0.0011241203173995018,0.0036131106317043304,0.00020293287525419146
1738773102223890700,6.662890625,0.0022040321491658688,0.004793423693627119,-0.00022157499915920198
1738773102233881600,6.672881591796875,0.001755289500579238,0.0021406488958746195,-0.0004929511342197657
1738773102243872800,6.682872802734375,0.0007845672662369907,0.0034384073223918676,0.00041678472189232707
1738773102253864000,6.692864013671875,0.00003861583536490798,0.004781972151249647,0.0006415555253624916
1738773102263854800,6.702854736328125,0.0010226538870483637,0.002005626680329442,0.0008335694437846541
1738773102273846000,6.712845947265625,0.002350239548832178,0.0037494644057005644,-0.00020293287525419146
1738773102283837200,6.722837158203125,0.0017243968322873116,0.00649598240852356,0.0011646003695204854
1738773102293828000,6.732828125,-0.0006985471700318158,0.0032794165890663862,0.00010865696822293103
1738773102303819800,6.74281982421875,0.0021736719645559788,0.002240783767774701,-0.0006854976527392864
1738773102313811000,6.75281103515625,0.0014924354618415236,0.004175037611275911,0.00017949705943465233
1738773102323802000,6.762802001953125,0.000883636821527034,0.003150785807520151,0.00012543488992378116
1738773102333793000,6.77279296875,0.00023861923546064645,0.0031190942972898483,0.000791491474956274
1738773102343784200,6.7827841796875,0.0019827233627438545,0.0031731564085930586,0.00027750138542614877
1738773102353775000,6.792775146484375,0.002124936319887638,0.005861883983016014,0.00044288369826972485
1738773102363766000,6.80276611328125,0.001371527905575931,0.004284493625164032,-0.000005858954409632133
1738773102373757000,6.8127568359375,0.0011534150689840317,0.0017627463676035404,0.0001358212175546214
1738773102383748000,6.822748046875,0.0003070624661631882,0.00430100504308939,0.0015134743880480528
1738773102393739000,6.832739013671875,0.0025390577502548695,0.005274123977869749,0.000006924218723725062
1738773102403731000,6.84273095703125,0.0011443602852523327,0.004585164599120617,0.0010128001449629664
1738773102413722000,6.85272216796875,0.00010705907334340736,0.004323375876992941,0.0013821806060150266
1738773102423713000,6.862713134765625,-0.000254331884207204,0.004037352278828621,0.00185089698061347
1738773102433704000,6.872703857421875,0.0007789746159687638,0.003674895968288183,0.0007291734800674021
1738773102443695000,6.882695068359375,0.0008514125947840512,0.004817658569663763,-0.0008338357438333333
1738773102453686000,6.89268603515625,0.0021784657146781683,0.0036637107841670513,0.0003992078418377787
1738773102463677000,6.902677001953125,0.0032051142770797014,0.004370247479528189,0.001148355077020824
1738773102473668000,6.912668212890625,0.0027539748698472977,0.006169478874653578,0.0004857605672441423
1738773102483660000,6.922659912109375,0.0015688681742176414,0.002283926820382476,0.0005970807396806777
1738773102493651000,6.93265087890625,0.0016476977616548538,0.0031827439088374376,0.000245543458731845
1738773102503642000,6.94264208984375,0.0017475662752985954,0.003936151973903179,0.00010253170330543071
1738773102513633000,6.952633056640625,0.0003105245705228299,0.0037880802992731333,0.0011403656098991632
1738773102523624000,6.9626240234375,0.001276186783798039,0.004596882499754429,-0.0005619269795715809
1738773102533614800,6.97261474609375,0.0016591493040323257,0.004205131437629461,-0.0009395632077939808
1738773102543606000,6.98260595703125,0.0019592875614762306,0.004743888974189758,-0.00010066748654935509
1738773102553597000,6.992596923828125,0.0019358517602086067,0.0041044638492167,0.0001656486128922552
1738773102563587800,7.002587890625,0.0025209481827914715,0.003242931328713894,-0.000565389113035053
1738773102573580000,7.012580078125,0.0010700580896809697,0.005420864559710026,0.0005376922199502587
1738773102583571000,7.022571044921875,0.0018836538074538112,0.0029289445374161005,0.0015275891637429595
1738773102593561900,7.032561767578125,0.0010381002211943269,0.004880508873611689,0.00004793690095539205
1738773102603553000,7.042552978515625,0.002802444389089942,0.003937483765184879,0.0010820423485711217
1738773102613544000,7.0525439453125,-0.0004956142511218786,0.004089017398655415,0.001237571006640792
1738773102623534800,7.062534912109375,0.0011318434262648225,0.004260525107383728,0.000014647385796706658
1738773102633526000,7.072526123046875,0.0022146848496049643,0.003719370812177658,-0.00012250541476532817
1738773102643517000,7.082516845703125,0.0014101437991485,0.00495161535218358,0.00040266994619742036
1738773102653508900,7.0925087890625,0.0035151063930243254,0.0037619813811033964,-0.00032863407977856696
1738773102663500000,7.1025,0.0015707324491813779,0.0038626487366855145,0.0008370315190404654
1738773102673491000,7.112490966796875,0.0010852381819859147,0.005141498986631632,0.0007805725326761603
1738773102683481900,7.12248193359375,0.0011547466274350882,0.0035598473623394966,-0.000559530162718147
1738773102693473000,7.13247314453125,0.001689509372226894,0.003602191573008895,0.00044022052315995097
1738773102703464000,7.1424638671875,0.0012476909905672073,0.005566272884607315,-0.0011198592837899923
1738773102713454800,7.152454833984375,0.00012516857532318681,0.004463457968086004,-0.00007004113285802305
1738773102723446000,7.162446044921875,0.00185036426410079,0.002115615177899599,-0.00021438446128740907
1738773102733437200,7.172437255859375,0.0022804648615419865,0.004023503512144089,0.000017843178284238093
1738773102743428900,7.182428955078125,0.0006303702248260379,0.004505802411586046,0.0007432882557623088
1738773102753419800,7.192419677734375,0.00043329631444066763,0.003932956140488386,0.0009765811264514923
1738773102763411000,7.202410888671875,0.0016226640436798334,0.003936151973903179,0.0008130630594678223
1738773102773401900,7.21240185546875,0.0009076052810996771,0.004287955816835165,-0.0005597964627668262
1738773102783393000,7.22239306640625,0.0015544871566817164,0.004206729121506214,0.001671666163019836
1738773102793384200,7.23238427734375,0.0014002900570631027,0.004078631289303303,0.001198688754811883
1738773102803375000,7.242375,0.0006828344776295125,0.005344697739928961,0.0013225257862359285
1738773102813366000,7.252365966796875,0.0011771172285079956,0.0043473439291119576,-0.0010548781137913465
1738773102823357200,7.262357177734375,0.0004367584188003093,0.0033987262286245823,0.00038216362008824944
1738773102833348900,7.272348876953125,0.00056219327962026,0.00287434970960021,0.0020210728980600834
1738773102843340000,7.282340087890625,0.00224877311848104,0.003567304229363799,0.0004649879119824618
1738773102853331200,7.292331298828125,-0.0002926813904196024,0.005574262235313654,-0.0011563445441424847
1738773102863322000,7.302322021484375,0.00006205165118444711,0.003403786104172468,-0.0004293015517760068
1738773102873313000,7.31231298828125,0.002386192325502634,0.001982190879061818,0.0005731122801080346
1738773102883304000,7.322303955078125,0.001939313835464418,0.004698881413787603,0.0007930893916636705
1738773102893295000,7.332295166015625,0.0014152037911117077,0.0032506543211638927,-0.0006149238906800747
1738773102903286000,7.3422861328125,0.0028551749419420958,0.0034317492973059416,0.0010072075529024005
1738773102913277000,7.35227685546875,0.003084206720814109,0.0022359900176525116,0.00047377636656165123
1738773102923269000,7.36226904296875,0.002213619416579604,0.00455826660618186,0.000494016392622143
1738773102933260000,7.372260009765625,0.0019470370607450604,0.004443750716745853,0.001086037140339613
1738773102943251000,7.3822509765625,0.003918575122952461,0.001853560097515583,-0.0012311793398112059
1738773102953242000,7.3922421875,0.0008056062506511807,0.0051803807727992535,0.00034194986801594496
1738773102963233000,7.40223291015625,0.0013467605458572507,0.006173207424581051,0.001100950757972896
1738773102973224000,7.412223876953125,0.0027254789602011442,0.003403253620490432,-0.0004415521107148379
1738773102983215000,7.422215087890625,0.0014037522487342358,0.0031617048662155867,0.00003355582884978503
1738773102993206000,7.4322060546875,0.0016460998449474573,0.0056983656249940395,-0.0006953513366170228
1738773103003197000,7.442197021484375,-0.0002633866388350725,0.003739078063517809,-0.001050084363669157
1738773103013189000,7.452189208984375,0.0017752632265910506,0.002549976808950305,0.0019451729021966457
1738773103023180000,7.462179931640625,0.00010679275874281302,0.004192880820482969,0.0001954760227818042
1738773103033171000,7.4721708984375,0.0015121428295969963,0.00412390474230051,0.0010431602131575346
1738773103043161900,7.482161865234375,0.0006234460161067545,0.004210457671433687,-0.0006985471700318158
1738773103053153000,7.492153076171875,0.001219461439177394,0.003299123840406537,0.00056219327962026
1738773103063144000,7.50214404296875,0.0018453042721375823,0.002817358123138547,-0.00040959418402053416
1738773103073134800,7.512134765625,0.0017142767319455743,0.005336974747478962,0.0004945489927195013
1738773103083126000,7.5221259765625,0.0015310513554140925,0.005675196181982756,-0.0001805623178370297
1738773103093117000,7.532116943359375,0.0007856325246393681,0.0018519621808081865,0.00016005597717594355
1738773103103108900,7.54210888671875,0.0013161342358216643,0.0051742554642260075,0.0003347593592479825
1738773103113100000,7.55210009765625,0.0010538127971813083,0.006543386727571487,0.00003009372085216455
1738773103123091000,7.562091064453125,0.00196381495334208,0.0037087181117385626,0.00024314661277458072
1738773103133081900,7.572081787109375,0.0016285229939967394,0.00310577847994864,0.0006745787104591727
1738773103143073000,7.582072998046875,0.001981924520805478,0.005102350376546383,0.0006109291571192443
1738773103153064000,7.59206396484375,0.0013760552974417806,0.005625395104289055,-0.0000852211524033919
1738773103163054800,7.602054931640625,0.0002695118892006576,0.0028418591246008873,0.0005717806634493172
1738773103173045800,7.612045654296875,0.000404534162953496,0.0024431839119642973,-0.00009640643111197278
1738773103183038000,7.622037841796875,0.0006250438746064901,0.006125004030764103,-0.00021278657368384302
1738773103193028900,7.63202880859375,0.0010937602492049336,0.00481233187019825,0.001279116258956492
1738773103203020000,7.64202001953125,0.00042743736412376165,0.0008317052270285785,0.001290834159590304
1738773103213011000,7.652010986328125,0.0018674085149541497,0.004186755511909723,0.0013520868960767984
1738773103223001900,7.662001953125,0.0026383937802165747,0.005155880004167557,-0.00026498452643863857
1738773103232992800,7.67199267578125,0.00037736992817372084,0.002600044244900346,-0.0000673779723001644
1738773103242984000,7.68198388671875,0.002913231961429119,0.0023907197173684835,-0.0014444985426962376
1738773103252975000,7.69197509765625,0.0019283948931843042,0.004996889270842075,0.0007014766451902688
1738773103262966000,7.701966064453125,0.0021222729701548815,0.003552390495315194,-0.00010386328358436003
1738773103272958000,7.7119580078125,0.002092179376631975,0.0034346787724643946,-0.0010282464791089296
1738773103282949400,7.721949462890625,0.0007462177309207618,0.006906375754624605,0.0004961469094268978
1738773103292940300,7.731940185546875,0.0022032330743968487,0.005191033706068993,-0.0001054611784638837
1738773103302931500,7.741931396484375,0.0011491540353745222,0.0011744539951905608,0.00115421402733773
1738773103312922400,7.75192236328125,0.00017869810108095407,0.006306897848844528,-0.000023435817638528533
1738773103322913500,7.76191357421875,0.0021110877860337496,0.005124188028275967,-0.0014916365034878254
1738773103332904400,7.771904541015625,0.0018290589796379209,0.002886600326746702,-0.00017843178648035973
1738773103342895600,7.7818955078125,0.00027750138542614877,0.0028061727061867714,0.0007422229973599315
1738773103352886500,7.791886474609375,0.001255680457688868,0.005330849438905716,0.000075101139373146
1738773103362878500,7.80187841796875,0.0005715143634006381,0.004230431281030178,-0.00012783173588104546
1738773103372869400,7.811869384765625,0.000672448193654418,0.0026847326662391424,0.0008732505375519395
1738773103382860500,7.821860595703125,0.0005299690528772771,0.0038093857001513243,0.0019510318525135517
1738773103392851500,7.8318515625,0.0018343853298574686,0.007126086391508579,0.0008356999605894089
1738773103402842600,7.841842529296875,0.002043177140876651,0.0026133600622415543,0.0007278419216163456
1738773103412833500,7.85183349609375,0.002522546099498868,0.003783819265663624,0.0016636766958981752
1738773103422824400,7.861824462890625,0.0021662150975316763,0.006243514828383923,0.0011241203173995018
1738773103432815600,7.871815673828125,0.00086872314568609,0.004890629090368748,-0.0012828446924686432
1738773103442806500,7.881806640625,0.00213532242923975,0.0028386632911860943,-0.0001994707708945498
1738773103452798500,7.891798583984375,0.0012857741676270962,0.006666691042482853,0.0012948289513587952
1738773103462789600,7.90178955078125,0.0015214639715850353,0.004810467828065157,-0.0007217166712507606
1738773103472780500,7.911780517578125,0.0007672567153349519,0.0038546593859791756,-0.001136104459874332
1738773103482771500,7.921771484375,0.002028263406828046,0.0037531929556280375,0.0002466087171342224
1738773103492762400,7.931762451171875,0.00018136126163881272,0.004262122791260481,0.00021784658019896597
1738773103502753500,7.94175341796875,0.0013880395563319325,0.002910568844527006,0.00048389637959189713
1738773103514617300,7.953617431640625,0.0020178770646452904,0.002070873975753784,0.0012575446162372828
1738773103524608300,7.963608154296875,0.0020602215081453323,0.004865328781306744,0.0015267902053892612
1738773103534599400,7.973599365234375,0.0009446232579648495,0.0057132793590426445,-0.0010940266074612737
1738773103544591400,7.98359130859375,0.0004370247188489884,0.0035923379473388195,-0.0004902879591099918
1738773103554582300,7.993582275390625,0.0016594156622886658,0.0032445292454212904,0.0013544837711378932
1738773103564573400,8.003573486328126,0.0017608820926398039,0.004358795937150717,0.0010961571242660284
1738773103574564400,8.013564453125,0.0010162622202187777,0.0038959383964538574,-0.0005182511522434652
1738773103584555300,8.02355517578125,0.000940095866099,0.000508663768414408,0.0007321029552258551
1738773103594546400,8.03354638671875,0.0017297230660915375,0.005511411931365728,-0.0004958806093782187
1738773103604537600,8.04353759765625,0.0022913836874067783,0.005135640036314726,0.0004522047529462725
1738773103614528500,8.053528564453124,0.000529702752828598,0.0014367754338309169,-0.0006269080913625658
1738773103624519400,8.06351953125,0.0023347933311015368,0.002484196564182639,0.00020532972121145576
1738773103634511400,8.073511474609376,0.0015049523208290339,0.004703408572822809,0.00011238539445912465
1738773103644502500,8.08350244140625,0.001657285145483911,0.0044171190820634365,-0.0008018778171390295
1738773103654493400,8.093493408203125,0.0015992282424122095,0.002953711897134781,0.0005464806454256177
1738773103664484600,8.103484619140625,0.0022855247370898724,0.004084756597876549,-0.0004966795677319169
1738773103674475500,8.1134755859375,0.001014664419926703,0.005281847435981035,-0.001106809708289802
1738773103684466400,8.123466552734374,0.00207699928432703,0.002005093963816762,-0.00041678472189232707
1738773103694457600,8.13345751953125,0.002112952060997486,0.0030272151343524456,-0.00014807176194153726
1738773103704448500,8.143448486328126,0.005090898834168911,0.005715409759432077,0.00012010856153210625
1738773103714439400,8.153439453125,0.0012895026011392474,0.0023965786676853895,0.00196434766985476
1738773103724431600,8.163431640625,-0.000008788431841821875,0.004363056737929583,0.00006205165118444711
1738773103734422500,8.173422607421875,0.002299106912687421,0.006081328261643648,0.000050600061513250694
1738773103744413400,8.183413330078125,0.0019201391842216253,0.0011448930017650127,0.0014860439114272594
1738773103754404600,8.193404541015624,0.0003376888344064355,0.0010508833220228553,0.0011448930017650127
1738773103764395500,8.2033955078125,0.0015656723408028483,0.005335643421858549,-0.0004900216590613127
1738773103774386400,8.213386474609376,0.00009214537567459047,0.006403570994734764,-0.00039654469583183527
1738773103784377300,8.22337744140625,0.0025369273498654366,0.0022855247370898724,-0.0009398295660503209
1738773103794368500,8.233368408203125,0.0019166769925504923,0.00031878036679700017,0.001110005541704595
1738773103804359400,8.243359375,0.0008370315190404654,0.005344964098185301,-0.00030173614504747093
1738773103814351600,8.2533515625,0.0006572681595571339,0.004751611966639757,-0.00039308256236836314
1738773103824342500,8.263342529296875,0.0007653924985788763,0.002755040070042014,-0.00013076121103949845
1738773103834333400,8.27333349609375,0.0017896442441269755,0.00401631323620677,0.001976331928744912
1738773103844324400,8.283324462890626,0.002369148191064596,0.006057892460376024,0.0012796488590538502
1738773103854315500,8.2933154296875,-0.00042450788896530867,0.003224289044737816,0.0008207862265408039
1738773103864931300,8.303931396484375,0.0021912488155066967,0.0018658105982467532,0.0016410398529842496
1738773103874922500,8.313922607421874,0.0015656723408028483,0.0054339137859642506,0.0009334379574283957
1738773103884913400,8.323913330078126,0.002662628423422575,0.004131628200411797,0.0010775149567052722
1738773103894904300,8.333904296875,0.0019712718203663826,0.0017417073249816895,0.0008823052630759776
1738773103904895500,8.3438955078125,0.0021193434949964285,0.0036615801509469748,0.0013789847726002336
1738773103914886400,8.353886474609375,0.001362473238259554,0.006650978233665228,-0.0004958806093782187
1738773103924877300,8.363877197265625,0.0015334481140598655,0.003862382611259818,-0.00030546457855962217
1738773103934869500,8.373869384765625,0.0010969560826197267,0.0011515507940202951,-0.0002609897928778082
1738773103944860400,8.3838603515625,0.001288171042688191,0.003428020980209112,0.0005834985640831292
1738773103954851300,8.393851318359374,0.0008945558220148087,0.004897287115454674,-0.0009960222523659468
1738773103964842500,8.403842529296876,0.0020596887916326523,0.0035329493694007397,-0.00011132013605674729
1738773103974833400,8.41383349609375,0.0017512947088107467,0.003037867834791541,0.0006122607155703008
1738773103984824300,8.42382421875,0.0016783240716904402,0.006449909880757332,-0.0003653856983873993
1738773103994815200,8.433815185546875,0.003753725439310074,0.004592887591570616,0.0002769687562249601
1738773104004806400,8.443806396484375,0.0006870955694466829,0.0027593011036515236,0.00010998855577781796
1738773104014797600,8.453797607421874,0.001047687605023384,0.006250172853469849,0.002104163635522127
1738773104024789200,8.463789306640624,0.0018836538074538112,0.003094060579314828,0.0014831144362688065
1738773104034780400,8.473780517578126,0.002326004905626178,0.0024058998096734285,-0.0012258529895916581
1738773104044771300,8.483771240234375,0.0009566074586473405,0.004799549002200365,0.001088700257241726
1738773104054762200,8.49376220703125,-0.0005342300864867866,0.004896221682429314,-0.0012695288751274347
1738773104064753400,8.50375341796875,0.0004996090428903699,0.002971288748085499,-0.0007621967233717442
1738773104074744600,8.51374462890625,0.0015715312911197543,0.004481034819036722,-0.0005336974863894284
1738773104084735500,8.523735595703124,0.000827177835162729,0.004072772338986397,0.0003102582704741508
1738773104094726700,8.5337265625,0.0017741979099810123,0.003412840887904167,-0.00037470675306394696
1738773104104718300,8.54371826171875,0.0010069411946460605,0.0033659692853689194,0.0008056062506511807
1738773104114709500,8.55370947265625,-0.000022636868379777297,0.002951315138489008,0.00026258768048137426
1738773104124700700,8.56370068359375,0.0006479470757767558,0.00432976707816124,0.000630636524874717
1738773104134691600,8.573691650390625,0.0025417208671569824,0.0037920749746263027,0.00013315805699676275
1738773104144682500,8.5836826171875,0.0015763250412419438,0.0023545008152723312,0.00043649208964779973
1738773104154673400,8.59367333984375,-0.00019361180602572858,0.00398755120113492,0.0011017497163265944
1738773104164664600,8.60366455078125,0.0016218650853261352,0.004334827419370413,-0.00034194986801594496
1738773104174655500,8.613655517578126,0.0004649879119824618,0.004200337454676628,-0.0004876247840002179
1738773104184647700,8.623647705078126,0.0015848471084609628,0.003547064261510968,-0.00003435477628954686
1738773104194638600,8.633638671875,0.0007850998663343489,0.005411543417721987,-0.0010556770721450448
1738773104204629500,8.64362939453125,0.0009419600828550756,0.0032977922819554806,0.00033396040089428425
1738773104214620400,8.653620361328125,0.0012697952333837748,0.0030866037122905254,0.001014664419926703
1738773104224611600,8.663611572265625,0.0008404936525039375,0.0032354744616895914,-0.0009901633020490408
1738773104234602500,8.6736025390625,-0.000013848437447450124,0.005125519819557667,0.00023675501870457083
1738773104244593400,8.683593505859376,0.00046099317842163146,0.004004062619060278,-0.0002769687562249601
1738773104254584600,8.69358447265625,0.0017787253018468618,0.003368099918588996,0.0005094627267681062
1738773104264575500,8.703575439453125,0.002089516259729862,0.003868241561576724,0.00025779398856684566
1738773104274567000,8.71356689453125,0.002439721953123808,0.003984888084232807,0.0005424859118647873
1738773104284558000,8.72355810546875,0.0023965786676853895,0.004021106753498316,0.00014381069922819734
1738773104294549000,8.733549072265625,0.00130894361063838,0.004092213232070208,0.00016245282313320786
1738773104304540000,8.743539794921874,0.002317482838407159,0.0026940538082271814,0.0005539375124499202
1738773104314530800,8.75353076171875,0.002484995638951659,0.003805390791967511,-0.0004599279200192541
1738773104324522000,8.76352197265625,-0.000553404854144901,0.004034422803670168,-0.0005091963685117662
1738773104334513000,8.773512939453125,0.000972852751147002,0.003375822911038995,-0.000731836655177176
1738773104344503800,8.78350390625,0.0022738068364560604,0.004597414750605822,0.000978711643256247
1738773104354495000,8.793494873046875,0.0033907366450875998,0.0028969866689294577,-0.0007076018955558538
1738773104364487000,8.80348681640625,-0.0004138552176300436,0.0036509274505078793,0.0014985607704147696
1738773104374477800,8.813477783203124,0.0017515610670670867,0.0059931776486337185,-0.000016245283404714428
1738773104384469000,8.823468994140624,0.0006114617572166026,0.0037651772145181894,-0.000005060006060375599
1738773104394460000,8.8334599609375,0.0019385149935260415,0.0025893915444612503,0.0016138756182044744
1738773104404450800,8.843450927734375,0.001698830397799611,0.0037523938808590174,-0.001020257011987269
1738773104414442000,8.85344189453125,0.002008023438975215,0.006417952012270689,0.0002681803307496011
1738773104424433000,8.863432861328125,0.0017571536591276526,0.0017512947088107467,0.00006950850365683436
1738773104434423800,8.873423828125,0.0008349010022357106,0.0034823494497686625,0.0006711165769957006
1738773104444416000,8.883416015625,0.002401372417807579,0.005906092468649149,-0.0000023968450477696024
1738773104454407000,8.893406982421874,0.0019560917280614376,0.0018439727136865258,-0.0004487426485866308
1738773104464397800,8.903397705078126,0.0004237089306116104,0.0025510420091450214,0.002234658459201455
1738773104474388700,8.913388671875,0.0014572817599400878,0.003975034225732088,0.0012394351651892066
1738773104484380000,8.9233798828125,0.0018604843644425273,0.0036634444259107113,-0.0008532768115401268
1738773104494370800,8.933370849609375,0.0021528995130211115,0.0046149916015565395,0.0006548712844960392
1738773104504362000,8.943362060546875,0.001088433898985386,0.0032173648942261934,-0.00039734362508170307
1738773104514353200,8.953353271484374,0.0011952266795560718,0.0017619474092498422,0.0012564794160425663
1738773104524344000,8.963343994140626,0.001986984396353364,0.0019475696608424187,-0.00019441076437942684
1738773104534335700,8.973335693359376,0.0024088292848318815,0.004748416133224964,-0.0007337008719332516
1738773104544327000,8.983326904296876,0.0031909996178001165,0.004877579398453236,-0.0007760451408103108
1738773104554317800,8.99331787109375,-0.00008788431296125054,0.0019888486713171005,0.0004340952436905354
1738773104564309000,9.00330908203125,0.0015385081060230732,0.003312173532322049,0.00017443705291952938
1738773104574300200,9.013300048828125,0.00039601203752681613,0.003650128608569503,-0.0005613943794742227
1738773104584291000,9.023291015625,0.0020572920329868793,0.0030533140525221825,0.0005957491230219603
1738773104594282000,9.033281982421874,0.0008455536444671452,0.003291400847956538,-0.0006729807937517762
1738773104604273000,9.04327294921875,0.0011608719360083342,0.0036762275267392397,-0.0005241101025603712
1738773104614265000,9.05326513671875,0.00038935415796004236,0.003198190126568079,0.0015278555219992995
1738773104624256000,9.063256103515625,0.0013989584986120462,0.0052267201244831085,-0.00025592977181077003
1738773104634247200,9.0732470703125,0.0008250473183579743,0.0027574370615184307,-0.0001525991247035563
1738773104644238000,9.083238037109375,0.0008652610122226179,0.0032083101104944944,-0.000693220819812268
1738773104654229000,9.09322900390625,0.0016876452136784792,0.003282346064224839,-0.00015446334145963192
1738773104664220000,9.103219970703124,0.0005914880894124508,0.004450940992683172,-0.0006487460341304541
1738773104674211000,9.113211181640626,0.0023816649336367846,0.004137753508985043,-0.0005531385540962219
1738773104684202000,9.123201904296875,0.0012253203894942999,0.003546797903254628,-0.0005243764026090503
1738773104694193000,9.13319287109375,0.0007006776868365705,0.007798002101480961,0.00006498113361885771
1738773104704185000,9.14318505859375,0.002055960241705179,0.0031851406674832106,0.00070493872044608
1738773104714176000,9.153176025390625,0.0027084348257631063,0.00028522455249913037,0.0015369103057309985
1738773104724167000,9.1631669921875,0.001618403010070324,0.002974484581500292,0.00009081379539566115
1738773104734158000,9.173157958984374,0.0038924762047827244,0.004667722620069981,0.0012237224727869034
1738773104744149000,9.18314892578125,0.0001930791768245399,0.003251187037676573,0.00006072007090551779
1738773104754140000,9.193139892578126,0.0016847157385200262,0.002936934120953083,0.0001496696495451033
1738773104764130800,9.203130859375,0.0024146882351487875,0.0046789078041911125,0.003323891432955861
1738773104774122000,9.2131220703125,-0.0007137271459214389,0.0038016624748706818,0.0005720470217056572
1738773104784113000,9.22311279296875,0.0024700819049030542,0.0046693203039467335,-0.001585912425071001
1738773104794105000,9.23310498046875,0.0006359628750942647,0.005377721041440964,-0.0007403587806038558
1738773104804096000,9.243095947265624,0.001686846255324781,0.0036493295338004827,-0.0000428768944402691
1738773104814087000,9.2530869140625,0.0008902947301976383,0.0030184267088770866,0.0014144048327580094
1738773104824077800,9.263077880859376,0.002210423583164811,0.00487172044813633,0.0006149238906800747
1738773104834069000,9.273069091796875,0.0021550299134105444,0.006737797521054745,-0.0006468818173743784
1738773104844060000,9.283059814453125,0.0007611314067617059,0.0027662254869937897,0.00014434332842938602
1738773104854050800,9.29305078125,0.001845038030296564,0.004334028344601393,0.00028762139845639467
1738773104864042000,9.3030419921875,0.0020546286832541227,0.003353186184540391,0.0005736448802053928
1738773104874034000,9.313033935546875,0.0021105550695210695,0.004597681108862162,-0.000045540054998127744
1738773104884024800,9.32302490234375,0.001889246515929699,0.004233094397932291,-0.00019441076437942684
1738773104894016000,9.33301611328125,0.0013821806060150266,0.004807005636394024,0.0004135889175813645
1738773104904007000,9.3430068359375,0.0025627599097788334,0.0034642398823052645,0.0017174725653603673
1738773104913997800,9.352997802734375,0.002284459536895156,0.005026184022426605,-0.0011560781858861446
1738773104923989000,9.362989013671875,0.0017694041598588228,0.006219546310603619,-0.0005584649043157697
1738773104933980000,9.37297998046875,0.0014421016676351428,0.003156378399580717,0.0004087952256668359
1738773104943970800,9.382970703125,0.0003299656673334539,0.0032722260802984238,0.0008793757879175246
1738773104953961700,9.392961669921876,0.0018631474813446403,0.00361817074008286,-0.00025726135936565697
1738773104963954000,9.402953857421876,0.0027414578944444656,0.006629140581935644,0.00034647725988179445
1738773104973944800,9.41294482421875,0.0020442423410713673,0.0026200178544968367,0.000365918327588588
1738773104983935700,9.422935791015625,0.0013872405979782343,0.004080495331436396,0.0000021305288555595325
1738773104993927000,9.432927001953125,0.0010940266074612737,0.004798217210918665,0.0005331648280844092
1738773105003917800,9.442917724609375,0.001751827308908105,0.0033776871860027313,0.0013054815353825688
1738773105013908700,9.45290869140625,0.0007105313707143068,0.0033153691329061985,0.001752360025420785
1738773105023900200,9.462900146484374,0.0016905746888369322,0.005638178437948227,0.0012966931099072099
1738773105033891000,9.47289111328125,0.002484196564182639,0.0032653016969561577,-0.00014168016787152737
1738773105043882000,9.482882080078125,0.0022445120848715305,0.004546282347291708,0.0006173207075335085
1738773105053874000,9.4928740234375,0.00039601203752681613,0.004941229242831469,0.002453836612403393
1738773105063864800,9.50286474609375,0.00005832322858623229,0.00455640209838748,0.0008695221040397882
1738773105073856000,9.51285595703125,0.0006450176006183028,0.003236006945371628,0.0002956108655780554
1738773105083847200,9.52284716796875,-0.00037683729897253215,0.0036602485924959183,-0.00033342777169309556
1738773105093838000,9.532838134765624,0.0010972223244607449,0.004236290231347084,-0.001330249011516571
1738773105103829000,9.5428291015625,0.0007161240209825337,0.004521514754742384,0.0005446164286695421
1738773105113820000,9.55281982421875,0.0018066884949803352,0.004539890680462122,-0.000300404557492584
1738773105123811000,9.56281103515625,0.003263970138505101,0.002668221015483141,-0.0009331716573797166
1738773105133803000,9.572802978515625,0.0006530070677399635,0.002776345470920205,0.0011547466274350882
1738773105143794200,9.582794189453125,0.001484179636463523,0.0037646444980055094,-0.0016202671686187387
1738773105153785000,9.59278515625,0.0021497036796063185,0.00424294825643301,0.0003510046226438135
1738773105163776000,9.60277587890625,0.0023784691002219915,0.004024036228656769,-0.00007110639853635803
1738773105173767000,9.612766845703124,0.0009057410643436015,0.003055711043998599,-0.0001371527905575931
1738773105183758000,9.622758056640626,0.0016564861871302128,0.004237622022628784,0.0010431602131575346
1738773105193749000,9.6327490234375,0.0018125474452972412,0.004519650712609291,0.00039601203752681613
1738773105203740000,9.642739990234375,0.0006138586322776973,0.0038687740452587605,-0.000013848437447450124
1738773105213731000,9.65273095703125,0.0009648632840253413,0.005195028148591518,-0.0007872303831391037
1738773105223723000,9.662722900390625,0.0034376082476228476,0.004625910893082619,0.0006578007596544921
1738773105233714000,9.6727138671875,0.0005544701125472784,0.003002181416377425,0.0012684636749327183
1738773105243705000,9.682705078125,0.0018383801216259599,0.004833370912820101,0.0005667206714861095
1738773105253696000,9.692696044921876,0.0018490327056497335,0.004514324478805065,0.0000031957933970261365
1738773105263687000,9.70268701171875,0.0011073424248024821,0.003049585735425353,0.000609863898716867
1738773105273678000,9.712677978515625,0.0007952199084684253,0.0034171019215136766,0.0004564658156596124
1738773105283669500,9.72266943359375,0.00029108350281603634,0.00436012726277113,0.0008700547041371465
1738773105293660400,9.732660400390625,0.001068193931132555,0.004328169394284487,0.0006412891671061516
1738773105303651300,9.7426513671875,0.0010157296201214194,0.0026343988720327616,0.00028389296494424343
1738773105313643500,9.7526435546875,0.0018333201296627522,0.00202293717302382,-0.0004223773430567235
1738773105323634400,9.762634521484374,-0.00002902845517382957,0.005262938793748617,0.00037816885742358863
1738773105333625600,9.77262548828125,0.0002932140196207911,0.004801679402589798,0.0009861685102805495
1738773105343616500,9.782616455078125,0.0019867182709276676,0.000916393706575036,0.00034594463068060577
1738773105353607400,9.792607421875,0.0011430287268012762,0.003674895968288183,0.0001805623178370297
1738773105363598300,9.802598388671875,0.000672181835398078,0.006198507267981768,-0.0010040117194876075
1738773105373589500,9.812589599609375,0.0012463594321161509,0.0012120045721530914,0.000592287047766149
1738773105383580400,9.822580322265624,0.0011411645682528615,0.005281581077724695,0.0009803095599636436
1738773105393571300,9.8325712890625,0.002600310370326042,0.004708202555775642,-0.0000476705827168189
1738773105403563500,9.8425634765625,0.0006111954571679235,0.0020817930344492197,0.0008410262526012957
1738773105413554400,9.852554443359375,0.0008346347021870315,0.0025987126864492893,0.00224930583499372
1738773105423545300,9.86254541015625,0.0006404902087524533,0.005900233518332243,-0.00010705907334340736
1738773105433536500,9.87253662109375,0.001961684552952647,0.004466387443244457,0.0006583334179595113
1738773105443527400,9.88252734375,0.00003728425508597866,0.0030333404429256916,0.0008847020799294114
1738773105453518300,9.892518310546874,0.0009006810723803937,0.003363838652148843,0.000051399008953012526
1738773105463509500,9.902509521484374,0.0009307747823186219,0.006202502176165581,-0.0014956312952563167
1738773105473500400,9.91250048828125,0.0019180085510015488,0.0017358483746647835,0.0008641957538202405
1738773105483492400,9.922492431640626,-0.00003408846168895252,0.0021821942646056414,-0.000011451592399680521
1738773105493483500,9.9324833984375,-0.00013688647595699877,0.00652714166790247,0.0016737966798245907
1738773105503474400,9.942474365234375,-0.0008503473363816738,0.004580636974424124,-0.00009720538218971342
1738773105513465300,9.95246533203125,-0.00012383698776829988,0.00185089698061347,-0.001121723442338407
1738773105523456300,9.962456298828124,0.0007222492713481188,0.002287921728566289,0.00013741910515818745
1738773105533447400,9.972447509765624,0.001555818715132773,0.0065252771601080894,0.00016325176693499088
1738773105543438300,9.982438232421876,0.00022770027862861753,0.003707919269800186,0.0004370247188489884
1738773105553429200,9.99242919921875,0.0024554345291107893,0.002129463478922844,0.00008868326403899118
1738773105563420400,10.00242041015625,0.002454102970659733,0.003977430984377861,-0.001457548001781106
1738773105573412400,10.012412353515625,0.0021489046048372984,0.00529596209526062,0.0002972087822854519
1738773105583403300,10.0224033203125,0.0011297129094600677,0.002442118711769581,0.0004719121498055756
1738773105593394400,10.03239453125,0.0023156185634434223,0.0013542174128815532,-0.00016112125013023615
1738773105603385300,10.04238525390625,-0.0005142564186826348,0.006198773626238108,0.00043329631444066763
1738773105613376300,10.052376220703126,0.002310824813321233,0.003168362658470869,0.0012303803814575076
1738773105623367400,10.062367431640626,0.002329200739040971,0.0020730046089738607,-0.0005739112384617329
1738773105633358600,10.072358642578125,0.0019539613276720047,0.0062578958459198475,0.00019201391842216253
1738773105643349500,10.082349609375,0.0014024205738678575,0.0049524144269526005,-0.00009374327055411413
1738773105653340400,10.09234033203125,0.0008050735923461616,0.0029081718530505896,-0.0006383596919476986
1738773105663332400,10.102332275390625,0.001633316627703607,0.003153715282678604,0.0006719155353493989
1738773105673323500,10.112323486328124,0.000358461489668116,0.0046392264775931835,0.00028389296494424343
1738773105683314700,10.122314697265624,0.0019060244085267186,0.003328418591991067,-0.0015949672088027
1738773105693305600,10.1323056640625,-0.0002564624010119587,0.0029843382071703672,-0.00045540055725723505
1738773105703296500,10.142296630859375,0.0025720810517668724,0.004535363521426916,-0.00029827404068782926
1738773105713287400,10.152287353515625,0.0021110877860337496,0.00449781259521842,-0.0009970874525606632
1738773105723278600,10.162278564453125,0.00023808660625945777,0.003296460723504424,0.00017097493400797248
1738773105733269500,10.17226953125,-0.0008207862265408039,0.004875715356320143,-0.0011779161868616939
1738773105743260400,10.182260498046874,0.0008293083519674838,0.00455773388966918,-0.0004828310920856893
1738773105753252600,10.192252685546874,0.0027451864443719387,0.004453870467841625,0.0014298511669039726
1738773105763243500,10.202243408203126,0.0003685815026983619,0.0038743666373193264,0.00005406216951087117
1738773105773234400,10.212234375,0.0011515507940202951,0.005394499283283949,0.000254331884207204
1738773105783225600,10.2222255859375,0.002433863002806902,0.003751062322407961,0.00033875409280881286
1738773105793216500,10.232216552734375,0.0022511701099574566,0.002338788006454706,-0.0002372876479057595
1738773105803207400,10.24220751953125,-0.0005986785981804132,0.004095941781997681,0.0015550197567790747
1738773105813198300,10.2521982421875,0.0018154769204556942,0.006388657260686159,-0.0001984054979402572
1738773105823189500,10.262189453125,0.002829608740285039,0.0015126754296943545,0.0017659420846030116
1738773105833180400,10.272180419921876,0.0018570221727713943,0.0036852823104709387,0.0003856257244478911
1738773105843172600,10.282172607421876,0.00032144354190677404,0.0033830134198069572,0.0008085357258096337
1738773105853163500,10.29216357421875,0.0006330333999358118,0.005538043566048145,-0.000019707391402334906
1738773105863154400,10.302154541015625,0.00112438655924052,0.002499909373000264,-0.0006530070677399635
1738773105873145300,10.312145263671875,0.0015078817959874868,0.0028221518732607365,0.0011619371362030506
1738773105883136500,10.322136474609374,-0.00012676646292675287,0.0046757119707763195,0.0007608651067130268
1738773105893127400,10.33212744140625,0.0008719189208932221,0.0034256239887326956,-0.00033422670094296336
1738773105903118300,10.342118408203126,0.0012985573848709464,0.0017337178578600287,0.0008977515972219408
1738773105913109500,10.352109619140625,0.0003201119543518871,0.004761998075991869,0.0002772350562736392
1738773105923100400,10.362100341796875,0.0006431533838622272,0.002606702037155628,0.0014468954177573323
1738773105933092400,10.37209228515625,0.0015715312911197543,0.004400340840220451,0.0017574200173839927
1738773105943083500,10.38208349609375,0.0011414308100938797,0.003996073268353939,-0.002070873975753784
1738773105953074400,10.392074462890625,0.00063383235828951,0.002886600326746702,0.0000500674286740832
1738773105963065300,10.4020654296875,0.0012191950809210539,0.003781156148761511,0.000254331884207204
1738773105973056500,10.412056396484376,0.002502838848158717,0.00364693277515471,0.0014911039033904672
1738773105983047400,10.42204736328125,0.001353152096271515,0.0027632960118353367,0.00045859633246436715
1738773105993038300,10.432038330078125,0.001136637176387012,0.0054815844632685184,0.0002495381922926754
1738773106003029200,10.442029296875,0.001614940818399191,0.0029590383637696505,0.0017243968322873116
1738773106013020400,10.4520205078125,0.0014554174849763513,0.003049319377169013,0.0014919028617441654
1738773106023012400,10.462012451171875,0.0013102752855047584,0.004262389149516821,0.0019411781104281545
1738773106033003300,10.472003173828124,0.0009390306076966226,0.004941229242831469,0.0006197175825946033
1738773106042994400,10.481994384765626,0.00044767739018425345,0.0029265477787703276,-0.00036751621519215405
1738773106052985300,10.4919853515625,0.0005725796218030155,0.0014407701091840863,0.0006026733317412436
1738773106062976300,10.501976318359375,0.0008809737046249211,0.0067481836304068565,0.0008668589289300144
1738773106072967400,10.511967529296875,0.0003328951424919069,0.0031638352666050196,0.00017070861940737814
1738773106082958300,10.521958251953125,0.0007323693134821951,0.001618136651813984,0.0012903015594929457
1738773106092949500,10.531949462890625,-0.000922519015148282,0.0070794811472296715,0.0019068233668804169
1738773106102940700,10.541940673828124,-0.00006418218254111707,0.004613926634192467,-0.00019494339358061552
1738773106112932400,10.551932373046874,0.0012399677652865648,0.002665291540324688,0.000027963191314483993
1738773106122923300,10.56192333984375,0.0011675298446789384,0.004445082042366266,0.0016389093361794949
1738773106132914400,10.57191455078125,0.001044758129864931,0.004221642855554819,-0.0008889631717465818
1738773106142905600,10.581905517578125,0.0005635248962789774,0.0026937874499708414,-0.0001054611784638837
1738773106152896500,10.591896484375,0.0008660599705763161,0.004119643941521645,0.0007129282457754016
1738773106162887400,10.601887451171875,-0.00012117382721044123,0.004956408869475126,0.0012996225850656629
1738773106172878600,10.611878662109374,0.0009361011325381696,0.003055711043998599,0.0007582019316032529
1738773106182869500,10.621869384765626,0.002326271263882518,0.00421391986310482,-0.0001424791116733104
1738773106192860400,10.6318603515625,-0.0002103897277265787,0.005022988189011812,-0.0010926949325948954
1738773106202852600,10.6418525390625,-0.0006764429272152483,0.004040548112243414,0.0001424791116733104
1738773106212843500,10.651843505859375,0.0017454357584938407,0.00279046013019979,-0.00025353292585350573
1738773106222834400,10.66183447265625,0.0007835020078346133,0.003561711637303233,-0.0009243832319043577
1738773106232825600,10.67182568359375,-0.00035606464371085167,0.0051739891059696674,-0.0005976133397780359
1738773106242816500,10.68181640625,0.0010732539230957627,0.0033840788528323174,-0.00038748994120396674
1738773106252807400,10.691807373046874,0.0015568839153274894,0.00296303303912282,-0.000020772657080669887
1738773106262798600,10.701798583984376,0.001434112200513482,0.005191565956920385,-0.0008024104172363877
1738773106272789500,10.71178955078125,0.0008399609941989183,0.0009555422002449632,0.0015614113071933389
1738773106282781000,10.721781005859375,0.0015052186790853739,0.003287405939772725,-0.00019494339358061552
1738773106292771800,10.731771728515625,0.0007552724564447999,0.005943642929196358,0.0006556702428497374
1738773106302762800,10.7417626953125,0.0012271846644580364,0.0034735610242933035,0.00048629322554916143
1738773106312754000,10.75175390625,0.001253017340786755,0.0005858954391442239,-0.0007792409160174429
1738773106322744800,10.761744873046876,0.0015193333383649588,0.007525294087827206,0.00018722022650763392
1738773106332735700,10.77173583984375,0.002546514617279172,0.003942010924220085,-0.0005083974683657289
1738773106342727000,10.781726806640625,0.00017070861940737814,0.0012594088912010193,0.00045140579459257424
1738773106352717800,10.7917177734375,0.0010375675046816468,0.005122057627886534,0.0010546117555350065
1738773106362708700,10.801708740234375,0.0006130596739239991,0.0035715652629733086,0.00022610237647313625
1738773106372701000,10.811700927734375,0.0003475425182841718,0.003014165675267577,0.0011789813870564103
1738773106382691800,10.82169189453125,0.001969673903658986,0.003406449221074581,0.0003680488734971732
1738773106392682800,10.831682861328124,0.0014199974248185754,0.004192348103970289,0.0003398193512111902
1738773106402674000,10.841673828125,0.0026471822056919336,0.004457865376025438,0.00013502225920092314
1738773106412664800,10.851664794921875,-0.00031664984999224544,0.0030064424499869347,0.00040799626731313765
1738773106422655700,10.86165576171875,0.00011371697473805398,0.002944923471659422,0.00006578007742064074
1738773106432646700,10.871646728515625,0.00034594463068060577,0.004729507956653833,0.00044661210267804563
1738773106442637800,10.881637939453125,0.001187503570690751,0.002311091171577573,0.0002993392990902066
1738773106452628700,10.891628662109374,0.002083390951156616,0.005251220893114805,0.000391218374716118
1738773106462621000,10.901620849609374,0.0014229270163923502,0.003689276985824108,0.0006301039247773588
1738773106472611800,10.91161181640625,0.0005624596378766,0.00123783724848181,-0.000011717908819264267
1738773106482602800,10.921602783203125,0.0012745888670906425,0.0049012815579771996,0.0013137373607605696
1738773106492593700,10.93159375,0.001377919572405517,0.0039175101555883884,-0.0001573928166180849
1738773106502584800,10.941584716796875,0.0006159891490824521,0.002807770622894168,-0.0011696603614836931
1738773106512575700,10.95157568359375,0.0010634001810103655,0.004465854726731777,0.000496945867780596
1738773106522567000,10.96156689453125,0.002031459240242839,0.0030690268613398075,-0.0005254416610114276
1738773106532558000,10.97155810546875,0.0029470541048794985,0.003459978848695755,0.0008644621120765805
1738773106542549000,10.981549072265626,0.0015688681742176414,0.002129729837179184,0.000006391586794052273
1738773106552540000,10.991539794921875,0.0017619474092498422,0.003885552054271102,0.0008442220860160887
1738773106562531800,11.00153173828125,0.0010631339391693473,0.0034738273825496435,0.0002495381922926754
1738773106572522800,11.011522705078125,0.0015662050573155284,0.0005060005933046341,-0.00032916670897975564
1738773106582514000,11.021513916015625,0.0005105279851704836,0.0035140409599989653,0.0014823154779151082
1738773106592505000,11.031505126953125,-0.0005946838646195829,0.001437041675671935,-0.0002311623829882592
1738773106602496000,11.04149609375,0.002085787709802389,0.003171558491885662,-0.0003885551996063441
1738773106612487000,11.05148681640625,0.0008245146600529552,0.00501020485535264,0.00015925703337416053
1738773106622477800,11.061477783203125,-0.0017379788914695382,0.0036424053832888603,0.0020692760590463877
1738773106632469000,11.071468994140625,0.0017526262672618032,0.005123921670019627,-0.0005182511522434652
1738773106642460000,11.0814599609375,0.0013792511308565736,0.002892192918807268,0.0005227785441093147
1738773106652451800,11.091451904296875,0.0012460930738598108,0.001493500778451562,0.00017710021347738802
1738773106662443000,11.101443115234375,-0.0013313142117112875,0.005480519030243158,-0.0007608651067130268
1738773106672434000,11.111433837890624,0.001998702296987176,0.004473045468330383,-0.0005241101025603712
1738773106682424800,11.1214248046875,0.00004846953015658073,0.002481267089024186,-0.00021252025908324867
1738773106692416000,11.131416015625,0.0020730046089738607,0.0049159289337694645,-0.00021012341312598437
1738773106702407000,11.141406982421875,0.001463673310354352,0.006195311434566975,-0.000046871635277057067
1738773106712397800,11.151397705078125,0.000847950461320579,0.002121207769960165,0.0005768407136201859
1738773106722388700,11.161388671875,0.0001411475386703387,0.00401578051969409,0.0007502124644815922
1738773106732380000,11.1713798828125,0.0008410262526012957,0.003751861397176981,0.0010665960144251585
1738773106742371800,11.181371826171874,0.0012724583502858877,0.0062738750129938126,-0.0007936219917610288
1738773106752363000,11.191363037109374,0.0008247809601016343,0.0019976370967924595,0.000045540054998127744
1738773106762354000,11.20135400390625,0.0011805793037638068,0.003261040663346648,0.0006886934279464185
1738773106772344800,11.2113447265625,0.0021142836194485426,0.005029912106692791,-0.0008862999966368079
1738773106782335700,11.221335693359375,0.000055660068028373644,0.002266882685944438,0.00009800432599149644
1738773106792327000,11.231326904296875,0.0023393207229673862,0.004269313532859087,-0.0005704491049982607
1738773106802317800,11.24131787109375,0.001618136651813984,0.0033076461404561996,0.0011427623685449362
1738773106812308700,11.251308837890624,0.0017121462151408195,0.0032109732273966074,0.0002061286650132388
1738773106822300000,11.2612998046875,0.0002519350382499397,0.003715642262250185,0.0008431567694060504
1738773106832291800,11.271291748046876,0.003254915354773402,0.003531884169206023,0.0002612560929264873
1738773106842282800,11.28128271484375,0.0012274509062990546,0.003483414649963379,0.0005328985280357301
1738773106852274000,11.29127392578125,0.00044528054422698915,0.0017747305100783706,-0.00041012681322172284
1738773106862264800,11.301264892578125,0.0012916331179440022,0.0054395063780248165,0.0011821772204712033
1738773106872255700,11.311255859375,0.0006974819116294384,0.005635781679302454,-0.0004767058417201042
1738773106882247000,11.321246826171874,0.0011944277212023735,0.002463690238073468,0.0006519418093375862
1738773106892237800,11.33123779296875,0.001704955706372857,0.0044346959330141544,0.0002495381922926754
1738773106902228700,11.341228759765626,0.0008386294357478619,0.004794222768396139,0.0018394453218206763
1738773106912221000,11.351220947265626,0.0022064289078116417,0.0019947076216340065,-0.0004852279380429536
1738773106922211800,11.3612119140625,0.0013499563792720437,0.004524444229900837,-0.0005925533478148282
1738773106932202800,11.37120263671875,0.0019020296167582273,0.004793423693627119,-0.0007768440991640091
1738773106942193700,11.381193603515625,0.003460777923464775,0.0025454494170844555,0.0005456816870719194
1738773106952184800,11.391184814453124,0.00250603468157351,0.004727909807115793,0.00016831177345011383
1738773106962175700,11.40117578125,0.0018072210950776935,0.003930559381842613,-0.00013901700731366873
1738773106972166700,11.411166748046876,0.0007872303831391037,0.0007504787645302713,0.00010626012954162434
1738773106982157800,11.42115771484375,0.0010527475969865918,0.004628307651728392,-0.0011251855175942183
1738773106992149000,11.43114892578125,0.0027150926180183887,0.005336442030966282,-0.0002556634717620909
1738773107002140000,11.441139892578125,0.0008961536805145442,0.002939330879598856,0.0005904228310100734
1738773107012131800,11.4511318359375,0.0010578075889497995,0.0030858046375215054,0.00022370553051587194
1738773107022122800,11.461122802734375,0.0028671592008322477,0.004027764778584242,0.000505734293255955
1738773107032113700,11.47111376953125,0.0004293015517760068,0.00373108871281147,0.000434361572843045
1738773107042104800,11.481104736328126,0.0016144082183018327,0.0031398669816553593,0.0005488775204867125
1738773107052096000,11.491095947265626,0.0010210559703409672,0.003281813347712159,0.00039308256236836314
1738773107062087000,11.5010869140625,0.0021702100057154894,0.005458947736769915,0.0011105381418019533
1738773107072077800,11.511077880859375,0.001722798915579915,0.003876497270539403,0.001975266495719552
1738773107082069000,11.521069091796875,0.0016383767360821366,0.0027710190042853355,0.0007094661123119295
1738773107092060000,11.531059814453124,0.001454618526622653,0.0044112601317465305,-0.00039947417099028826
1738773107102052000,11.541052001953124,0.00105301383882761,0.004328435752540827,0.00041971419705078006
1738773107112043000,11.55104296875,0.0007163903210312128,0.0027864654548466206,0.0000977380113909021
1738773107122034000,11.561033935546876,0.001955559244379401,0.003739610780030489,0.0008908273885026574
1738773107132024800,11.57102490234375,0.0031590417493134737,0.003822967642918229,0.00045060686534270644
1738773107142016000,11.58101611328125,0.0029052423778921366,0.003963849041610956,0.00018269284919369966
1738773107152007000,11.5910068359375,0.0012692625168710947,0.0030027141328901052,-0.0002495381922926754
1738773107161997800,11.600997802734375,0.0011283813510090113,0.0035441347863525152,-0.00037497308221645653
1738773107171989000,11.610989013671874,0.0018053569365292788,0.003975300583988428,0.00038269624928943813
1738773107181980000,11.62097998046875,0.0024557008873671293,0.003751595038920641,-0.001514806062914431
1738773107191971800,11.630971923828126,0.0009206547983922064,0.00296276668086648,-0.00039308256236836314
1738773107201963000,11.640962890625,-0.0003933488915208727,0.005519134923815727,0.002210956299677491
1738773107211954000,11.650953857421875,0.0006213154993019998,0.002561161993071437,-0.0007153250626288354
