time,seconds_elapsed,z,y,x
1738772909643831300,0.035831298828125,-0.09091478115618229,-0.0014568568779621273,-0.027155133429169653
1738772909653822200,0.045822265625,-0.030620179191231726,-0.005851840433897451,-0.005423778614401817
1738772909663813400,0.0558134765625,-0.04568623089790344,0.0009680915469070896,-0.01082856026738882
1738772909673804300,0.06580419921875,-0.06502338405251502,0.00022388558348175136,-0.029112697237730023
1738772909683796200,0.075796142578125,-0.051287119644880294,0.0012374465401982888,-0.016883038000762463
1738772909693787400,0.085787353515625,-0.051859951096773146,-0.0016905925686005502,-0.01757365061342716
1738772909703778300,0.0957783203125,-0.06308920111954212,-0.007065568171790801,-0.01440963362455368
1738772909713769200,0.105769287109375,-0.052011926788091654,-0.0022806491499301044,-0.005147299760580063
1738772909723760000,0.115760009765625,-0.035409167033433914,-0.0030732516991905864,-0.017989245676994323
1738772909733751300,0.125751220703125,-0.05801613563895225,-0.003260723395575769,-0.014805062682926654
1738772909743743200,0.1357431640625,-0.06625146454274654,-0.004181555434386246,-0.020470833359658717
1738772909753734400,0.145734375,-0.04830839609503746,-0.015699559270660392,-0.015785305891931056
1738772909763725300,0.155725341796875,-0.0508510663151741,-0.013001716755121014,-0.015640052202343938
1738772909773716200,0.16571630859375,-0.0664449412882328,-0.006186497482052073,-0.02300648931711912
1738772909783707100,0.17570703125,-0.06123334411978721,0.002261227496829815,-0.012140519648790359
1738772909793698300,0.1856982421875,-0.04433364724516868,0.0019853696975158527,-0.011359013882279395
1738772909803690200,0.195690185546875,-0.050606736165285104,-0.004926971540786326,-0.010503273835778235
1738772909813681200,0.20568115234375,-0.06769640265405177,-0.003207641501468606,-0.020865970157086848
1738772909823672300,0.21567236328125,-0.05591887109875679,-0.004099338777340017,-0.024149521872401235
1738772909833663200,0.225663330078125,-0.04560790496468544,-0.004084743996406905,-0.007190496025979518
1738772909843654100,0.235654052734375,-0.06549333965182304,-0.0005051319439662621,-0.014132862509787082
1738772909853645300,0.245645263671875,-0.06654723261892795,-0.003512661463185213,-0.016354922473430632
1738772909863637200,0.25563720703125,-0.05622106891572475,0.0009095799924340099,-0.02219312710762024
1738772909873628200,0.265628173828125,-0.06010229426324367,0.0018613140595844014,-0.014893617749214171
1738772909883619300,0.275619384765625,-0.059065352430939674,-0.0022926866475958376,-0.03415829018950462
1738772909893610200,0.2856103515625,-0.053829789865016936,-0.013682858286541887,-0.012902736192941664
1738772909903601200,0.29560107421875,-0.062357379713654515,0.004084456302039325,-0.009169687144458294
1738772909913592300,0.30559228515625,-0.06727087071835994,0.0019063998769037424,-0.01673632300645113
1738772909923584300,0.315584228515625,-0.07551262936294079,-0.007174618036835454,-0.007716857987642288
1738772909933575200,0.3255751953125,-0.03329612040221691,-0.0015667652595322578,-0.026487901692092416
1738772909943566300,0.33556640625,-0.0534872600376606,-0.011028507852857,-0.023830957442522047
1738772909953557200,0.34555712890625,-0.06710428197979927,-0.005073613469861448,-0.02128887174427509
1738772909963548200,0.355548095703125,-0.06440846702456474,-0.007005896706692874,-0.01246726738512516
1738772909973539300,0.365539306640625,-0.07505377967953682,-0.004595451731211506,-0.023017595233023165
1738772909983531300,0.37553125,-0.06534604013562202,-0.00007169069645460694,-0.02040273655951023
1738772909993522200,0.385522216796875,-0.06369359675347805,-0.00998137342010159,-0.005763093571364879
1738772910003513300,0.395513427734375,-0.05769815573096275,-0.011426736223092301,-0.0043014965862035745
1738772910013504300,0.405504150390625,-0.061443187478184697,-0.00043225850400049236,-0.02748305020928383
1738772910023495200,0.4154951171875,-0.06759294227957725,-0.003837107644579373,-0.011719371627271175
1738772910033486000,0.425486083984375,-0.041723172485828394,-0.00021037764793727546,-0.010160451747477053
1738772910043478300,0.435478271484375,-0.05051029005348682,-0.01329960372315254,-0.02153115606755018
1738772910053469200,0.44546923828125,-0.06936404360532761,-0.012232741676620206,-0.022730010463297364
1738772910063460400,0.45546044921875,-0.07477262465059757,-0.012081683867331593,-0.018312486281991003
1738772910073451300,0.465451171875,-0.0548597174346447,0.0010864252635277808,0.0006508651241660118
1738772910083442000,0.47544189453125,-0.04225391836166382,-0.007284197624842636,-0.009953823259472847
1738772910093434000,0.48543408203125,-0.07400573193132877,0.0003295607479289174,-0.023317747223377226
1738772910103425000,0.495425048828125,-0.057739072263240813,-0.009515326810930855,-0.009245382729172706
1738772910113416000,0.505416015625,-0.042320553857088085,-0.0005108355989679694,-0.009864975932240486
1738772910123406800,0.51540673828125,-0.06355448054373264,-0.005971598922624252,-0.019646072973310946
1738772910133398000,0.52539794921875,-0.08168634956181049,-0.0038340891370084135,-0.03571574876457453
1738772910143389000,0.535388916015625,-0.06178221017420291,0.006155029198131524,-0.007440379133820533
1738772910153380900,0.545380859375,-0.04872574472427368,-0.0006525456245988607,-0.01999532480239868
1738772910163372000,0.5553720703125,-0.06082359427511692,-0.006124090637173504,-0.013494272345304488
1738772910173363000,0.565363037109375,-0.06711304980814456,0.00374279412436299,-0.016619710889458655
1738772910183353900,0.575353759765625,-0.052715691143274304,0.007497091456851922,-0.019279577748477456
1738772910193345000,0.585344970703125,-0.06751052469313144,0.0014453719361452386,-0.010967384216189384
1738772910203336000,0.5953359375,-0.055385202613472934,-0.003529142240528017,-0.01681903285384178
1738772910213328000,0.605327880859375,-0.06209785199463367,0.004331850625271909,-0.01644610788822174
1738772910223319000,0.615319091796875,-0.059385670426487916,-0.00333239125914406,-0.023546587543189525
1738772910233310000,0.62531005859375,-0.06194353821575641,-0.011316078922851011,-0.017956512451171875
1738772910243300900,0.63530078125,-0.052523967963457104,-0.003503030551737174,-0.023617899213731287
1738772910253292000,0.6452919921875,-0.05461071110963821,-0.007248920815484598,-0.0074848027974367135
1738772910263283000,0.655282958984375,-0.06778057380616664,0.0019993251576321197,-0.020797873356938362
1738772910273275000,0.66527490234375,-0.05372983662188053,0.0005111095936037599,-0.010417641378939151
1738772910283266000,0.67526611328125,-0.06256313141882419,-0.0015449324536370114,-0.030004969902336597
1738772910293257000,0.685257080078125,-0.05973638356029987,0.007107251889049075,-0.016477964331209658
1738772910303248000,0.695247802734375,-0.0573474425971508,-0.00024285971201024948,-0.013317162212729453
1738772910313239000,0.705239013671875,-0.07680500726103782,-0.00907971643921919,-0.01703910534530878
1738772910323230000,0.71522998046875,-0.04926876555979252,-0.003429832884785719,-0.004781096796691417
1738772910333222000,0.725221923828125,-0.05615443342030048,-0.0036371052601840343,-0.006267828223109245
1738772910343213000,0.735213134765625,-0.06527823559641838,0.007019062148942612,-0.019002514372766018
1738772910353204000,0.745203857421875,-0.06261924552023411,0.002693193739885464,-0.014239830015599727
1738772910363195000,0.75519482421875,-0.05784487072527408,-0.012394919101544655,-0.00192015440762043
1738772910373185800,0.765185791015625,-0.059061845299601554,-0.004747600952466019,-0.013371522748470305
1738772910383177000,0.775177001953125,-0.06102174719572067,-0.011074753580801188,-0.015411504143476485
1738772910393169000,0.7851689453125,-0.060279988917708395,0.0016084078775951637,-0.007457622529566287
1738772910403160000,0.79516015625,-0.05996726970672607,0.005050935847172513,-0.014089900150895118
1738772910413151000,0.80515087890625,-0.06445932042896747,-0.004179792735562659,-0.01812134762406349
1738772910423142000,0.815141845703125,-0.06507014580368996,-0.007801316834124736,-0.008200257590413092
1738772910433132800,0.8251328125,-0.05280804560184479,-0.0089250099346973,-0.01236000761836767
1738772910443125000,0.835125,-0.04263035045862198,-0.007711921517620794,-0.024191022926568984
1738772910453116000,0.845115966796875,-0.05923311021327972,-0.008554190161195583,-0.013441957636177539
1738772910463106800,0.85510693359375,-0.06747779146730899,-0.0063468254431849344,-0.019973112970590592
1738772910473098000,0.865097900390625,-0.054146600729227064,-0.01280471004541032,-0.010444821646809578
1738772910483089000,0.8750888671875,-0.06251286253631115,-0.0021189192495774476,-0.010340776750445365
1738772910493079800,0.885079833984375,-0.07331307349205017,0.0002262419373495504,-0.019973405231535433
1738772910503072000,0.895072021484375,-0.05923953995406627,-0.004400002224347554,-0.009077624946832657
1738772910513063000,0.90506298828125,-0.0655342561841011,0.0022746167013654485,-0.009941256038844585
1738772910523053800,0.9150537109375,-0.07183949380815029,0.005646878746594302,-0.01734890194684267
1738772910533045000,0.925044921875,-0.060329088756442065,-0.012585948161617852,-0.013265724286437033
1738772910543036000,0.935035888671875,-0.04266074559688568,-0.008730460043554194,-0.01914046153873205
1738772910553028000,0.945028076171875,-0.054478609162569046,-0.0006830914599122479,-0.01182195521891117
1738772910563019000,0.95501904296875,-0.052094344374537464,-0.011893079659785144,-0.023159634052217007
1738772910573010000,0.965010009765625,-0.04652852694094181,0.005406585451005958,-0.01802373246848583
1738772910583000800,0.975000732421875,-0.07017769807577133,-0.009760113618546165,-0.01860036331266165
1738772910592992000,0.984991943359375,-0.0622357991605997,-0.0017442772509064525,-0.005919160915911197
1738772910602983000,0.99498291015625,-0.05879004262089729,-0.0024568870662478727,-0.01760550705641508
1738772910612974800,1.004974853515625,-0.06147592070400715,-0.003929909627721644,-0.01927811644375324
1738772910622966000,1.014966064453125,-0.06072481007575988,-0.007506270277150906,-0.006869885769486427
1738772910632957000,1.02495703125,-0.07360591895878314,-0.007940866868710145,-0.013710545444488525
1738772910642947800,1.03494775390625,-0.057301849889755244,-0.01353372300628107,-0.003959551280736923
1738772910652939000,1.04493896484375,-0.041893268355727195,0.010600103540066628,-0.027139643599092957
1738772910662930000,1.054929931640625,-0.029172318470478055,-0.017691007082513532,-0.015322656816244125
1738772910672921900,1.064921875,-0.06598199995160102,-0.005120731414062902,-0.013232698799669741
1738772910682913000,1.0749130859375,-0.04997136087119579,-0.005123261297866701,-0.018317746978998184
1738772910692904000,1.084904052734375,-0.045803719797730444,0.0016383098255144432,-0.016889467741549015
1738772910702894800,1.094894775390625,-0.05581891785562038,-0.00639322643475607,-0.012886954101920128
1738772910712886000,1.104885986328125,-0.06088380002975464,0.0014137894877931103,-0.01760813740491867
1738772910722878000,1.1148779296875,-0.0653816959708929,-0.0009614974093390628,-0.01607844361960888
1738772910732868900,1.124868896484375,-0.05534662416875362,-0.0076460166745586314,-0.015366495957970619
1738772910742860000,1.134860107421875,-0.060575172472000116,0.0059372810944914815,-0.02392711129337549
1738772910752851000,1.144850830078125,-0.06057108081877231,-0.00966072206441313,-0.01765519141703844
1738772910762841900,1.154841796875,-0.06656184566617011,0.000060950106731615954,-0.01404576874822378
1738772910772832800,1.164832763671875,-0.057718029475212096,-0.018080125131108796,-0.0030260698229074476
1738772910782825000,1.174824951171875,-0.07241349430382252,-0.01795772716072388,-0.01802723959982395
1738772910792815900,1.18481591796875,-0.03424129229784011,-0.012585811164299956,-0.018678981506824493
1738772910802807000,1.19480712890625,-0.05443652358651161,0.0021268239948200062,-0.013013503091037272
1738772910812798000,1.2047978515625,-0.06161562143564224,-0.0033580234573222694,-0.0223015559181571
1738772910822788900,1.214788818359375,-0.06506254701912403,-0.0038097264473093673,-0.01988806503564119
1738772910832779800,1.22477978515625,-0.0575999560534954,-0.008136193077987991,-0.006652151365578174
1738772910842772000,1.23477197265625,-0.06344809755980968,-0.00979111611158587,-0.016632278110086916
1738772910852763000,1.244762939453125,-0.06090659638345241,-0.01042055942181032,-0.018122808928787707
1738772910862754000,1.254754150390625,-0.06166647484004497,-0.0031433349604485556,-0.011646598652005196
1738772910872745000,1.264744873046875,-0.06167874979972839,0.006000158296828158,-0.008161971406638623
1738772910882735900,1.27473583984375,-0.07273556586503982,-0.006232994371745735,-0.017946867839992046
1738772910892728000,1.28472802734375,-0.07006371630728245,-0.014738879278651439,-0.008892623768746853
1738772910902719000,1.294718994140625,-0.055397477573156356,-0.0030837730932049452,-0.01742781240195036
1738772910912710000,1.3047099609375,-0.056742462441325185,-0.008746917988010682,-0.021025544632971287
1738772910922700800,1.31470068359375,-0.04822948563992977,-0.0015794831772102042,-0.017973463585972786
1738772910932692000,1.32469189453125,-0.05300386043488979,-0.010425514158140867,-0.008297872745990753
1738772910942683000,1.334682861328125,-0.07138707386553288,-0.011401213622768408,-0.0034381577551364896
1738772910952675000,1.344675048828125,-0.07421615981161594,-0.007081368529121391,-0.02025280669480562
1738772910962666000,1.354666015625,-0.05597732328772544,-0.013289041229942813,-0.02602817522585392
1738772910972657000,1.364656982421875,-0.049234278768301006,-0.0019421972760697826,-0.008403671208024025
1738772910982647800,1.374647705078125,-0.06569149257242679,-0.010726625129720195,-0.002280512152612209
1738772910992639000,1.384638916015625,-0.05837620112299919,0.001735650986456312,-0.02331716270148754
1738772911002631000,1.394630859375,-0.06137187580764293,-0.002215899650915526,-0.016726970656216145
1738772911012621800,1.404621826171875,-0.06600362726151943,0.00013714801494497806,-0.007622165441513061
1738772911022613000,1.414613037109375,-0.06210486625730991,-0.006210828205710277,-0.012591186025738716
1738772911032604000,1.42460400390625,-0.06808686327636242,-0.0016526580112753435,-0.022779987084865568
1738772911042594800,1.4345947265625,-0.06806874309778213,0.003951801799121313,-0.009678513449430465
1738772911052586000,1.4445859375,-0.04487491451501846,0.0034690278174355623,-0.03032587241977453
1738772911062578000,1.454577880859375,-0.04560732044279575,-0.010751709338626824,-0.024102175599336622
1738772911072568800,1.46456884765625,-0.06763210524618625,-0.017944479520083403,-0.019960253489017487
1738772911082560000,1.47456005859375,-0.05897007536292076,0.0005205076096113771,-0.021248247472941875
1738772911092550400,1.48455029296875,-0.04639584047198295,0.005019609127147123,-0.00824701934158802
1738772911102541600,1.49454150390625,-0.06166296770870685,0.00023214652175083754,-0.02514145551919937
1738772911112532500,1.504532470703125,-0.058258712223172186,-0.012320150532014667,-0.014981296032667159
1738772911122524400,1.5145244140625,-0.05750701707303524,-0.002510128790559247,-0.0218789465919137
1738772911132515300,1.524515380859375,-0.05600479581654071,-0.014214965002401731,-0.00708411304205656
1738772911142506200,1.53450634765625,-0.061089551734924315,0.007468714745738543,-0.012181728442013264
1738772911152497400,1.544497314453125,-0.04446574919223785,0.00899612980899401,-0.027346856608986853
1738772911162488600,1.554488525390625,-0.06737842274606227,-0.004062134872376918,-0.0048363341152668
1738772911172480300,1.564480224609375,-0.06679916155338286,-0.0018237128623994066,-0.008209609940648078
1738772911182471400,1.574471435546875,-0.057063949480652805,0.008096568887075408,-0.023354864363372325
1738772911192462300,1.58446240234375,-0.06199848327338695,-0.01402689051781781,-0.01962590696811676
1738772911202453200,1.594453369140625,-0.07773498158752917,-0.009092050764407032,-0.024026187753677368
1738772911212444400,1.6044443359375,-0.061143912270665166,0.00040468094390816987,-0.017528057906031607
1738772911222435600,1.614435546875,-0.05634674112200737,0.0017923359100241213,-0.013669628912210463
1738772911232427300,1.62442724609375,-0.06698094786107539,0.003288853511516936,-0.025154607261717317
1738772911242418400,1.63441845703125,-0.06175882929861545,0.007173549457755871,-0.0249506091222167
1738772911252409300,1.644409423828125,-0.05352759204804897,0.0009203434150433168,-0.020316227319836615
1738772911262400500,1.654400390625,-0.06359715064167976,0.007927970854518934,-0.017764789271354674
1738772911272391700,1.6643916015625,-0.046696284723281856,-0.002230220437212847,-0.012948913422226906
1738772911282382600,1.674382568359375,-0.06075111356079578,-0.010309755991096608,-0.014035539615154266
1738772911292374300,1.684374267578125,-0.06572481032013892,-0.0035855988352326675,-0.00986702175885439
1738772911302365400,1.694365478515625,-0.03655249184966087,-0.020864362721890208,-0.012685294049978256
1738772911312356400,1.7043564453125,-0.06540683041214942,-0.005436021608044393,-0.012477204257249831
1738772911322347500,1.714347412109375,-0.08591594995558262,-0.0009534374004695564,-0.01768470977246761
1738772911332338400,1.72433837890625,-0.06575169832706451,0.005030276651633903,-0.010220657502114773
1738772911342330400,1.734330322265625,-0.042720951351523394,0.0028608967232983556,-0.021243571297824382
1738772911352321300,1.7443212890625,-0.05020107797384262,0.0025470724006183445,-0.025589199286699293
1738772911362312400,1.7543125,-0.07042611987888812,-0.008522087123035453,-0.020415011519193647
1738772911372303400,1.764303466796875,-0.06327098742723465,0.004012304381281137,-0.025405659413337705
1738772911382294500,1.77429443359375,-0.053559740751981735,-0.0016647868404863402,-0.007245441083610057
1738772911392285400,1.784285400390625,-0.07242635378539562,-0.0071588679118547585,-0.028151450990140436
1738772911402277400,1.79427734375,-0.058656771630048746,-0.006043120655720122,-0.024120003516972063
1738772911412268300,1.804268310546875,-0.05685469064414501,0.0021738369077444076,-0.012321136912703513
1738772911422259500,1.814259521484375,-0.06731763246953487,0.0031742095893248913,-0.013260755850374699
1738772911432250600,1.824250732421875,-0.050420858204364774,-0.00018005557490978388,-0.020846096412837505
1738772911442241500,1.834241455078125,-0.05713701471686363,0.0035996319271624088,-0.019563655386865136
1738772911452232400,1.844232421875,-0.0489426023453474,0.006630761517677455,-0.012403262238204479
1738772911462224400,1.854224365234375,-0.060763388520479196,-0.008504697596817276,-0.01584668069034815
1738772911472215300,1.86421533203125,-0.05177168829143047,-0.0055434640378924085,-0.004970481888949871
1738772911482206500,1.87420654296875,-0.07168751811683177,0.007781306092557497,-0.003574351355433464
1738772911492197600,1.88419775390625,-0.06719897452592849,-0.0022884260310092937,-0.007611059525609016
1738772911502188500,1.8941884765625,-0.061684595018625256,-0.003985411807778291,-0.006634615708887577
1738772911512180200,1.90418017578125,-0.06005611703395843,0.0002892744033131748,-0.01600040994733572
1738772911522171400,1.91417138671875,-0.051364861056208605,0.0004038178608054295,-0.0015288170024752616
1738772911532162300,1.924162353515625,-0.06826046627759932,-0.007973600094532594,-0.007711012768745422
1738772911542153500,1.934153564453125,-0.068710548132658,-0.01005732473314274,-0.01877981153279543
1738772911552144600,1.94414453125,-0.03832359317541122,0.0018069352575344963,-0.003555646654963493
1738772911562135600,1.954135498046875,-0.06805413005053997,-0.0006411702806362882,-0.02018237180709839
1738772911572127200,1.964127197265625,-0.06402794327437877,0.00710235651822295,-0.023724282197654246
1738772911582118400,1.974118408203125,-0.05563771606981754,-0.0021241662468528375,-0.005504150374233722
1738772911592109600,1.984109619140625,-0.045130935102701185,-0.006423521108319983,-0.008461538875102996
1738772911602100500,1.9941005859375,-0.06440905154645443,0.00031151820116210726,-0.021120237179100512
1738772911612091600,2.004091552734375,-0.07564063965678215,0.0025257693176856263,-0.008518529759347438
1738772911622082600,2.01408251953125,-0.0668196198195219,-0.010832962447870522,-0.02061141087412834
1738772911632074200,2.02407421875,-0.050941082686185836,0.006883042078581638,-0.010794073475897312
1738772911642065400,2.0340654296875,-0.05827040266096591,0.002448603295092471,-0.0018257541224360465
1738772911652056600,2.044056640625,-0.06171966633200645,0.001412798540527001,-0.011974223171174525
1738772911662047500,2.054047607421875,-0.05467559303939342,-0.0007463157221209258,-0.013657646213471888
1738772911672038700,2.06403857421875,-0.051067339414358134,0.010140066546574235,-0.01341886902153492
1738772911682029600,2.074029541015625,-0.04371054691076279,0.0034042965847300363,-0.01634761594980955
1738772911692021200,2.084021240234375,-0.06346095704138278,-0.0051134796893689775,-0.019643150363862515
1738772911702012400,2.094012451171875,-0.06528641890287398,-0.00294683057423681,-0.008013795107603073
1738772911712003600,2.104003662109375,-0.04358253661692142,0.006669499792600981,-0.007136427751183509
1738772911721994500,2.113994384765625,-0.045835868501663206,-0.0006827444000402465,-0.004261164575815201
1738772911731985400,2.1239853515625,-0.08039397166371345,0.0003115501672029495,-0.023293781825900077
1738772911741977300,2.133977294921875,-0.0711158557087183,0.0031557149514090267,-0.014468378074467181
1738772911751968300,2.14396826171875,-0.05062193373441696,-0.0009360935400240123,-0.0048699441239237785
1738772911761959700,2.153959716796875,-0.07128361349105834,0.002854412183584645,-0.00976239234060049
1738772911771950600,2.16395068359375,-0.0663747986614704,-0.007018719655647873,-0.013098258765041827
1738772911781941500,2.17394140625,-0.05500643242895603,-0.0012294869960285722,-0.015478139638900755
1738772911791932400,2.183932373046875,-0.055150809335708616,0.010439848644169978,-0.007415829214453697
1738772911801924400,2.19392431640625,-0.07251637015640736,-0.0017915595918893813,-0.015919161404669285
1738772911811915500,2.20391552734375,-0.06055296064019203,0.001840079475310631,-0.02921060465425253
1738772911821906400,2.213906494140625,-0.06129354987442493,0.006420767462230287,-0.0009556932896375655
1738772911831897600,2.223897705078125,-0.04901157592833042,-0.01744512429635506,-0.02224456503391266
1738772911841888500,2.233888427734375,-0.0563321280747652,-0.01110899834369775,-0.011360182926058768
1738772911851879400,2.24387939453125,-0.0676999097853899,-0.012121079729381017,-0.011975099954009055
1738772911861871400,2.253871337890625,-0.05979892740249634,-0.004348240071069449,-0.015161036513745783
1738772911871862500,2.263862548828125,-0.058600657528638835,-0.000635133265494369,0.0036889176458120344
1738772911881853400,2.273853515625,-0.06339432154595852,0.001349907638458535,0.00041530280262231826
1738772911891844600,2.2838447265625,-0.06550035391449928,-0.006251233281334862,-0.014359657002985476
1738772911901835500,2.29383544921875,-0.05098433730602264,-0.015512142373202368,-0.00807926155924797
1738772911911827500,2.303827392578125,-0.061764674517512316,0.000886007320601493,-0.019131109188497065
1738772911921818400,2.313818359375,-0.049776715081930156,0.00022734704904723912,-0.019491174672544
1738772911931809500,2.3238095703125,-0.06593173106908798,-0.0018691868387861177,-0.015773030932247637
1738772911941800400,2.333800537109375,-0.07133622046113014,-0.006530210052919574,-0.01989946321249008
1738772911951791600,2.34379150390625,-0.0589157148271799,-0.0071443187966942785,-0.02124678616821766
1738772911961782500,2.353782470703125,-0.057098436272144316,0.004068514380813576,-0.0036672903358936308
1738772911971774500,2.3637744140625,-0.06456687245666981,-0.01115135334781371,-0.008205226026475429
1738772911981765600,2.373765625,-0.0648895285397768,-0.009001271774992346,-0.015601473757624626
1738772911991756500,2.383756591796875,-0.0453045381039381,-0.011246082426561043,-0.009405833987891674
1738772912001747500,2.39374755859375,-0.056684010252356525,-0.0030079542109044265,-0.010277063864469528
1738772912011738600,2.403738525390625,-0.06101473293304443,-0.008232588957436383,-0.015095862323045729
1738772912021730300,2.413730224609375,-0.06671908205449581,-0.003917401772597804,-0.025206921970844266
1738772912031721500,2.423721435546875,-0.05370645574629306,-0.004234198937076144,-0.008427636605501174
1738772912041712600,2.433712646484375,-0.050399815416336056,-0.009811880338401533,-0.020150807625055313
1738772912051703600,2.44370361328125,-0.06473170762956142,0.0034017393014626578,-0.017874971647560595
1738772912061694500,2.453694580078125,-0.06787234374284744,-0.006633314234367572,-0.02027472626566887
1738772912071685600,2.463685546875,-0.07222469373345375,0.009729389686719514,-0.020230010341107843
1738772912081677300,2.47367724609375,-0.07239712769091129,-0.010946551490714773,-0.02149403892755508
1738772912091668500,2.48366845703125,-0.061030515024065965,-0.0145416670729639,-0.01713350563049316
1738772912101659600,2.49365966796875,-0.048290275916457175,-0.004363798399805091,0.0004492050722241401
1738772912111650800,2.50365087890625,-0.07417758136689663,-0.0016285145172849297,-0.01197276186645031
1738772912121641700,2.513641845703125,-0.07132686811089516,-0.008021234061964788,-0.012148702955245972
1738772912131633700,2.523633544921875,-0.05231821625828743,0.0011372786679305134,-0.010070143115520477
1738772912141624600,2.53362451171875,-0.06637304509580134,0.0054665948428213595,-0.017442717710137366
1738772912151615700,2.54361572265625,-0.07281564536392689,-0.012494730780785902,-0.019657471150159835
1738772912161607000,2.55360693359375,-0.06174421625137329,-0.003938421727740206,-0.013518530003726482
1738772912171597800,2.563597900390625,-0.042731472745537756,0.0044364115448668594,-0.012650514997541903
1738772912181589500,2.573589599609375,-0.053632221466302865,-0.0034198503468884154,-0.01647358041703701
1738772912191580700,2.58358056640625,-0.09389818088114261,-0.025834447318618184,0.006402560518682003
1738772912201571600,2.593571533203125,-0.24710370625555514,0.10966992403860203,-0.17029256151467562
1738772912211562800,2.603562744140625,0.19984686504006385,-0.1387379692838527,0.08386749299317597
1738772912221554000,2.613553955078125,-0.13775778087377546,0.02708068908662535,-0.05252162987589836
1738772912231545600,2.623545654296875,-0.0322638547450304,-0.008446021645562723,-0.00852671306580305
1738772912241536500,2.63353662109375,-0.04802841010987759,0.015215908506140113,0.0013555062621831893
1738772912251527700,2.643527587890625,-0.06339139893651008,0.005883290451508947,-0.0016229250267148017
1738772912261518600,2.6535185546875,-0.08491934013366699,-0.029550166206387802,0.02848842785954475
1738772912271509800,2.663509765625,-0.04419394651353359,-0.006136356463702395,-0.037412908071279526
1738772912281500700,2.673500732421875,-0.09530921672284602,-0.012855846577603369,-0.006465981143712997
1738772912291492600,2.68349267578125,-0.055823009508848186,-0.010421354006254114,-0.04519815512001514
1738772912301483500,2.6934833984375,-0.05003448923528194,-0.006672563965944573,0.02450608022511005
1738772912311474700,2.703474609375,-0.05046177473664284,0.0023553035550285127,-0.047884617725014685
1738772912321465900,2.7134658203125,-0.08220131334662437,-0.005647239506198093,0.009076748163998127
1738772912331456800,2.723456787109375,-0.03496200778782368,-0.00565741384034045,-0.05843582235574722
1738772912341448700,2.73344873046875,-0.05167641122341156,0.004582962142396718,-0.009979542222619056
1738772912351439600,2.743439697265625,-0.06956219652593136,-0.016094600169965997,-0.0334270533055067
1738772912361430500,2.753430419921875,-0.06915010859370231,0.00107276663093362,-0.02042582517415285
1738772912371421700,2.763421630859375,-0.0579050764799118,-0.013002967997291125,-0.012426058591902255
1738772912381412900,2.773412841796875,-0.06237140823900699,-0.011092344036418945,-0.010411503899097441
1738772912391403800,2.78340380859375,-0.051589901983737946,-0.0022889009550446644,-0.0264493232473731
1738772912401395700,2.793395751953125,-0.06356967811286449,-0.011114884661789982,-0.026267244678735733
1738772912411386600,2.80338671875,-0.06343114642500877,-0.004867774999723769,-0.013809914165735244
1738772912421377500,2.81337744140625,-0.05638064339160919,-0.0051954999835928896,-0.011630524300038815
1738772912431368700,2.82336865234375,-0.07566577409803867,-0.007335653817444108,-0.017232582090795038
1738772912441360000,2.83335986328125,-0.07928338007330894,0.003454597433283925,-0.006814356189966201
1738772912451351600,2.8433515625,-0.04007949693202972,-0.0010718807149445637,-0.012496785740554331
1738772912461342700,2.8533427734375,-0.04887888945937156,0.00011190397583413869,-0.02427227146923542
1738772912471333600,2.863333740234375,-0.05877718313932419,-0.008413763343775645,-0.018506255288422105
1738772912481324800,2.87332470703125,-0.05713292306363582,-0.015871933862613513,-0.005782090532779693
1738772912491315700,2.883315673828125,-0.03779343182146549,0.005733059192704968,-0.008904606467485428
1738772912501307600,2.8933076171875,-0.06486673218607902,-0.008648403216712177,-0.015078618927299975
1738772912511298600,2.903298583984375,-0.06682429599463939,-0.02204268121968489,-0.013540157313644885
1738772912521289500,2.91328955078125,-0.05084171396493911,-0.009968313009128905,-0.024809154824912548
1738772912531280600,2.92328076171875,-0.047104281002283095,0.006767000783747062,-0.019857962158322334
1738772912541271800,2.933271728515625,-0.0569552284091711,0.0015029838748974724,0.0018988193586468695
1738772912551263700,2.943263671875,-0.05828676927387714,0.002479413991887122,-0.01820639555901289
1738772912561254700,2.953254638671875,-0.054522448304295534,-0.00290016472118441,-0.016197101563215254
1738772912571245600,2.96324560546875,-0.05929740762114524,-0.009916144430474378,-0.0023287352085113525
1738772912581236500,2.973236572265625,-0.059145431929826735,-0.009582660992676392,-0.017002280466258526
1738772912591227600,2.9832275390625,-0.05735270329415798,-0.00039324623444117604,-0.026719664621353147
1738772912601218800,2.99321875,-0.06992927627265452,-0.002072700921096839,-0.021608605217933653
1738772912611210500,3.00321044921875,-0.06903788039088249,0.003319002054608427,-0.01949205145537853
1738772912621201700,3.01320166015625,-0.05494856476187706,-0.007275575926969759,-0.022267653648555277
1738772912631192600,3.023192626953125,-0.05029635504186153,-0.00040401879020500925,-0.010195523060858249
1738772912641183500,3.03318359375,-0.06180383748412132,-0.012348741872259416,-0.010995149005949497
1738772912651174700,3.043174560546875,-0.07170096212029457,-0.015273145985556765,-0.019901801300048826
1738772912661166600,3.05316650390625,-0.055228550747036934,-0.010348530798638239,-0.011267828467488288
1738772912671157500,3.063157470703125,-0.061489364707469935,-0.00894243599353358,-0.023772797514498234
1738772912681148700,3.073148681640625,-0.05162088164389133,-0.005313778901286423,-0.03093114483654499
1738772912691139600,3.0831396484375,-0.059550505599379536,-0.0049966575098223985,-0.016270166799426077
1738772912701130800,3.093130859375,-0.05010755447149277,-0.0017228828364284708,-0.013034838140010833
1738772912711122700,3.103122802734375,-0.05891805291473865,-0.004277147596236318,-0.007712474073469639
1738772912721113600,3.113113525390625,-0.07702771010100841,-0.012941364870010874,-0.02475713237673044
1738772912731104500,3.1231044921875,-0.06522738219201564,-0.009916614787932486,-0.024234862068295476
1738772912741095700,3.133095703125,-0.06701192752122878,-0.006610294118383899,-0.013350772221386432
1738772912751086600,3.143086669921875,-0.061923079949617384,0.0008998440497089177,-0.01859188774526119
1738772912761077800,3.153077880859375,-0.06385200218558311,0.013473795812856406,-0.02179477543979883
1738772912771069700,3.163069580078125,-0.05457154814302921,0.00883397978353314,-0.026294132685661314
1738772912781060600,3.173060546875,-0.05652034412324428,0.000028271679836325345,-0.0062307110831141465
1738772912791051500,3.183051513671875,-0.0653384413510561,-0.006524647961813025,-0.012554068885743617
1738772912801042700,3.193042724609375,-0.053662616604566574,-0.0029168235950404776,-0.02124590938538313
1738772912811033600,3.20303369140625,-0.05681202054619789,-0.010241357796848751,-0.017929916705191135
1738772912821025500,3.213025634765625,-0.03376841408908367,-0.0017119230509968473,-0.0198725752055645
1738772912831016700,3.2230166015625,-0.0590203442454338,0.007132021004124544,-0.009829612357914448
1738772912841007600,3.233007568359375,-0.07683715596497058,-0.007748773796134628,-0.011442308251559733
1738772912850998500,3.24299853515625,-0.05439677609801292,-0.0016932959823403506,-0.020852526153624058
1738772912860989700,3.25298974609375,-0.0514046085447073,-0.005457114628423005,-0.016960487151145932
1738772912870980900,3.26298095703125,-0.06665712273418903,-0.004831680773035623,-0.021637831312417984
1738772912880972500,3.27297265625,-0.05408464140892028,-0.012639372549019753,-0.02104980229139328
1738772912890963700,3.282963623046875,-0.051374213406443596,0.00025269155285786836,-0.020063421602547166
1738772912900954600,3.29295458984375,-0.07156944469511509,0.0033937340915203094,-0.001827215427160263
1738772912910945500,3.302945556640625,-0.04521569077670574,-0.010137422498338855,-0.017151625809073447
1738772912920936700,3.312936767578125,-0.04851180971264839,0.0015099524718010797,-0.026413375151157378
1738772912930928600,3.3229287109375,-0.05568564686477184,-0.004114239518949762,-0.024050737673044203
1738772912940919600,3.33291943359375,-0.058979427713155744,-0.0043752924747765065,-0.022848083885014057
1738772912950910700,3.34291064453125,-0.046402270212769506,-0.009282965660048648,-0.03245323983728885
1738772912960901600,3.352901611328125,-0.05970072772502899,-0.002000982825178653,-0.028928865103423594
1738772912970892500,3.362892578125,-0.05163315660357475,-0.005744082910218276,-0.016463935805857182
1738772912980883700,3.3728837890625,-0.06226794786453247,0.0031962022254243493,-0.014479483990371226
1738772912990875600,3.382875732421875,-0.06600304273962974,0.00011545220636762678,-0.005820961238443851
1738772913000866600,3.392866455078125,-0.04640168569087982,-0.0031981110547203567,-0.011055647021532057
1738772913010857500,3.402857421875,-0.054767947497963904,-0.011429914560867473,-0.020081541781127452
1738772913020848600,3.4128486328125,-0.05178980847001075,-0.00815095682227984,-0.00940729529261589
1738772913030839800,3.42283984375,-0.05986322481036186,-0.012963453404232859,-0.014219956271350384
1738772913040831700,3.432831787109375,-0.06915361572504043,-0.002617301792348735,-0.033927111782133576
1738772913050822700,3.44282275390625,-0.06078209322094917,-0.001483717485424131,-0.024468086302280423
1738772913060813600,3.4528134765625,-0.055229135268926616,-0.0009757953627500683,-0.018091537007689475
1738772913070804500,3.462804443359375,-0.05221534040570259,-0.0025691061359131707,-0.017719488824903963
1738772913080795600,3.472795654296875,-0.06285305427610874,-0.004163357623992487,-0.006748305216431617
1738772913090786800,3.482786865234375,-0.05913140340447425,-0.0013247092651203275,-0.01565758785903454
1738772913100778500,3.492778564453125,-0.05375146393179893,-0.011362589512276462,-0.0159314363643527
1738772913110769700,3.502769775390625,-0.06032382805943489,-0.00738101362939924,-0.0034060090512037277
1738772913120760600,3.512760498046875,-0.07216741058826447,0.005197121118521318,-0.008564414727687835
1738772913130751500,3.52275146484375,-0.06439385397732257,-0.0028429546412313354,-0.013474690861999988
1738772913140742700,3.53274267578125,-0.07006722343862057,-0.0030200510740745813,-0.0018494272589683531
1738772913150734600,3.542734619140625,-0.07111702475249766,0.005587883134931326,-0.01590659418404102
1738772913160725500,3.5527255859375,-0.060035658767819404,0.003113241216284223,-0.01159632976949215
1738772913170716700,3.562716552734375,-0.06004851824939251,-0.002995747749879956,-0.007360299634933471
1738772913180707600,3.57270751953125,-0.04775719195306301,-0.0051998108325293285,-0.010579846203327178
1738772913190698500,3.582698486328125,-0.055367082434892655,-0.0032257160142762586,-0.017240180875360965
1738772913200690700,3.592690673828125,-0.07093640748858451,0.0021883860229048877,-0.02230272496193647
1738772913210681600,3.602681640625,-0.05522036744058132,-0.0007988815929973498,-0.026955519203841684
1738772913220672500,3.612672607421875,-0.07059680027067661,-0.005132522316556424,-0.01646042867451906
1738772913230663700,3.62266357421875,-0.06535889961719513,-0.002067732485034503,-0.017961773148179053
1738772913240654600,3.632654541015625,-0.06838029326498508,-0.011145777556975371,-0.013369476921856402
1738772913250645800,3.642645751953125,-0.07060965975224971,0.006236327973147854,-0.014022680133581161
1738772913260637700,3.6526376953125,-0.05292611902356147,0.007489419607049785,-0.012621288903057575
1738772913270628600,3.662628662109375,-0.06055822133719921,-0.010794484467850998,-0.024591128160059452
1738772913280619500,3.67261962890625,-0.06042553486824035,0.0062652435403782875,-0.00956540846377611
1738772913290610700,3.682610595703125,-0.047561377120018004,-0.000596595919970423,-0.01089694932848215
1738772913300601600,3.6926015625,-0.061334466406702995,0.00028503661961294706,-0.01566051046848297
1738772913310593500,3.702593505859375,-0.06521919888556003,0.0010745704289525746,-0.02226619234383106
1738772913320584700,3.712584716796875,-0.066118193551898,-0.0015329086557030677,-0.020616379310190676
1738772913330575600,3.72257568359375,-0.06029401744306087,-0.009836284127295949,-0.008749415905773638
1738772913340566500,3.73256640625,-0.05910217730998993,-0.011269792095711453,-0.006336801806092262
1738772913350557700,3.7425576171875,-0.06269581788778304,0.0006968596903607248,-0.021440262913703916
1738772913360549600,3.752549560546875,-0.06210428173542022,-0.00672530793333426,-0.0254582663834095
1738772913370540500,3.76254052734375,-0.05360124180614948,-0.002490533607522957,-0.031499592374265195
1738772913380531700,3.77253173828125,-0.052096097940206525,-0.0020637869622791185,-0.022253040601313112
1738772913390522600,3.782522705078125,-0.05085808057785034,-0.002212205289909616,-0.01611322267204523
1738772913400513500,3.792513427734375,-0.07015314815640449,-0.00320229860607069,-0.02467354574650526
1738772913410504700,3.802504638671875,-0.05623918909430504,-0.005194586668140254,-0.015391338138282298
1738772913420496600,3.81249658203125,-0.059065352430939674,-0.005401466317893937,-0.018142098151147364
1738772913430487600,3.822487548828125,-0.06472060171365737,-0.003101970903598703,-0.016008008731901644
1738772913440478700,3.832478759765625,-0.06427636507749557,0.0030966508410871026,-0.01674099918156862
1738772913450469600,3.8424697265625,-0.06172960320413112,0.009123815875849687,-0.02228811191469431
1738772913460460500,3.85246044921875,-0.06351064140200614,-0.013454963248223066,-0.016655366724729538
1738772913470452700,3.86245263671875,-0.06112345400452614,-0.013623757643601856,-0.021266659912467
1738772913480443600,3.872443603515625,-0.053937341892719266,0.005440843913634307,-0.027115970462560653
1738772913490434600,3.8824345703125,-0.057066287568211554,-0.008146970200329087,-0.01145429095029831
1738772913500425700,3.89242578125,-0.05198153164982795,-0.008850574725307524,-0.013388766144216059
1738772913510416600,3.902416748046875,-0.062331076228618616,-0.0020550465333973988,-0.02332593052983284
1738772913520407600,3.912407470703125,-0.05815174471735954,-0.01985974312345497,-0.026130758817493913
1738772913530399700,3.922399658203125,-0.04603109881281853,-0.008296379475225693,-0.010418225900828838
1738772913540390700,3.932390625,-0.07355506555438042,-0.009814583752141334,-0.0050660512179136275
1738772913550381600,3.942381591796875,-0.061142158704996105,0.005823440889897756,-0.0271878666549921
1738772913562245600,3.95424560546875,-0.05666472102999687,0.0034729322409955783,-0.02939297548383474
1738772913572236800,3.96423681640625,-0.06862637698054314,-0.0024755141349043696,-0.01416384216994047
1738772913582228700,3.974228759765625,-0.06638415101170539,-0.017884209833364,-0.023133622828125953
1738772913592219600,3.9842197265625,-0.060547115421295164,0.000460977708408609,-0.028074294100701808
1738772913602210800,3.9942109375,-0.05453881491720676,-0.0011583442888455464,-0.015437223106622695
1738772913612201700,4.00420166015625,-0.0563321280747652,-0.011658005962008609,-0.026368951487541196
1738772913622192600,4.014192626953125,-0.054065936708450314,-0.002929984470712952,-0.015520517475903033
1738772913632184800,4.024184814453125,-0.06425298420190811,-0.008266399895492941,-0.014130816683173179
1738772913642175700,4.03417578125,-0.06681786625385285,-0.0029354552302742376,-0.006123159055411815
1738772913652166700,4.044166748046875,-0.050506198400259016,-0.0002889273434411734,-0.016003624817728997
1738772913662157800,4.05415771484375,-0.04333177672624588,-0.0001004281671717763,-0.017620996886491776
1738772913672148700,4.064148681640625,-0.04768646480441093,-0.002675877278903499,-0.013225684536993503
1738772913682139600,4.0741396484375,-0.04695873505175113,-0.01058959584578406,-0.0314078224375844
1738772913692131800,4.0841318359375,-0.059552259165048596,-0.003897231200826354,-0.008728080856800078
1738772913702122800,4.094122802734375,-0.056553661870956416,-0.0010431797768454998,-0.010992810918390751
1738772913712113700,4.10411376953125,-0.05357143118977546,0.009542625809810124,-0.015744389359652996
1738772913722104800,4.114104736328125,-0.07467384045124054,-0.003638237771345302,-0.005555296039581299
1738772913732095700,4.124095703125,-0.07094049914181232,-0.0030342394296312704,-0.009867314019799232
1738772913742087700,4.134087646484375,-0.07619535093009472,-0.010383296151342801,-0.0020215689554810524
1738772913752078800,4.144078857421875,-0.06080430505275726,0.003563049076707102,-0.013469137904047966
1738772913762069800,4.15406982421875,-0.05515782359838486,0.0023890140283852816,-0.02440028176307678
1738772913772060700,4.164060791015625,-0.07684884640276432,0.00008999353812541812,-0.022175883711874483
1738772913782051800,4.1740517578125,-0.08027940537333488,0.00200552200297825,-0.010695289276540279
1738772913792042800,4.184042724609375,-0.07010171023011207,-0.006527150446153245,-0.01773673222064972
1738772913802034700,4.19403466796875,-0.04435293646752834,-0.005392351429676636,-0.014032909266650675
1738772913812025900,4.20402587890625,-0.06109773504137993,-0.0007960046493215486,-0.017974924890697002
1738772913822016800,4.214016845703125,-0.06319558410346508,0.0032475807862123473,-0.026793898901343344
1738772913832007700,4.224007568359375,-0.05914426288604736,-0.007221302156196907,-0.01396481246650219
1738772913841998600,4.23399853515625,-0.05451718760728836,-0.0061667561685433605,-0.009883388371765613
1738772913851990800,4.24399072265625,-0.07278408118188381,-0.010717638105666264,-0.01238660336434841
1738772913861981700,4.253981689453125,-0.05529635528624057,0.002108210625895299,-0.015905132879316806
1738772913871972900,4.263972900390625,-0.04314648328721523,0.002931240279460326,-0.009425415471196174
1738772913881963800,4.2739638671875,-0.07572714889645576,-0.007021199307101779,-0.009717676416039467
1738772913891954700,4.28395458984375,-0.06615151129961014,-0.01377345004628878,-0.020934651479125023
1738772913902570800,4.29457080078125,-0.04773731820881366,0.0059545244902372355,-0.0055532502129673955
1738772913912561700,4.304561767578125,-0.0641530309587717,-0.008695973252062686,-0.008706453546881675
1738772913922553900,4.314553955078125,-0.061929509690403936,-0.008460346998437307,-0.02030219879448414
1738772913932544800,4.324544677734375,-0.05996668518483638,-0.007083259092108346,-0.017671850290894506
1738772913942535700,4.33453564453125,-0.05680208367407322,-0.00048374209606554355,-0.02463438277989626
1738772913952526800,4.34452685546875,-0.07834171530902385,-0.007965206725522875,-0.035436347301304336
1738772913962517800,4.354517822265625,-0.06530863073468209,0.009763986076065339,-0.013043313707411288
1738772913972509700,4.364509765625,-0.06483984417915344,0.011279025714937597,-0.004584112919867039
1738772913982500900,4.3745009765625,-0.06137596746087074,-0.003075950546353124,-0.020974983489513398
1738772913992491800,4.38449169921875,-0.05986088672280311,-0.005890090085053816,-0.011467150431871414
1738772914002482700,4.394482666015625,-0.05912906531691551,-0.008456132047623395,-0.016346154645085334
1738772914012473600,4.4044736328125,-0.06183598618805408,0.0104153535237303,-0.011504559832811356
1738772914022465800,4.4144658203125,-0.06707154875397682,-0.00415338421924971,-0.008218962290883064
1738772914032456700,4.424456787109375,-0.05672668035030365,-0.005665542347868904,-0.019813538494706153
1738772914042448000,4.43444775390625,-0.06914835502803325,-0.0067634388534817845,-0.012023323009908198
1738772914052438800,4.444438720703125,-0.055852820125222205,0.002916837294772267,-0.008052958074212075
1738772914062429700,4.4544296875,-0.04251929129958153,-0.0026646754648769273,-0.014096037630736828
1738772914072422000,4.464421875,-0.06630640960037708,0.0024060747610405086,-0.01740413926541805
1738772914082412800,4.474412841796875,-0.05958908404409885,-0.008958756940672174,-0.023929449380934237
1738772914092404200,4.484404296875,-0.06453297018706798,0.0022119312952738252,-0.009993863008916377
1738772914102395400,4.4943955078125,-0.056610945016145706,-0.008015589772467501,-0.023877426932752133
1738772914112386300,4.50438623046875,-0.06079729079008102,-0.004829685178771615,-0.01760463027358055
1738772914122377200,4.514377197265625,-0.08025427093207836,-0.0052723646120866755,-0.010108721560239791
1738772914132369200,4.524369140625,-0.05286182161569595,0.0006868680193088949,-0.027496786473691463
1738772914142360300,4.5343603515625,-0.05032265852689743,-0.004705209415731952,-0.016555998003482817
1738772914152351200,4.544351318359375,-0.059146600973606106,-0.007430647757672704,-0.010288169780373573
1738772914162342400,4.55434228515625,-0.06005494799017906,0.0002969964854652062,-0.011895020455121993
1738772914172333300,4.564333251953125,-0.05599895059764385,-0.006715503491950221,-0.01165244387090206
1738772914182325200,4.5743251953125,-0.07620411875844,-0.004594574948376976,-0.010591244380176067
1738772914192316400,4.58431640625,-0.0705184743374586,-0.002075883825449273,-0.02480506317168474
1738772914202307300,4.594307373046875,-0.06542261250317097,-0.01327273398253601,-0.014658639949560164
1738772914212298200,4.60429833984375,-0.0709714788019657,0.0026879604423418637,-0.008328560145199298
1738772914222289400,4.614289306640625,-0.06919277869164943,0.007921700943936594,-0.0058753217741847035
1738772914232281000,4.624281005859375,-0.06695990507304668,-0.014082977219764143,-0.009724690678715705
1738772914242272300,4.634272216796875,-0.054226095706224435,-0.006103664337075315,-0.019652210453152654
1738772914252263400,4.644263427734375,-0.0606716185837984,-0.009765493046562186,-0.024252982246875762
1738772914262254300,4.65425439453125,-0.059327802759408944,0.0059027577703818675,-0.011672609876096248
1738772914272245200,4.664245361328125,-0.058707040512561794,-0.010355239100637846,-0.011153846698999404
1738772914282237200,4.6742373046875,-0.057177346727252006,-0.0021042468368308617,-0.000950140331685543
1738772914292228000,4.68422802734375,-0.06419745462238788,-0.002320182009297423,-0.026283319030702114
1738772914302219300,4.69421923828125,-0.0659960284769535,-0.004485799077968113,-0.007567804905772209
1738772914312210400,4.70421044921875,-0.041410453274846076,0.0011327942890580743,0.005438391661643982
1738772914322201300,4.714201416015625,-0.06816752729713917,-0.00562209136520978,-0.024886311714351177
1738772914332193000,4.724193115234375,-0.06772913587987422,-0.003271304155094549,-0.02440028176307678
1738772914342184200,4.73418408203125,-0.04946867204606533,-0.014382873481791465,-0.008104688261449337
1738772914352175400,4.74417529296875,-0.06291267550885676,-0.008604495576326735,-0.024800971518456935
1738772914362166300,4.754166259765625,-0.06559270837306976,0.003077818276453763,-0.020808979272842407
1738772914372157400,4.764157470703125,-0.06800795282125473,-0.004283924396894872,-0.02477408351153135
1738772914382149000,4.774149169921875,-0.045996612021327016,-0.010684895746689288,-0.028267770846188065
1738772914392140000,4.78414013671875,-0.046724341773986815,-0.019754150157398544,-0.016970424023270606
1738772914402131200,4.794131103515625,-0.07394494165480137,-0.013422348753409459,-0.016420681186020372
1738772914412122400,4.804122314453125,-0.07200549802482127,-0.005964812988811173,-0.009514262798428534
1738772914422113300,4.81411328125,-0.058682490593194955,0.000462840871931985,-0.009682897363603114
1738772914432104400,4.8241044921875,-0.07003215212523937,-0.017088734907004983,-0.011260229682922363
1738772914442096000,4.83409619140625,-0.06044482409060001,-0.001603311577369459,-0.027757190975546835
1738772914452087000,4.844087158203125,-0.07046703641116618,0.003342743689799681,-0.027769465935230254
1738772914462078200,4.854078125,-0.07285656189620494,-0.023442478714743628,-0.024943887120485304
1738772914472069400,4.8640693359375,-0.056095396709442136,-0.009364273568219506,-0.024053368021547793
1738772914482060300,4.874060302734375,-0.05084054492115974,0.006581552081089467,-0.023218963024020194
1738772914492052200,4.88405224609375,-0.06297755743861198,0.00019245383217930792,-0.026154139693081377
1738772914502043100,4.894043212890625,-0.059088148784637445,0.008435678348061628,-0.01836889264434576
1738772914512034300,4.904034423828125,-0.06312836408615112,-0.0008599823967786505,-0.014627368028461932
1738772914522025500,4.914025390625,-0.0655079526990652,0.0007378036221023648,-0.016475333982706068
1738772914532016400,4.924016357421875,-0.06777122145593166,-0.0024068510791752486,-0.015060206487774848
1738772914542008000,4.934008056640625,-0.05149287135004997,0.004569266977184452,-0.011055062499642372
1738772914551999200,4.943999267578125,-0.04760696982741355,0.003157304120296612,-0.021517127542197704
1738772914561990100,4.953990234375,-0.0559925208568573,0.004489265110110864,-0.021643676531314847
1738772914571981300,4.963981201171875,-0.05240472549796104,0.008154733381676486,-0.014748071798682212
1738772914581972200,4.97397216796875,-0.04552899450957775,-0.005620954287471249,-0.01771276682317257
1738772914591964200,4.983964111328125,-0.06751929252147675,0.000049337300751358265,-0.01623831035643816
1738772914601955000,4.993955078125,-0.05316168134510517,-0.002470194072392769,-0.018306348802149295
1738772914611946200,5.0039462890625,-0.0586632013708353,-0.007513325639022514,-0.016937106275558472
1738772914621937200,5.013937255859375,-0.05655658448040485,0.012094611847563646,-0.013984686210751532
1738772914631928300,5.02392822265625,-0.05207856228351593,-0.00650450022292789,-0.017985738545656202
1738772914641920300,5.033920166015625,-0.06405950745642185,-0.009093840862694196,-0.013012626308202742
1738772914651911200,5.0439111328125,-0.06120996324419975,-0.01318521096270997,-0.014080547800660132
1738772914661902000,5.053902099609375,-0.06148118140101432,-0.008538608999573625,-0.015379355439543723
1738772914671893000,5.06389306640625,-0.07390577868819237,0.006244145953422412,-0.011621171949803829
1738772914681884400,5.073884521484375,-0.06912263606488704,-0.0033500867460388687,-0.02327449260354042
1738772914691876000,5.0838759765625,-0.06374971085488795,-0.008866379649215377,-0.01603665030449629
1738772914701867300,5.0938671875,-0.06822948661744595,-0.01264976151229348,-0.015770400583744047
1738772914711858200,5.103858154296875,-0.07167933481037617,-0.00495729818039108,-0.02232815166413784
1738772914721849000,5.11384912109375,-0.06642974371910094,-0.013192174993036314,-0.016684592819213865
1738772914731840300,5.12384033203125,-0.06625438715219498,-0.005080230440315791,-0.016029636041820047
1738772914741832200,5.133832275390625,-0.049346506971120835,-0.004635920738917775,-0.030989012503623962
1738772914751823000,5.143822998046875,-0.0677647917151451,-0.0011256293293321505,-0.016575287225842474
1738772914761814300,5.153814208984375,-0.05505845487713813,0.0054077270953217516,-0.015632453417778015
1738772914771805200,5.16380517578125,-0.04309329179525375,-0.006993827242986299,-0.013516776438057421
1738772914781796000,5.173796142578125,-0.05057108033001423,-0.009191268788604065,-0.017570728003978728
1738772914791788300,5.183788330078125,-0.06478665268719196,-0.00017056622735690325,-0.019068565346300602
1738772914801779200,5.193779296875,-0.061948214390873904,-0.022669973672018385,-0.01516425138413906
1738772914811770000,5.20377001953125,-0.046241526693105696,-0.0077374578176764765,-0.016343524296581743
1738772914821761000,5.213760986328125,-0.07181143675744533,-0.021878836994059382,-0.030775077491998672
1738772914831752200,5.223752197265625,-0.07496785496175289,0.00527873955394607,-0.026084873849153516
1738772914841744100,5.233744140625,-0.04757423660159111,0.0007577549981651827,-0.018638064974546432
1738772914851735300,5.2437353515625,-0.056393502873182295,0.00674123615482822,-0.015528116260468959
1738772914861726200,5.253726318359375,-0.06371405501961708,0.00376520688557066,-0.014522738610208034
1738772914871717000,5.263717041015625,-0.05234744235277176,-0.0016241580025758593,-0.02063712983727455
1738772914881708000,5.2737080078125,-0.04830196635425091,0.00077005735731218,-0.014821137034893034
1738772914891700200,5.2837001953125,-0.051584056764841076,-0.011349191174586304,-0.025181787529587746
1738772914901691100,5.293691162109375,-0.06761515411138534,0.0084961626639124,-0.012688801181316375
1738772914911682000,5.30368212890625,-0.06014847149252891,-0.004927245535422117,-0.01906768856346607
1738772914921673200,5.313673095703125,-0.052035892185568804,-0.007764459989033639,-0.021876900765299797
1738772914931664100,5.3236640625,-0.05845452705621719,0.0047110318017425015,-0.02163315513730049
1738772914941656300,5.33365625,-0.05875614035129547,-0.0029074940776918083,-0.009953823259472847
1738772914951647200,5.343647216796875,-0.0635433746278286,0.0017417291007936,-0.01908697778582573
1738772914961638100,5.35363818359375,-0.05635141729712486,0.0015933016400085762,-0.017473989631235597
1738772914971629000,5.363629150390625,-0.06879296571910382,-0.005235188106587157,-0.015153145468235015
1738772914981620200,5.3736201171875,-0.060256023520231246,-0.005484719587978907,-0.01847206075787544
1738772914991612200,5.383612060546875,-0.0643055911719799,-0.007948958843620494,-0.029063012877106664
1738772915001603000,5.39360302734375,-0.07254150459766387,-0.002055571689782664,-0.005999240414798259
1738772915011594200,5.40359423828125,-0.06672025109827517,-0.005747603741288185,-0.0231555423989892
1738772915021585200,5.413585205078125,-0.06311959625780582,-0.008400145810376852,-0.02319002919048071
1738772915031576000,5.423576171875,-0.06792378166913986,0.004972253720927983,-0.02298252391964197
1738772915041567200,5.433567138671875,-0.0688455726891756,0.0018419517719885333,-0.01930734253823757
1738772915051559200,5.44355908203125,-0.05342530071735382,-0.01037883917193394,-0.009159750272333622
1738772915061550000,5.453550048828125,-0.05207622419595718,-0.013873311957879922,-0.017399755351245404
1738772915071541200,5.463541259765625,-0.06961772610545158,0.013499615240702405,-0.03463642909526825
1738772915081532200,5.4735322265625,-0.04927694886624813,0.0030011454442050306,-0.012902443931996821
1738772915091522800,5.483522705078125,-0.05004150349795818,0.001420694152615033,-0.0020718378379940986
1738772915101514800,5.4935146484375,-0.035222120028734205,0.009841581356921232,-0.023190613712370394
1738772915111505700,5.503505615234375,-0.06710603554546833,-0.002638577475817874,-0.025846388918161392
1738772915121496600,5.51349658203125,-0.057392450782656666,-0.011670710179954767,-0.025351298877596854
1738772915131487700,5.52348779296875,-0.05321487283706665,0.008427303245360963,-0.02022065799087286
1738772915141478700,5.533478759765625,-0.05605448017716407,-0.005218141073663718,-0.016341478469967842
1738772915151470600,5.543470703125,-0.0666845952630043,-0.0027836667686235157,-0.022905074769258498
1738772915161461800,5.553461669921875,-0.05470072748064995,-0.007592939347028732,-0.02055997294783592
1738772915171452700,5.56345263671875,-0.07385667884945869,-0.011480247375462204,-0.026387363927066323
1738772915181443600,5.573443603515625,-0.06593231559097766,-0.002251651384308934,-0.023373569063842296
1738772915191434500,5.5834345703125,-0.049013914015889164,-0.0051143199395854025,-0.012332242828607558
1738772915201426700,5.5934267578125,-0.07519874110817909,-0.011777759884158148,-0.015931728625297546
1738772915211417600,5.60341748046875,-0.05948387010395526,-0.00397776279086247,-0.009658055183291435
1738772915221408800,5.61340869140625,-0.06396247682273387,-0.00990704780856613,-0.008948737870156764
1738772915231399700,5.623399658203125,-0.05589607474505901,0.003537284447788261,-0.015482523553073405
1738772915241390600,5.633390625,-0.05486088647842407,0.0007712994663277641,-0.027410277234017847
1738772915251382800,5.6433828125,-0.05830196684300899,-0.006966742873238399,-0.01319879653006792
1738772915261373700,5.653373779296875,-0.06175181503593921,-0.013553436920326203,-0.02454115153849125
1738772915271364600,5.663364501953125,-0.05323533110320568,0.007678416540240868,-0.019557225646078584
1738772915281355500,5.67335546875,-0.056684594774246214,0.0013373449844075367,-0.006958733096718787
1738772915291346700,5.6833466796875,-0.06597264760136604,-0.001285847692610696,-0.019041092817485332
1738772915301337600,5.693337646484375,-0.056853521600365636,-0.006397359187179244,-0.020356267069280145
1738772915311329800,5.703329833984375,-0.07033376542031765,-0.005396465915790759,-0.01806260317414999
1738772915321320700,5.71332080078125,-0.07035714629590512,-0.00249490838854108,-0.01693272236138582
1738772915331311600,5.7233115234375,-0.06228548352122307,0.00576871502797585,-0.00867313579916954
1738772915341302500,5.733302490234375,-0.05570259799957275,-0.007312830064282752,-0.013904898972809315
1738772915351293700,5.743293701171875,-0.06992460009753704,-0.0056854115255409845,-0.018221300867199898
1738772915361285600,5.75328564453125,-0.0703746819525957,-0.010985604859469459,-0.010284954909980297
1738772915371276800,5.76327685546875,-0.05885141741931438,-0.0030103607971221206,-0.018368600383400917
1738772915381267700,5.773267822265625,-0.06124737264513969,-0.00519715308456216,-0.007736731731891632
1738772915391258600,5.783258544921875,-0.05735270329415798,-0.0004798376725055277,-0.019570669649541378
1738772915401249500,5.79324951171875,-0.05104629662632942,-0.0009740646299673244,-0.01919979051053524
1738772915411241700,5.80324169921875,-0.047749593168497084,-0.011328668976365587,-0.01607405970543623
1738772915421232600,5.813232666015625,-0.053289107117056846,-0.007355299232830293,-0.022350655756890773
1738772915431223600,5.8232236328125,-0.051642508953809736,-0.0010914439319400116,-0.020406828212738037
1738772915441214700,5.833214599609375,-0.05283434908688068,-0.00819063581211958,-0.02251987484395504
1738772915451205600,5.84320556640625,-0.05868015250563621,-0.008365809715935028,-0.029368425564467907
1738772915461197800,5.85319775390625,-0.0664753364264965,0.016528146448754704,-0.02841974653750658
1738772915471188700,5.863188720703125,-0.045537177816033364,0.0026804484227439386,-0.021499007363617418
1738772915481179600,5.8731796875,-0.051044543060660356,-0.00404385029701516,-0.005142915846407413
1738772915491170600,5.883170654296875,-0.05838613799512386,-0.003927420843113214,-0.016781331191956995
1738772915501161700,5.89316162109375,-0.0597568418264389,-0.012722105229296721,-0.01729658723771572
1738772915511153700,5.903153564453125,-0.05214227516949176,-0.006708676458941772,-0.008108487653732298
1738772915521144600,5.91314453125,-0.06576806493997574,-0.000712701146886684,-0.020796119791269302
1738772915531135700,5.9231357421875,-0.05500935503840446,0.005933125509181991,-0.017449439711868762
1738772915541126700,5.933126708984375,-0.05936871929168701,-0.008023302721465005,-0.012141980953514575
1738772915551117600,5.94311767578125,-0.05789806221723556,-0.003773248628131114,-0.020725684903562067
1738772915561109800,5.95310986328125,-0.05954466038048267,0.001380243411217816,-0.01399140821248293
1738772915571100700,5.9631005859375,-0.05759411083459854,0.005339173637446947,-0.00877513486891985
1738772915581091600,5.973091552734375,-0.05759060370326042,-0.011437796473223715,-0.01881371380239725
1738772915591082800,5.983082763671875,-0.0706231037557125,-0.019136424684431403,-0.01606879900842905
1738772915601073700,5.99307373046875,-0.04908171855509281,0.0043434679978294295,-0.025621932512521744
1738772915611064600,6.003064697265625,-0.04893091190755367,-0.006013899127813056,-0.00542494765818119
1738772915621056800,6.013056884765625,-0.056447863408923146,-0.003574675582419149,-0.017869710950553418
1738772915631047700,6.023047607421875,-0.053338791477680204,0.005389593217009678,-0.011762918508052824
1738772915641038600,6.03303857421875,-0.05108078341782093,-0.01405170529866591,-0.017200433386862276
1738772915651029800,6.04302978515625,-0.0642705198585987,0.006242803379707038,-0.011584639331698418
1738772915661020700,6.053020751953125,-0.06696107411682606,0.008789752482739277,-0.006507482197880745
1738772915671012600,6.0630126953125,-0.07143266657292842,-0.00330697369009722,-0.016296762545406816
1738772915681003800,6.073003662109375,-0.049455812564492226,0.006271782879019156,-0.016374503956735134
1738772915690994700,6.08299462890625,-0.0675689768821001,-0.01556208702872973,-0.007672142063081264
1738772915700985600,6.092985595703125,-0.0644271717250347,-0.005109447401645593,-0.014551964704692362
1738772915710976800,6.102976806640625,-0.06056231299042701,-0.009885854323487727,-0.025681553745269772
1738772915720968700,6.11296875,-0.059521864026784894,-0.01482893674885854,-0.005752864438295364
1738772915730959600,6.122959716796875,-0.06579436842501163,0.0014296172445872797,-0.020462650053203104
1738772915740950800,6.13295068359375,-0.06071662676930427,-0.006591584851336665,-0.01668400829732418
1738772915750941700,6.142941650390625,-0.07225508887171744,-0.005981375964544713,-0.006000993980467319
1738772915760932600,6.1529326171875,-0.05217150126397609,-0.0010477691869949922,-0.007461421921849251
1738772915770924800,6.1629248046875,-0.07057458843886852,-0.00003059606766328215,-0.021686638890206812
1738772915780915700,6.172915771484375,-0.08285714690685271,0.002255409677396528,-0.02059533652216196
1738772915790906600,6.18290673828125,-0.06700374421477318,-0.0012698098732624203,-0.013531974007189272
1738772915800897800,6.192897705078125,-0.047968788877129555,-0.012046402491396293,-0.0061596916735172265
1738772915810888700,6.202888671875,-0.0632376696795225,0.0033197692395886404,-0.021850889541208743
1738772915820880600,6.212880615234375,-0.07387129189670086,0.005388433306384831,-0.008497779232263565
1738772915830871800,6.222871826171875,-0.0538180994272232,-0.009190761898527853,-0.024665946961939335
1738772915840862700,6.23286279296875,-0.07194529227018356,-0.006613709918176755,-0.028779812021553514
1738772915850853600,6.242853515625,-0.06446867277920246,-0.005367792377155274,-0.013199965573847294
1738772915860844800,6.2528447265625,-0.05637947434782981,-0.007761861606570892,-0.010238485419750212
1738772915870836700,6.262836669921875,-0.07419044084846974,-0.0008418211190029979,-0.023992285484075546
1738772915880827600,6.27282763671875,-0.0608592501103878,-0.002186353896022774,-0.0119186935916543
1738772915890818800,6.28281884765625,-0.047991000708937644,-0.005476412983937189,-0.01954699651300907
1738772915900809700,6.292809814453125,-0.06940028396248817,0.007516919535328633,-0.020705811159312724
1738772915910800600,6.302800537109375,-0.0694464611917734,-0.01208554719169624,-0.006175181503593921
1738772915920792800,6.312792724609375,-0.04984627318680286,-0.011235647797514684,-0.019335107327997682
1738772915930783700,6.32278369140625,-0.053283261898159975,-0.011596457633655518,-0.016057108570635317
1738772915940774700,6.332774658203125,-0.0691641371190548,-0.014329225332103668,-0.02197305461615324
1738772915950765800,6.342765869140625,-0.05797814171612262,-0.001101832895213738,-0.01226589959412813
1738772915960756700,6.3527568359375,-0.034327217015624044,0.0007089200209127738,-0.00915332053154707
1738772915970748700,6.362748779296875,-0.05648293472230434,-0.0038983317459467797,-0.014505787475407123
1738772915980739800,6.37273974609375,-0.07610065838396549,-0.009983469479065388,-0.025223580844700336
1738772915990730800,6.382730712890625,-0.059202130553126335,0.0016556810854235662,-0.014264672195911406
1738772916000721700,6.3927216796875,-0.05367313799858093,0.006426658346899785,-0.018724281953275204
1738772916010712600,6.402712646484375,-0.06817687964737415,-0.0026387647054856643,-0.02040887403935194
1738772916020704800,6.412704833984375,-0.06758358992934227,0.0013958154396852477,-0.01395692142099142
1738772916030695700,6.42269580078125,-0.07595452791154385,-0.010833802698086946,-0.007103694525361061
1738772916040686800,6.432686767578125,-0.06639116527438163,-0.008576717086834832,-0.017979601065814494
1738772916050677800,6.442677734375,-0.05262275216281414,-0.0011786564245121552,-0.019333353762328625
1738772916060668700,6.452668701171875,-0.05380582446753979,-0.005432226782338693,-0.017440087361633775
1738772916070660900,6.462660888671875,-0.06277881999611855,-0.002468554671155289,-0.020901918253302572
1738772916080651800,6.47265185546875,-0.06188450150489807,0.011315215839748271,-0.020588614520430565
1738772916090643000,6.482642822265625,-0.04798047931492328,-0.008949833848699927,-0.014259411498904227
1738772916100633900,6.4926337890625,-0.05664835441708564,-0.008381774470047093,-0.011455752255022525
1738772916110624800,6.502624755859375,-0.06488076071143149,-0.00873696741615422,-0.012497370262444019
1738772916120617000,6.512616943359375,-0.055471127331256864,0.0007632074914174153,-0.024254443551599978
1738772916130607900,6.52260791015625,-0.039005730220675466,0.004943415785511024,-0.007662789712846279
1738772916140598800,6.532598876953125,-0.06070084467828273,0.0018112598062027245,-0.009318155704438686
1738772916150589700,6.542589599609375,-0.05564999102950096,0.007474107873486354,-0.015471125376224517
1738772916160580900,6.552580810546875,-0.047854807108640665,0.00889519475174602,-0.012525719574093819
1738772916170572800,6.56257275390625,-0.0620528438091278,0.00938082741079852,0.004319324503839016
1738772916180564000,6.57256396484375,-0.0668412471294403,0.000006301876623183489,-0.016031974129378793
1738772916190555000,6.582554931640625,-0.05276712906956672,-0.0012984103466616942,-0.02234597958177328
1738772916200545800,6.5925458984375,-0.055474634462594985,-0.007923153115506284,-0.0068818684682250015
1738772916210536700,6.60253662109375,-0.05889350299537181,-0.006262425962206907,-0.008908698120713234
1738772916220529000,6.61252880859375,-0.046154432931542394,-0.010325090557546355,-0.02589081258177757
1738772916230519800,6.622519775390625,-0.05378595072329044,-0.009088287904742174,-0.017958558277785776
1738772916240511000,6.632510986328125,-0.05185001422464847,-0.00862743349391967,-0.015680676473677158
1738772916250502000,6.642501953125,-0.06007306816875934,0.00015541889057494698,-0.005681260506808758
1738772916260492800,6.652492919921875,-0.06785130095481873,0.005894021908077411,-0.009132277743518352
1738772916270485000,6.662485107421875,-0.06753156748116015,-0.006779097646917216,-0.016240648443996905
1738772916280476000,6.672475830078125,-0.06183189453482627,-0.000007603351143188774,-0.013296996207535267
1738772916290466800,6.682466796875,-0.06572422579824924,-0.006127237008907832,-0.014188976611196995
1738772916300457700,6.692457763671875,-0.0625976182103157,-0.01132156794872135,-0.019219956515729428
1738772916310449000,6.702448974609375,-0.06964695219993591,0.001732984105334617,-0.013326222302019596
1738772916320440800,6.71244091796875,-0.05332534747421741,0.005035350118973292,-0.011570318545401095
1738772916330432000,6.722431884765625,-0.041485856598615645,-0.0008834637370659038,-0.004151858982443809
1738772916340423000,6.7324228515625,-0.059438861918449395,-0.0009875725655118003,-0.0032677696242928503
1738772916350413800,6.742413818359375,-0.06633563569486141,-0.006592447934439406,-0.008308978661894798
1738772916360404700,6.75240478515625,-0.05662497354149818,0.0015086235978174953,-0.01004822354465723
1738772916370397000,6.76239697265625,-0.05379121142029762,-0.002864604784036055,-0.012707213620841502
1738772916380387800,6.772387939453125,-0.07098200019598007,-0.010662409920245409,-0.010224456894397735
1738772916390378800,6.782378662109375,-0.06261749195456505,-0.0009222157117212191,-0.011069383285939692
1738772916400370000,6.792369873046875,-0.053363925918936725,-0.000009781608497723936,-0.017718319781124592
1738772916410360800,6.80236083984375,-0.055765141841769214,0.0049856155260000375,-0.016496376770734785
1738772916420353000,6.81235302734375,-0.06834054577648639,-0.002973668348812498,-0.02261047573685646
1738772916430344000,6.822343994140625,-0.05849193645715713,-0.011655046819942071,-0.01458002175539732
1738772916440334800,6.8323349609375,-0.06285714592933654,0.001836636276054196,-0.0228700034558773
1738772916450325800,6.84232568359375,-0.06887012260854244,-0.006869095751619898,-0.016484686332941055
1738772916460317000,6.85231689453125,-0.05421615883409977,-0.003721518440893851,-0.017047288651764393
1738772916470308900,6.862308837890625,-0.05600654938220977,0.007921760309441014,-0.015718670396506786
1738772916480299800,6.8722998046875,-0.06934300081729888,-0.0025304043936077505,-0.01236000761836767
1738772916490291000,6.882291015625,-0.06963993793725967,-0.0034339565040543674,-0.008927695082128047
1738772916500281900,6.89228173828125,-0.04149871608018875,0.002222822582046501,-0.00701572398096323
1738772916510272800,6.902272705078125,-0.06211714121699333,-0.009028159781917929,-0.01790390548110008
1738772916520265000,6.912264892578125,-0.06633738926053047,-0.0038752613976132124,-0.016748597966134548
1738772916530256000,6.922255859375,-0.050042672541737554,0.0077588841981953,-0.017289865235984324
1738772916540246800,6.932246826171875,-0.04182429477274418,-0.0017662835867376997,-0.01605009430795908
1738772916550238000,6.942238037109375,-0.0734340695232153,0.0029022425138391554,-0.028640695811808108
1738772916560228900,6.952228759765625,-0.051284197035431855,-0.0034113245471380648,-0.005909224043786525
1738772916570220800,6.962220703125,-0.05173837054371833,-0.0013373221515212206,-0.0030476971328258513
1738772916580212000,6.9722119140625,-0.05969838963747024,-0.00728628911722917,-0.014164718952775001
1738772916590203000,6.982202880859375,-0.0667372022330761,-0.010477637071022764,-0.011150924089550972
1738772916600193800,6.99219384765625,-0.05402502017617225,-0.004916906804498284,-0.01800853489935398
1738772916610185000,7.00218505859375,-0.07199380758702754,-0.004943991174246184,-0.018414485351741314
1738772916620177000,7.012177001953125,-0.06765723968744278,-0.010049045528564601,-0.009724398417770862
1738772916630167800,7.022167724609375,-0.06646130790114402,-0.01647833879054524,-0.014509294606745242
1738772916640159000,7.032158935546875,-0.06647475190460682,-0.013682214399147777,-0.01086860001683235
1738772916650150000,7.04214990234375,-0.05900222406685352,0.004117047963966615,-0.004700725036859512
1738772916660140800,7.052140869140625,-0.05990764847397804,0.003378974913805723,-0.017540332865715026
1738772916670133000,7.062133056640625,-0.06647358286082744,-0.017317356031108646,-0.01925298200249672
1738772916680124000,7.0721240234375,-0.06438274806141853,-0.014647730396478436,-0.009808861830830573
1738772916690114800,7.08211474609375,-0.04520516938269138,0.0019032626383239403,-0.010193184973299503
1738772916700106000,7.09210595703125,-0.05848842932581901,-0.0026937736951978875,-0.011215221497416496
1738772916710097000,7.102096923828125,-0.06194236917197704,0.00187794553397689,-0.021195932763814925
1738772916720088800,7.1120888671875,-0.05461772537231445,-0.00793899000545498,-0.007250701780617237
1738772916730080000,7.122080078125,-0.051040451407432554,0.0024251721871551123,-0.01887304277420044
1738772916740071000,7.13207080078125,-0.06813479407131671,-0.003963948894641362,-0.011114975993335247
1738772916750061800,7.142061767578125,-0.06902092925608158,-0.0018561583938542753,-0.005321487283706665
1738772916760053000,7.152052978515625,-0.056741877919435496,-0.003954861405887641,-0.026451661334931847
1738772916770045000,7.162044921875,-0.054497313863039014,-0.009097416492691263,-0.01552548591196537
1738772916780035800,7.172035888671875,-0.059898296123743054,0.007802348880586214,-0.0064978375867009155
1738772916790027000,7.182027099609375,-0.05404606296420097,-0.00156534505400341,-0.012991291259229182
1738772916800018000,7.192017822265625,-0.069747489964962,0.00007423427999019622,-0.022159809359908102
1738772916810008800,7.2020087890625,-0.05912614270746708,-0.005395443002483807,-0.002100479410588741
1738772916820000000,7.212,-0.05914426288604736,-0.002744645365909673,-0.015803133809566498
1738772916829992000,7.221991943359375,-0.06350654974877834,-0.0061401193233672526,-0.013927403065562248
1738772916839982800,7.23198291015625,-0.04180617459416389,-0.004975450325012207,-0.01767740324884653
1738772916849974000,7.24197412109375,-0.05332710103988647,-0.013603066482022403,-0.01917933224439621
1738772916859965000,7.25196484375,-0.04540975204408169,0.0008163807170698419,-0.022872926065325736
1738772916869955800,7.261955810546875,-0.05603226834535598,0.006100362701714038,-0.0026774025157094
1738772916879947800,7.27194775390625,-0.05991933891177177,-0.005425897506251931,-0.02513619482219219
1738772916889939000,7.28193896484375,-0.06428454838395119,-0.00034744346449151634,-0.015466741462051868
1738772916899929900,7.291929931640625,-0.05218669883310795,-0.0038856686271959914,-0.010299860218167305
1738772916909921000,7.301921142578125,-0.06190320620536804,-0.011336409324826671,-0.01617167486101389
1738772916919912000,7.311911865234375,-0.057711599734425544,-0.006145256722788326,-0.008846738800406456
1738772916929903900,7.32190380859375,-0.06459960568249225,0.003543348862393759,-0.011823416523635387
1738772916939895000,7.33189501953125,-0.06011456922292709,-0.004163595086010173,-0.02273322533369064
1738772916949886000,7.341885986328125,-0.049915831291675566,0.0011270586680155246,-0.02640752993226051
1738772916959876900,7.351876953125,-0.051557168757915495,0.008774787809047847,-0.011013561445474624
1738772916969867800,7.36186767578125,-0.054848026996850964,-0.0063456700991373505,-0.014906477230787276
1738772916979859700,7.371859619140625,-0.06592588585019112,0.0031742552550975234,-0.004115910886228084
1738772916989851000,7.381850830078125,-0.05962298631370067,-0.005874029432819224,-0.02617635152488947
1738772916999842000,7.391842041015625,-0.05991875438988208,-0.006833083723322488,-0.01586304730325937
1738772917009833000,7.4018330078125,-0.047187867632508276,-0.004236331528658047,-0.010216565848886966
1738772917019823900,7.411823974609375,-0.051989714956283566,-0.009009550979570485,-0.01675415092408657
1738772917029815800,7.42181591796875,-0.04837970776557922,0.006672742062457836,-0.01681815607100725
1738772917039806700,7.431806640625,-0.05466740973293781,-0.003989576526242308,-0.0075306877657771104
1738772917049798000,7.4417978515625,-0.07441489725410938,-0.005909105312777683,-0.009044307199120522
1738772917059788800,7.451788818359375,-0.048963645133376116,-0.004240363816381432,-0.01956482443064451
1738772917069780000,7.461780029296875,-0.056585226052999496,0.003024914478859864,-0.020797873356938362
1738772917079771000,7.47177099609375,-0.054364627394080156,0.005742781435698271,-0.021162322755157947
1738772917089762800,7.4817626953125,-0.06978723745346069,-0.005968872675998136,-0.006461889490485191
1738772917099754000,7.49175390625,-0.06991407870352268,-0.011790582833113149,-0.011034019711613654
1738772917109745000,7.501744873046875,-0.05716624081134796,0.002925066267000511,-0.03223608995527029
1738772917119735800,7.51173583984375,-0.0520797313272953,0.0030385685448767615,-0.019809154580533502
1738772917129727000,7.52172705078125,-0.06702829413414,0.000995408812095411,-0.02809387558400631
1738772917139718700,7.53171875,-0.06506956128180026,0.00367157378536649,-0.013477613471448421
1738772917149709800,7.541709716796875,-0.05787117421030998,-0.010641490429802797,-0.015778876151144504
1738772917159701000,7.551700927734375,-0.04963759887218475,-0.008181182997184806,-0.023872458496689796
1738772917169692000,7.56169189453125,-0.07117956859469414,-0.004933191219018772,-0.010276187081634998
1738772917179682800,7.571682861328125,-0.053831543430685996,-0.0028536678314907476,-0.017272329579293727
1738772917189674800,7.5816748046875,-0.05803308677375316,-0.012209306002105586,-0.016331833858788013
1738772917199665700,7.591665771484375,-0.06327507908046245,0.0013391990147763862,-0.01092792898863554
1738772917209656800,7.60165673828125,-0.06924772374927997,-0.006643123242328875,-0.016210545566678045
1738772917219648000,7.61164794921875,-0.04516483737230301,-0.0009580039777327328,-0.023660569311678408
1738772917229639000,7.621638916015625,-0.05879530331790447,-0.002895666642580181,-0.015981412985920904
1738772917239629800,7.6316298828125,-0.04668868593871593,-0.009390828215004875,-0.010842296531796455
1738772917249621800,7.641621826171875,-0.043837388160824775,0.0017819926125230267,-0.017005495336651803
1738772917259612700,7.65161279296875,-0.06671557492315769,-0.0013663564497604966,-0.009432721994817256
1738772917269603800,7.661603759765625,-0.05640343974530697,-0.0029775636392179875,-0.026294717207551
1738772917279595000,7.671594970703125,-0.04995616330206394,-0.001248707719729282,-0.020505027890205384
1738772917289586000,7.6815859375,-0.05637246008515358,-0.0034215902128256854,-0.020120704747736452
1738772917299577600,7.69157763671875,-0.05351882421970367,-0.007204433219786733,-0.02734218043386936
1738772917309568800,7.70156884765625,-0.06521043105721473,0.0038319748117355626,-0.022780279345810412
1738772917319560000,7.711559814453125,-0.04622574460208416,-0.002522394617088139,-0.008495733405649662
1738772917329550800,7.72155078125,-0.06012216800749302,-0.0004735586287686601,-0.006020283202826976
1738772917339542000,7.7315419921875,-0.05772738182544708,0.0006170496195321902,-0.026075813759863373
1738772917349533700,7.74153369140625,-0.06446750373542308,0.0004247647507116198,-0.021713526897132397
1738772917359524600,7.751524658203125,-0.05127016851007938,-0.01332891658260487,-0.006105623398721218
1738772917369515800,7.761515869140625,-0.05588555335104465,0.006806930935336276,-0.016961656194925307
1738772917379507000,7.7715068359375,-0.06978373032212257,-0.007500680786580778,-0.024806232215464113
1738772917389497900,7.781497802734375,-0.0670762249290943,0.008372618482634424,-0.025603520072996613
1738772917399489000,7.791489013671875,-0.053749125844240186,0.0006385079660918563,-0.015310089595615863
1738772917409480700,7.801480712890625,-0.06660919193923473,-0.016330413653259164,-0.015041501787304878
1738772917419471600,7.8114716796875,-0.04698386949300766,-0.00956602495170664,-0.012431611549854277
1738772917429462800,7.821462890625,-0.06208090085983276,-0.005579987522843294,-0.016980068634450434
1738772917439454000,7.831453857421875,-0.05997428396940231,-0.0076562412410508835,-0.00639788434356451
1738772917449444900,7.84144482421875,-0.06387187592983246,-0.004115367463533766,-0.012358838574588298
1738772917459436800,7.851436767578125,-0.05666822816133499,-0.006897490729042328,-0.014678805954754352
1738772917469427700,7.861427734375,-0.05259177250266075,-0.003649645081348717,-0.011066460676491259
1738772917479419000,7.8714189453125,-0.06066811145246029,-0.012697112351935356,-0.025146423955261704
1738772917489410000,7.88141015625,-0.055423196536302566,-0.0029813401986146346,-0.01739157204478979
1738772917499401000,7.89140087890625,-0.06392448289990425,0.0074381415109615765,-0.020337562368810177
1738772917509392000,7.901391845703125,-0.05645020149648189,-0.015121782215591519,-0.01208119067698717
1738772917519383800,7.9113837890625,-0.048372108981013295,-0.013270108200609683,-0.015963877329230308
1738772917529374700,7.921374755859375,-0.061253217864036556,-0.0018691503061680121,-0.010681260751187801
1738772917539366000,7.931365966796875,-0.05005494750142097,-0.0017602009058231487,-0.0161319273725152
1738772917549357000,7.941357177734375,-0.06635200230777263,0.0036667332134675233,-0.020521102242171765
1738772917561220900,7.953220947265625,-0.062006082057952876,0.001312068979255855,-0.024885142670571802
1738772917571212800,7.963212890625,-0.06543547198474407,0.002300563993374817,-0.007720072858035564
1738772917581204000,7.973203857421875,-0.07244622752964497,-0.004147301538335159,-0.010790274083614349
1738772917591195000,7.98319482421875,-0.07004091995358466,-0.009111965607851743,-0.019508418068289755
1738772917601185800,7.993185791015625,-0.051935938942432404,0.0018804891175124793,-0.023098259253799915
1738772917611176700,8.0031767578125,-0.05162555781900882,-0.004262945540947839,-0.02328705982416868
1738772917621169000,8.0131689453125,-0.05326981789469719,-0.004263383932365104,-0.012818272779881953
1738772917631159800,8.023159912109374,-0.05926525891721248,-0.02121326292452868,-0.006799450881779193
1738772917641150700,8.033150634765626,-0.06137830554842948,-0.0037344509877031665,-0.010324117876589298
1738772917651142000,8.043141845703126,-0.06180676009356975,-0.0007052895919885486,-0.03134557085633278
1738772917661132800,8.0531328125,-0.03544949904382229,0.0034498253600439054,-0.01959931122213602
1738772917671123700,8.063123779296875,-0.055178281864523886,0.005597472947183996,-0.01235182431191206
1738772917681116000,8.073115966796875,-0.06474515163302422,-0.002161840509274043,-0.002362345217168331
1738772917691106800,8.08310693359375,-0.059658642148971555,-0.0062778016278520225,-0.02405658289194107
1738772917701097700,8.09309765625,-0.053204351443052286,-0.008811790784611365,-0.013204934009909628
1738772917711089000,8.1030888671875,-0.06603869857490062,-0.0014936132583534343,-0.021407821948826313
1738772917721079800,8.113079833984376,-0.05856149456202984,0.00034257092655170704,-0.012412906849384307
1738772917731071700,8.12307177734375,-0.06994973453879356,0.0005494871089234948,-0.014900339750945566
1738772917741063000,8.13306298828125,-0.05546411306858062,-0.0039700178758241235,-0.009857669408619403
1738772917751053800,8.1430537109375,-0.049634676262736314,0.003867361218947917,-0.00983516531586647
1738772917761044700,8.153044677734375,-0.06414543217420578,-0.004731471801572479,-0.024663608874380585
1738772917771036000,8.163035888671875,-0.049620063215494156,0.00026950569034088403,-0.014526245741546153
1738772917781027800,8.17302783203125,-0.0605365940272808,-0.010451534515386447,-0.008866320283710956
1738772917791018800,8.183018798828124,-0.06321779593527317,-0.012229782534553668,-0.013100889113545417
1738772917801010000,8.193010009765626,-0.05707037922143936,-0.002142300125164911,-0.01718377451300621
1738772917811000800,8.203000732421875,-0.07038169621527195,0.0004210749562829733,-0.01645867510885
1738772917820991700,8.21299169921875,-0.05346329464018344,0.0036355160912964492,-0.01544482189118862
1738772917830983000,8.22298291015625,-0.055254854232072825,-0.007838233044720254,-0.014564531925320624
1738772917840974800,8.232974853515625,-0.053611178678274155,-0.004911646107491106,-0.020391046121716497
1738772917850965800,8.2429658203125,-0.05044891525506973,-0.001866428626119159,-0.021656536012887955
1738772917860957000,8.25295703125,-0.057470776715874666,0.0072247636217623945,-0.009724982939660549
1738772917870947800,8.26294775390625,-0.07797054390907288,-0.012350737466523423,-0.01735883881896734
1738772917880938800,8.272938720703126,-0.07542319751381873,-0.015380679746950045,-0.02874298714250326
1738772917890931000,8.282930908203125,-0.05119242709875107,-0.004642734072194434,-0.020026888984441757
1738772917900921900,8.292921875,-0.05208440750241279,-0.0049581840963801365,-0.018549802169203756
1738772917911538000,8.303537841796874,-0.055662265989184376,-0.013755179170658811,-0.023535773888230322
1738772917921528800,8.31352880859375,-0.06676116763055324,-0.0022750048604328185,-0.024791911429166792
1738772917931519700,8.323519775390626,-0.06526128446161747,0.0011123223231872543,-0.006246493174135685
1738772917941511000,8.333510986328125,-0.04655132329463958,0.0021416105719981714,-0.003422667925059795
1738772917951501800,8.343501708984375,-0.06421499027907848,-0.008357521378202363,-0.017914719136059284
1738772917961493800,8.35349365234375,-0.059302083796262735,-0.002741375696589239,-0.014533552265167235
1738772917971485000,8.36348486328125,-0.059032034683227534,0.0008213582862867042,-0.0061985623791813846
1738772917981475800,8.373475830078124,-0.06247311504781246,-0.02671687900922261,-0.00979249521791935
1738772917991466800,8.383466796875,-0.07057283487319946,-0.0037948850712040435,-0.017056348741054533
1738772918001458000,8.3934580078125,-0.06787234374284744,0.0020994199646636844,-0.016932430100440977
1738772918011449900,8.403449951171876,-0.05964578266739845,0.0032114591600606217,-0.0024041385322809217
1738772918021440800,8.413440673828125,-0.05648994898498058,-0.005652646333677694,-0.0027498832300305366
1738772918031432000,8.423431884765625,-0.052587096327543256,-0.011808429017057642,-0.019554010775685308
1738772918041422800,8.4334228515625,-0.0636783991843462,0.00531841854378581,-0.027566052317619324
1738772918051413800,8.443413818359375,-0.0469295089572668,0.0004977477885317057,-0.016905542093515396
1738772918061406000,8.453406005859375,-0.05636661486625671,-0.004541383456415496,-0.011933598899841307
1738772918071396900,8.46339697265625,-0.06341127268075943,0.011903546254872343,-0.008297872745990753
1738772918081387800,8.4733876953125,-0.05981529401540756,0.0005262934630038216,-0.021933014866709708
1738772918091378400,8.48337841796875,-0.06248480548560619,-0.0029770704488735642,-0.02426175007522106
1738772918101369300,8.493369384765625,-0.05617138455510139,-0.007880451051518321,-0.007754851910471916
1738772918111360500,8.503360595703125,-0.05918517941832542,-0.006805542695848271,-0.013815174862742424
1738772918121352400,8.5133525390625,-0.05619534995257854,-0.0034543873707298185,-0.011262275509536266
1738772918131343600,8.523343505859375,-0.06548106469213962,0.0023039660934358833,-0.012281097163259983
1738772918141334500,8.53333447265625,-0.058304304930567735,-0.0037540598704712464,-0.020640052446722984
1738772918151325400,8.543325439453126,-0.055585693621635436,-0.006965103472000919,-0.022822949443757533
1738772918161316400,8.55331640625,-0.06261690743267535,-0.015249687478155829,-0.022977555483579635
1738772918171308500,8.56330859375,-0.07297288175225257,0.009341988671175203,-0.021969839745759962
1738772918181299500,8.573299560546875,-0.055614919716119766,-0.0047981346964603286,-0.0132911509886384
1738772918191290400,8.583290283203125,-0.060553545162081716,-0.011213655161415226,-0.03064794398099184
1738772918201281500,8.593281494140625,-0.0659568655103445,-0.006384289643052034,-0.022958266261219978
1738772918211272400,8.6032724609375,-0.05652969647347927,-0.006093101843865588,-0.02699877382367849
1738772918221263400,8.613263427734376,-0.050368835756182666,-0.004283326175273396,-0.015268880802392958
1738772918231255600,8.623255615234376,-0.05499415746927261,-0.005449894869769923,-0.02294891391098499
1738772918241246500,8.63324658203125,-0.06172025085389614,-0.007669087022892199,-0.014897417141497135
1738772918251237400,8.6432373046875,-0.053173956304788585,-0.0026586475828895345,-0.010617840126156807
1738772918261228500,8.653228515625,-0.05299216999709606,0.00376481872650329,-0.00684182871878147
1738772918271219500,8.663219482421875,-0.05987842237949371,0.0008346150600817054,-0.00847878227084875
1738772918281211400,8.67321142578125,-0.056877486997842785,-0.003970661763218231,-0.019282208096981047
1738772918291202600,8.68320263671875,-0.05434709173738956,-0.0196022155652754,-0.02162877122312784
1738772918301193500,8.693193359375,-0.05077040229439735,-0.01307777766601648,-0.009007190059125423
1738772918311184400,8.703184326171876,-0.057357963991165155,-0.0029020096183987334,-0.021568857729434964
1738772918321175600,8.713175537109375,-0.058389060604572295,-0.003323979623825289,-0.017585633312165738
1738772918331167500,8.72316748046875,-0.05343932924270629,-0.00005370294861495495,-0.014635843595862388
1738772918341158400,8.733158447265625,-0.061494625404477116,0.0028314696994144466,-0.026397885321080682
1738772918351149600,8.743149658203125,-0.0451999086856842,-0.001985068303416483,-0.010479600699245929
1738772918361140500,8.753140380859374,-0.06135200206339359,0.0016031517471652478,-0.01903933925181627
1738772918371131400,8.76313134765625,-0.055368251478672026,0.0023901511061238125,-0.018135960671305656
1738772918381122600,8.77312255859375,-0.05894084926843643,-0.0005805626671994105,-0.015509119299054144
1738772918391114500,8.783114501953126,-0.05939619182050228,0.004911636974336579,-0.013389935187995434
1738772918401105400,8.79310546875,-0.061792147046327586,-0.005582197746238671,-0.014133154770731925
1738772918411096600,8.8030966796875,-0.06658113488852978,-0.012291015769075602,-0.023109072908759114
1738772918421087500,8.81308740234375,-0.06029226387739181,0.001426416073925793,-0.017736439959704874
1738772918431078400,8.823078369140624,-0.05850245785117149,-0.006798030676250346,-0.014124971464276314
1738772918441070600,8.833070556640624,-0.060738838601112365,0.006543594690877944,-0.008316869707405567
1738772918451061500,8.8430615234375,-0.0466553681910038,0.005898401255672797,-0.004189852905273437
1738772918461052400,8.853052490234376,-0.06236147136688232,0.004254625237174332,-0.023514438839256763
1738772918471043600,8.863043701171875,-0.05801964277029037,-0.002121412600763142,-0.011100655207037924
1738772918481034500,8.873034423828125,-0.04185293634533882,0.004324854628904722,-0.007531564548611641
1738772918491026400,8.8830263671875,-0.05249707995653152,0.0029243264814838767,-0.026314883212745187
1738772918501017600,8.893017578125,-0.059091071394085884,0.003428513143956661,-0.01790098287165165
1738772918511008500,8.903008544921875,-0.05729249753952026,-0.006140626213443465,-0.028387305572628974
1738772918520999400,8.91299951171875,-0.055944590061903,-0.008468667302210815,-0.022556991983950135
1738772918530990600,8.922990478515626,-0.04439443752169609,-0.005550460034259594,-0.00784486828148365
1738772918540981500,8.9329814453125,-0.05802841059863567,-0.012031990373553708,-0.020053484730422497
1738772918550973400,8.942973388671875,-0.07046878997683524,-0.00375288626011461,-0.006063537822663783
1738772918560964600,8.952964599609375,-0.05011339969038963,-0.0006057610405376181,-0.01954699651300907
1738772918570955500,8.96295556640625,-0.05129881008267402,-0.0050617586352862416,-0.011361059708893298
1738772918580946400,8.972946533203125,-0.06373860493898391,-0.0023479422324802724,-0.018771920487284658
1738772918590937300,8.982937255859374,-0.059251230391860005,-0.012101356682181357,-0.02146101344078779
1738772918600929500,8.992929443359374,-0.06226268716752529,-0.012537779904645868,-0.019447627791762352
1738772918610920400,9.00292041015625,-0.07260171035230159,-0.00009726352912839501,-0.026281857725977895
1738772918620911600,9.01291162109375,-0.06046352879106998,0.004525505467271432,-0.015870646087825298
1738772918630902500,9.022902587890625,-0.0547854831546545,-0.00007085501281544566,-0.019731997691094873
1738772918640893400,9.0328935546875,-0.049096331602334974,-0.003887234963197261,-0.011662673003971577
1738772918650884400,9.04288427734375,-0.04998305130898952,-0.006429959982261061,-0.0055704936087131495
1738772918660876500,9.05287646484375,-0.058954877793788905,-0.00896756586821284,-0.01696457880437374
1738772918670867500,9.062867431640624,-0.05806055930256843,-0.00608847590109799,-0.009622107087075709
1738772918680858400,9.0728583984375,-0.0565717820495367,-0.0007227932826383039,-0.018872750513255595
1738772918690849500,9.082849609375,-0.06242635329663753,0.0033621927423635495,-0.02643675602674484
1738772918700840400,9.09284033203125,-0.06601414865553379,0.01156887094040867,-0.01492635097503662
1738772918710832600,9.10283251953125,-0.052395957669615745,-0.00030600177582819013,-0.0010144377395510673
1738772918720823600,9.112823486328125,-0.042675358644127845,0.012114736753562465,-0.017152794852852822
1738772918730814500,9.122814453125,-0.04880991587638855,-0.0035581674056127666,-0.0277805718511343
1738772918740805400,9.132805419921874,-0.0582318242162466,-0.0012954877372132613,-0.006702712509036064
1738772918750796500,9.142796630859374,-0.06645604720413685,-0.0026393400942208243,-0.014802432334423065
1738772918760787500,9.152787353515626,-0.06870294934809207,-0.007935487440694123,-0.0189835174113512
1738772918770779400,9.162779296875,-0.04761982930898666,0.003739136295975186,-0.01623217287659645
1738772918780770600,9.1727705078125,-0.04430851280391216,-0.004709771426417864,-0.026480302907526492
1738772918790761500,9.182761474609375,-0.06882803703248501,-0.00394128953826148,-0.027901567882299423
1738772918800752400,9.19275244140625,-0.056121700194478034,0.006051765186479314,-0.010049392588436602
1738772918810743600,9.20274365234375,-0.049687867754697794,-0.003629501909040846,-0.0027139351338148114
1738772918820735500,9.212735595703125,-0.05100888722538948,0.004691240255883895,-0.011783376774191856
1738772918830726400,9.222726318359374,-0.07063713228106498,-0.005863316242559813,-0.03129617875665426
1738772918840717600,9.232717529296876,-0.059440030962228774,-0.004686796976206824,-0.02940788079202175
1738772918850708500,9.24270849609375,-0.04549684580564499,-0.00872504864949733,0.0023696517407894133
1738772918860699400,9.252699462890625,-0.05535422295331954,0.00010629165237769484,-0.010566109938919543
1738772918870690600,9.262690673828125,-0.06138064363598823,-0.0005711098522646353,-0.028676936168968676
1738772918880682500,9.2726826171875,-0.07083177807033061,-0.004529921347484924,-0.0184171157002449
1738772918890673400,9.28267333984375,-0.029208558827638623,0.013719039278198033,-0.018800854320824144
1738772918900664600,9.29266455078125,-0.06527355942130088,-0.005088148885290138,-0.016549568262696265
1738772918910655500,9.302655517578126,-0.06648702686429023,-0.007438315040897578,-0.025320026956498622
1738772918920646400,9.312646484375,-0.047339843323826784,0.00995954974736087,-0.004498772723972797
1738772918930638600,9.322638671875,-0.04898702600896358,0.00023813330454286187,-0.010930267076194286
1738772918940629500,9.33262939453125,-0.07158698035180568,-0.011433070065756328,-0.017347732903063295
1738772918950620400,9.342620361328125,-0.06964461411237716,0.013517726286128162,-0.02212503030747175
1738772918960611600,9.352611572265625,-0.06887479878365993,0.0013982311590574681,-0.010230886635184287
1738772918970602500,9.3626025390625,-0.06768588126003741,-0.0013532412398606537,-0.008255787169933318
1738772918980593400,9.372593505859374,-0.04209668197333812,-0.002963114988757297,-0.009608078561723231
1738772918990585600,9.382585693359376,-0.06961772610545158,-0.0007321684657596051,-0.021471534834802148
1738772919000576500,9.392576416015626,-0.06452712496817112,0.0021328199107665566,-0.005769523312151432
1738772919010567400,9.4025673828125,-0.04566051193475723,0.004812998905451968,-0.015989596292376517
1738772919020558600,9.41255859375,-0.05551379742920398,0.005501757487747818,-0.014723521879315376
1738772919030549500,9.422549560546875,-0.06900222455561161,-0.003519721391634084,-0.019286299750208853
1738772919040541400,9.43254150390625,-0.05416530542969703,-0.005468768533598631,-0.01263414838463068
1738772919050532600,9.44253271484375,-0.06479658955931664,0.001678029914549552,-0.03236380798816681
1738772919060523500,9.4525234375,-0.06632569882273674,0.01021875780597329,-0.0223690681964159
1738772919070514400,9.462514404296876,-0.046852352067828174,0.007633148059831001,-0.012267945420742034
1738772919080505300,9.47250537109375,-0.06046352879106998,0.0063660187674220645,-0.017076807007193565
1738772919090496500,9.48249658203125,-0.07320610598623752,0.005089843085454776,-0.023429098643362522
1738772919100489500,9.492489501953125,-0.0500233833193779,0.005450027300510555,-0.016505436860024928
1738772919110480400,9.50248046875,-0.05209025272130966,0.0068893165557412425,-0.034113574264943596
1738772919120471300,9.51247119140625,-0.06362053151726722,-0.006681377460062503,-0.02226268521249294
1738772919130462500,9.52246240234375,-0.060197571331262585,0.0032724412328330797,-0.02563479199409485
1738772919140453400,9.532453369140624,-0.060524903589487075,-0.00974754183134064,-0.01341448510736227
1738772919150445300,9.5424453125,-0.053659693995118135,-0.003590421140822582,-0.012003449265658855
1738772919160436500,9.5524365234375,-0.05426759676039219,-0.002666273766919039,-0.009277239172160626
1738772919170427400,9.562427490234375,-0.061140405139327045,-0.0021047902595251796,-0.027270576502382755
1738772919180418300,9.572418212890625,-0.05140343950092792,0.0008258928975090384,-0.013989946907758712
1738772919190409500,9.582409423828125,-0.04376958362162113,-0.007506918731122277,-0.002027998696267605
1738772919200400400,9.592400390625,-0.056793315845727915,-0.008064274052670226,-0.023108780647814273
1738772919210392300,9.602392333984374,-0.057231707262992856,0.002975631977035664,-0.017310615763068197
1738772919220383500,9.612383544921874,-0.059013329982757566,-0.0043414998030290005,-0.016611819843947887
1738772919230374400,9.62237451171875,-0.049724692633748055,0.005930842220550403,-0.009317278921604156
1738772919240365300,9.632365234375,-0.05299684617221355,-0.009831338524119928,-0.022108371433615683
1738772919250356500,9.6423564453125,-0.052874681097269054,-0.0064292293298989535,-0.02021189016252756
1738772919260347400,9.652347412109375,-0.058282677620649335,0.004375338140549138,-0.016396715788543223
1738772919270339300,9.66233935546875,-0.0473088636636734,0.00038477066704072056,-0.016577917574346065
1738772919280330500,9.67233056640625,-0.060765726608037945,-0.013532321067061275,-0.015569325053691864
1738772919290321400,9.6823212890625,-0.068113751283288,-0.009013231640844605,-0.014166180257499217
1738772919300312300,9.692312255859376,-0.05147065951824188,-0.014221641338360494,-0.017278174798190594
1738772919310303200,9.70230322265625,-0.06957914766073227,0.0013710234917234628,-0.0027560207098722457
1738772919320295400,9.71229541015625,-0.07258709730505943,0.005611528872000053,-0.021108254480361938
1738772919330286300,9.722286376953125,-0.060007017195224756,-0.006298794183530844,-0.01665741255134344
1738772919340277500,9.732277587890625,-0.0712163934737444,0.010639257373521104,-0.012963234208524226
1738772919350268400,9.742268310546875,-0.0554869094222784,0.002033926113555208,-0.007941314393281936
1738772919360259300,9.75225927734375,-0.05083469970226288,0.008681593100260943,-0.019512801982462406
1738772919370250200,9.762250244140626,-0.05353343726694584,0.021452752502518706,-0.019942717832326887
1738772919380242400,9.772242431640626,-0.05619184282124042,0.008804447728372179,-0.011241232721507548
1738772919390233300,9.7822333984375,-0.0543845011383295,0.013279542749235406,-0.004850070379674434
1738772919400224300,9.792224365234375,-0.06472293980121613,-0.00033950675320811567,-0.020066051951050757
1738772919410215400,9.80221533203125,-0.06860884132385253,0.004231609687767922,-0.013648293863236903
1738772919420206300,9.812206298828125,-0.07054653138816357,0.004189830072387122,-0.01906330464929342
1738772919430198500,9.822198486328125,-0.05781213749945163,-0.007995857592113315,-0.02196224096119404
1738772919440189400,9.832189453125,-0.05764730232656002,0.0009955823420314117,-0.0184258835285902
1738772919450180400,9.842180419921876,-0.05362462268173694,0.0032477406164165583,-0.026145079603791234
1738772919460171300,9.852171142578126,-0.040571664363145826,-0.003900204042624682,-0.01549362946897745
1738772919470162400,9.862162353515625,-0.0434048419624567,-0.0006711909595644101,-0.00924742855578661
1738772919480153300,9.8721533203125,-0.059280456486344335,0.0021995147716952486,-0.026254969719052314
1738772919490145300,9.882145263671875,-0.05388648848831653,0.006345848195650614,-0.011018822142481803
1738772919500136400,9.892136474609375,-0.0653992316275835,-0.0028771765712415796,-0.014795710332691668
1738772919510127400,9.90212744140625,-0.06046878948807716,0.005906589128705672,-0.00609159487336874
1738772919520118300,9.9121181640625,-0.061975686919689174,0.0015881688071647658,-0.014433306761085986
1738772919530109400,9.922109375,-0.03488426637649536,-0.003880165901593864,-0.027175883956253526
1738772919540100400,9.932100341796875,-0.05179390012323856,-0.00944970509565901,-0.009365209716558456
1738772919550092300,9.94209228515625,-0.08099369112253188,0.0003796698002377525,-0.014681728564202785
1738772919560083500,9.95208349609375,-0.05436112026274204,0.004138556542876176,-0.016467150676250458
1738772919570074400,9.962074462890625,-0.05103928236365318,0.0030716351308394223,-0.010586568205058574
1738772919580065300,9.972065185546874,-0.05688508578240871,0.006368114826385863,-0.01998012723326683
1738772919590056400,9.982056396484374,-0.0538923337072134,0.005525896415160969,-0.015939327409863473
1738772919600048400,9.99204833984375,-0.04894961660802364,-0.0027619161611190063,-0.007573942385613918
1738772919610039300,10.002039306640626,-0.0627414105951786,-0.019463807175005784,-0.011375965017080306
1738772919620030500,10.012030517578125,-0.06576046615540981,-0.0003927895767148584,-0.02639583949446678
1738772919630021400,10.022021484375,-0.053336453390121455,-0.002922961074882187,-0.01339227327555418
1738772919640012300,10.03201220703125,-0.04478782075345516,0.006051609922852367,-0.012114216163754462
1738772919650003500,10.04200341796875,-0.07382394562363624,0.001915213371021673,-0.025110768119990825
1738772919659995400,10.051995361328125,-0.055735915747284884,-0.006295976605359465,-0.021604513564705847
1738772919669986300,10.061986328125,-0.03043956192731857,-0.005216588437394238,-0.020136779099702833
1738772919679977500,10.0719775390625,-0.05332885460555553,0.0006380513083655387,-0.017909458439052103
1738772919689968400,10.081968505859376,-0.058277416923642154,0.00046127910250797865,-0.020269757829606532
1738772919699959300,10.091959228515625,-0.04077566250264644,-0.0021425101877190172,-0.008277999001741409
1738772919709951500,10.101951416015625,-0.05335691165626049,0.0003249256720067933,-0.013027239355444907
1738772919719942400,10.1119423828125,-0.06292495046854019,0.013345630255388095,-0.018743863436579702
1738772919729933300,10.121933349609375,-0.052146951344609255,-0.0010777944325003773,-0.023096505688130854
1738772919739924500,10.131924560546874,-0.06488777497410773,-0.004587546985968947,-0.018529343903064727
1738772919749915400,10.141915283203126,-0.06651742200255394,0.0014387823651544748,-0.0073678984194993965
1738772919759906300,10.15190625,-0.05736848538517952,0.0027185199773870406,-0.01896276688426733
1738772919769898500,10.1618984375,-0.0704103377878666,-0.008340296248765661,-0.01079933417290449
1738772919779889400,10.171889404296875,-0.06175064599215984,0.004205077873868868,-0.016264321580529213
1738772919789880300,10.18188037109375,-0.04287643417418003,-0.0009282116276677697,-0.0160360657826066
1738772919799871200,10.191871337890625,-0.05305880549252033,-0.013518141844659111,-0.020350129589438437
1738772919809862400,10.2018623046875,-0.06564706890881061,0.012874802439822815,-0.02447363926023245
1738772919819853300,10.211853271484374,-0.05935293720066547,-0.0059267140347044915,-0.011790391036868094
1738772919829845500,10.221845458984374,-0.05186579631567001,0.009017295894608833,-0.014053952054679393
1738772919839836400,10.23183642578125,-0.06116378601491451,-0.0074851863899268204,-0.012932839070260525
1738772919849827300,10.241827392578125,-0.06161795952320098,0.002624937109532766,-0.017852467554807662
1738772919859818200,10.251818359375,-0.05022562789320945,0.004815583588182926,-0.018674305331707
1738772919869809400,10.261809326171875,-0.06445932042896747,0.0017115166256204246,-0.01965717888921499
1738772919879801300,10.27180126953125,-0.062248074120283124,0.004703296019858681,-0.009960253000259399
1738772919889792300,10.281792236328124,-0.04339256700277328,0.0033914051371160894,-0.013855799134075641
1738772919899783400,10.291783447265624,-0.06778291189372539,-0.0015817481995327397,-0.02657937936782837
1738772919909774300,10.3017744140625,-0.06927519627809524,-0.00977987319836393,-0.02435118192434311
1738772919919765200,10.31176513671875,-0.05611643949747085,0.005777633553370833,-0.012345102310180663
1738772919929756400,10.32175634765625,-0.048345220974087715,0.007959192543267272,-0.0019859131202101706
1738772919939748400,10.331748291015625,-0.05777239001095295,0.0037797423009993504,-0.01650134520679712
1738772919949739300,10.3417392578125,-0.05567161833941936,-0.0026761467069620266,-0.01337912153303623
1738772919959730400,10.35173046875,-0.06374971085488795,-0.0015119161000242457,-0.018624328710138797
1738772919969721300,10.361721435546874,-0.06567921761274337,0.002245207943790592,-0.023618483735620973
1738772919979712300,10.371712158203126,-0.05985679506957531,0.0071180290113901715,-0.014295359595119952
1738772919989703400,10.381703369140626,-0.0672159256607294,0.0076884538770653306,-0.02018617119938135
1738772919999695400,10.3916953125,-0.06604279022812842,0.00008997527181636541,-0.025038579666614533
1738772920009686300,10.401686279296875,-0.05273790297508239,0.007126481745904311,-0.00988046576231718
1738772920019677400,10.411677490234375,-0.054823477077484126,0.0013093929649796337,-0.024578268678486347
1738772920029668400,10.42166845703125,-0.0672597648024559,0.0015909361529862507,-0.010155191050469874
1738772920039659300,10.4316591796875,-0.06366612422466278,-0.0024399541977560145,-0.016299392893910407
1738772920049650400,10.441650390625,-0.06339315250217914,0.0014530803185654802,-0.013810790948569773
1738772920059642400,10.451642333984376,-0.06532791995704174,-0.00860490656828042,-0.019085516481101513
1738772920069633300,10.46163330078125,-0.05590659613907337,-0.007193692630063742,-0.01711918484419584
1738772920079624400,10.47162451171875,-0.04286766634583473,0.008015023516886868,-0.015697335347533224
1738772920089615400,10.481615478515625,-0.04782499649226665,-0.007826359943835995,-0.009792202956974506
1738772920099605200,10.491605224609375,-0.053391982969641684,-0.00464801760208793,-0.015820669466257094
1738772920109597200,10.50159716796875,-0.06627192280888557,0.0016266833198023958,-0.013385843534767627
1738772920119588400,10.51158837890625,-0.04890227033495903,-0.006907473266939632,-0.02719400413483381
1738772920129579300,10.521579345703126,-0.056956397452950475,0.011774704843969084,0.006379179643094539
1738772920139570200,10.531570068359375,-0.07297814244925975,0.0005727675198111682,-0.013035130400955676
1738772920149561300,10.541561279296875,-0.07476327230036259,-0.011631592879118397,-0.024296821388602254
1738772920159552300,10.55155224609375,-0.04814122283458709,-0.004400367550528608,-0.020507950499653815
1738772920169544200,10.561544189453125,-0.054286301460862156,0.006272024907614104,-0.027805998553335664
1738772920179535400,10.571535400390625,-0.048158173969388006,0.002261542590660974,-0.019401158301532266
1738772920189526300,10.5815263671875,-0.05834697502851486,0.0076256223405012855,-0.011422726768255233
1738772920199517200,10.59151708984375,-0.05685585968792438,0.0026795396738685667,-0.0090104049295187
1738772920209508400,10.60150830078125,-0.04846212535202503,-0.0020666136736050248,-0.012802490688860416
1738772920219499300,10.611499267578125,-0.04725274956226349,-0.005751288969139568,-0.011051263107359408
1738772920229491200,10.6214912109375,-0.062379007023572915,0.008797853590804152,-0.012353285616636275
1738772920239482400,10.631482421875,-0.06117664549648762,-0.00693383611747995,-0.01386544374525547
1738772920249473300,10.641473388671875,-0.05920856029391289,-0.008206431602872908,-0.01993570356965065
1738772920259464200,10.651464111328124,-0.05277297428846359,-0.000982024174137041,-0.020538053376972672
1738772920269455400,10.661455322265626,-0.05635960060358047,0.006033900736225769,-0.014270517414808273
1738772920279446300,10.6714462890625,-0.06085282036960125,0.017052384951990098,-0.014105097720026969
1738772920289438200,10.681438232421876,-0.05905249294936656,0.004220955863012932,-0.021155893014371395
1738772920299429400,10.691429443359375,-0.06756137809753418,-0.004685084509733132,-0.010305413176119327
1738772920309420300,10.701420166015625,-0.058872460207343096,-0.006368429920217022,-0.011090133813023567
1738772920319411200,10.7114111328125,-0.06544774694442748,0.00589830535755027,-0.018154665371775625
1738772920329402000,10.721402099609374,-0.05602993025779724,0.002781730539863929,-0.010937865860760211
1738772920339394300,10.731394287109374,-0.06486439409852028,0.007659529176680371,-0.008073416340351105
1738772920349385200,10.74138525390625,-0.059042556077241896,-0.0025489401307189834,-0.014160042777657507
1738772920359376400,10.75137646484375,-0.04991349320411682,0.006867533982195891,-0.023441373603045938
1738772920369367300,10.7613671875,-0.06440905154645443,0.010946957916091196,-0.016327449944615362
1738772920379358200,10.771358154296875,-0.06441372772157192,-0.0020659971856744957,-0.018104981011152266
1738772920389349000,10.78134912109375,-0.04733458262681961,-0.004300090080406517,-0.023116963954269886
1738772920399341300,10.79134130859375,-0.05210661933422088,-0.002731388592114672,-0.016442893017828464
1738772920409332200,10.801332275390624,-0.0631903234064579,-0.0018032180636422708,-0.015059329704940318
1738772920419323100,10.8113232421875,-0.0597439823448658,0.002077614558232017,-0.00744447078704834
1738772920429314300,10.821314208984376,-0.07277414430975913,0.002109297471283935,-0.012341887439787386
1738772920439305200,10.83130517578125,-0.052441550377011294,-0.009054212105204351,-0.010628946042060852
1738772920449296100,10.841296142578125,-0.05124678763449192,-0.005543779131723567,-0.002841360905766487
1738772920459288300,10.851288330078125,-0.06288695654571055,-0.00024251265213824806,-0.01941547908782959
1738772920469279200,10.861279296875,-0.0660047963052988,0.000376888754684478,-0.024890403367578983
1738772920479270100,10.871270263671875,-0.06361410177648068,-0.0009274124766467138,-0.005573416218161583
1738772920489261300,10.88126123046875,-0.05778115783929824,-0.004529948746948503,-0.010350713622570036
1738772920499252200,10.891252197265626,-0.06018237376213073,-0.007664538711938076,-0.020503566585481164
1738772920509243100,10.9012431640625,-0.06768003604114055,0.004044676847499795,-0.011467150431871414
1738772920519235300,10.9112353515625,-0.06303191797435283,0.008784619649895466,-0.013448095116019248
1738772920529226200,10.921226318359375,-0.05540040018260479,0.0027120491374051196,-0.01973492030054331
1738772920539217200,10.931217041015625,-0.05824877535104751,0.005644942517834715,-0.019565993474423886
1738772920549208300,10.941208251953125,-0.04463116888701915,-0.00846116898234468,-0.018523206423223016
1738772920559199200,10.95119921875,-0.04431143541336059,-0.0005303029178408906,-0.01455430279225111
1738772920569190100,10.961190185546876,-0.054040802267193794,-0.0008486298857023939,-0.01738601908683777
1738772920579182300,10.971182373046876,-0.05942892504632473,0.0029654530763160436,-0.016038988392055035
1738772920589173200,10.98117333984375,-0.07124035887122154,-0.0019181222807383165,-0.00724661012738943
1738772920599164200,10.9911640625,-0.06062018065750598,0.00011056140211876481,-0.021148878751695153
1738772920609155300,11.0011552734375,-0.05719137525260448,0.0007390776971587911,-0.01586450860798359
1738772920619146200,11.011146240234375,-0.04894844756424427,0.0022461212592432274,-0.006335340501368045
1738772920629138200,11.02113818359375,-0.0567547374010086,0.00914344759150408,-0.02809329106211662
1738772920639129300,11.03112939453125,-0.05645721575915813,0.0058697870825417334,-0.016264321580529213
1738772920649120300,11.041120361328124,-0.04986848501861095,0.005037724739150144,-0.007155424712598324
1738772920659111200,11.051111083984376,-0.054524786391854284,-0.0045231582465581595,-0.025499767437577245
1738772920669102300,11.061102294921875,-0.0697737934499979,0.006562788015115074,-0.013279168289899826
1738772920679093200,11.07109326171875,-0.0651291825145483,0.0047973492451710625,-0.017640286108851433
1738772920689085200,11.081085205078125,-0.060497431060671805,-0.006263330144505016,-0.008933540301024914
1738772920699076400,11.091076416015625,-0.058254036048054694,0.00489443011120893,-0.01925298200249672
1738772920709067300,11.1010673828125,-0.05902735850811004,0.004495393456798047,-0.024399989502131937
1738772920719058200,11.11105810546875,-0.06877776814997195,0.00090637425519526,-0.026557167536020276
1738772920729049000,11.121049072265626,-0.062357379713654515,0.006753506547934375,-0.0045101709008216855
1738772920739040300,11.131040283203125,-0.06940846726894379,0.0027292605671100315,-0.01985971572399139
1738772920749032200,11.1410322265625,-0.053259881022572515,0.004281773539003916,-0.028195290131866932
1738772920759023400,11.1510234375,-0.05594166745245456,0.0018236032645450903,-0.007888707423210144
1738772920769014300,11.16101416015625,-0.05024257902801037,-0.00855553730148822,-0.015117781893908977
1738772920779005200,11.171005126953125,-0.05891454578340053,-0.0002243833404034376,-0.025170389352738857
1738772920788996000,11.18099609375,-0.05548807846605777,0.003957222326332703,-0.01688917548060417
1738772920798987300,11.1909873046875,-0.058494274544715875,0.011123113634018227,-0.013103519462049006
1738772920808979200,11.200979248046876,-0.06403671110272408,-0.009227436080528423,-0.010239654463529587
1738772920818970000,11.21097021484375,-0.06029401744306087,-0.008331834381096996,-0.014882511833310127
1738772920828961300,11.220961181640625,-0.06750292590856552,-0.0042924821626860645,-0.01523965470790863
1738772920838952200,11.2309521484375,-0.048204351198673244,0.0024645406497409567,-0.015522271041572094
1738772920848943400,11.240943359375,-0.04835983402132988,-0.0014543269941583274,-0.018493688067793845
1738772920858934500,11.2509345703125,-0.0715600923448801,0.009761223296821117,-0.03178776166588068
1738772920868926200,11.26092626953125,-0.05450315908193588,0.00546794654969126,-0.023252573032677172
1738772920878917000,11.270917236328126,-0.055553544917702674,-0.009596739750378764,-0.009176116885244846
1738772920888908300,11.280908203125,-0.05226151763498783,0.0006868817190406844,-0.01037584806382656
1738772920898899200,11.290899169921875,-0.06990531087517737,-0.001244072643807158,-0.017158347810804844
1738772920908890400,11.300890380859375,-0.07758066780865192,-0.0014012131340103223,-0.021344109062850475
1738772920918881500,11.310881591796875,-0.05199731374084949,-0.0013990942421602084,-0.016987959679961202
1738772920928873200,11.320873291015625,-0.05257949754297733,-0.00010925992759875953,-0.009563070376217364
1738772920938864000,11.330864013671874,-0.060794952702522276,-0.0028470645607681943,-0.022632687568664548
1738772920948855300,11.340855224609374,-0.0702490097463131,0.004947749467333779,-0.026427695937454698
1738772920958846200,11.35084619140625,-0.05530570763647556,-0.005923704660288058,-0.004658639460802078
1738772920968837400,11.36083740234375,-0.05349836595356464,-0.005983056464977562,-0.020411212126910685
1738772920978828500,11.37082861328125,-0.06741466310322285,-0.017363935119193045,-0.020559388425946235
1738772920988820200,11.3808203125,-0.05218260717988014,-0.008520269625284708,-0.007581248909235
1738772920998811100,11.39081103515625,-0.054421910539269445,0.002696970299282111,-0.01134177048653364
1738772921008802300,11.40080224609375,-0.059496145063638685,-0.0037976021846756335,-0.015577508360147475
1738772921018793500,11.41079345703125,-0.06925123088061809,0.00007298760439734906,-0.014128770856559275
1738772921028784400,11.420784423828126,-0.07329553783535957,0.002474820015160367,-0.01830401071459055
1738772921038776300,11.4307763671875,-0.0520621956706047,0.005546857004798948,-0.017499708594381807
1738772921048767200,11.440767333984375,-0.04893266547322273,0.005503803314361721,-0.01431289525181055
1738772921058758100,11.450758056640625,-0.0667629211962223,0.007176166106527671,-0.02979308071732521
1738772921068749300,11.460749267578125,-0.0636129327327013,-0.004261434003873728,-0.0006397592082619666
1738772921078740500,11.470740478515625,-0.06435410648882389,-0.0028627279207808897,0.004424830704927444
1738772921088731400,11.4807314453125,-0.07259118895828723,0.006149773067701607,-0.01739683274179697
1738772921098723600,11.4907236328125,-0.059546998468041415,-0.006944759370293468,-0.013897300188243387
1738772921108714500,11.500714599609376,-0.045916532522439955,-0.0014032589606242255,-0.009760346513986587
1738772921118705700,11.51070556640625,-0.050393385675549504,0.0033520823403028767,-0.021323943057656287
1738772921128696600,11.520696533203125,-0.04471066386401653,-0.002471070855227299,-0.012784955032169818
1738772921138687500,11.5306875,-0.0613210224032402,-0.0026389017028035596,-0.010388123023509978
1738772921148678700,11.5406787109375,-0.07089607547819614,-0.0006121496821288019,-0.01144289277344942
1738772921158670600,11.550670654296875,-0.05098433730602264,-0.00015963840796612202,-0.010877952367067336
1738772921168661500,11.56066162109375,-0.04677987135350704,-0.0032172541466075925,-0.007937515000998973
1738772921178652700,11.570652587890624,-0.05859831944108009,-0.003196307256701402,-0.014084639453887939
1738772921188643600,11.5806435546875,-0.06414952382743358,0.004458500079088844,-0.0023597148686647414
1738772921198634800,11.590634765625,-0.05168634809553623,-0.0010064462293405084,-0.0020645313143730164
1738772921208626000,11.6006259765625,-0.04897942722439766,0.00241903014073614,-0.02336070958226919
1738772921218617600,11.61061767578125,-0.05735913303494453,0.009096051086089574,-0.009596680384874344
1738772921228608500,11.6206083984375,-0.06695347533226013,-0.009867989873234182,-0.027490648993849752
1738772921238599700,11.630599609375,-0.049121466043591494,-0.0018530896539334207,-0.023243805204331874
1738772921248590600,11.640590576171874,-0.06569967587888241,0.016454323160718196,-0.014976619857549667
1738772921258581800,11.650581787109376,-0.06768938839137553,-0.00429368317250628,-0.016314590463042258
1738772921268573000,11.660572998046876,-0.06384440340101719,0.0072557295821839935,-0.012859481573104858
1738772921278564600,11.670564697265625,-0.05635550895035266,-0.006686103867529891,-0.019918752434849737
1738772921288555500,11.680555419921875,-0.06040098494887352,-0.00754049220716115,-0.018702946904301642
1738772921298546700,11.690546630859375,-0.07432546540498733,0.00595905910145957,-0.018224807998538015
1738772921308537600,11.70053759765625,-0.06104571259319782,-0.005550688363122754,-0.017192834602296352
1738772921318528800,11.71052880859375,-0.06899521029293537,0.0024458816150436176,-0.006350245809555053
1738772921328519700,11.720519775390626,-0.05433130964636802,0.0007912325760815292,-0.015923837579786777
1738772921338511600,11.73051171875,-0.06151391462683677,0.00987593571767211,-0.018170739723742006
1738772921348502500,11.74050244140625,-0.06706453449130058,0.0012353230817709116,-0.020666063670814035
1738772921358493700,11.75049365234375,-0.052231707018613814,0.0071333544446853915,-0.008464169223606585
1738772921368484600,11.760484619140625,-0.04891805242598057,-0.005329812154057435,-0.009437398169934748
1738772921378475800,11.770475830078125,-0.07240472647547722,0.0028680479832924903,-0.022476912485063075
1738772921388466700,11.780466796875,-0.07630231843590736,-0.0005428336058510467,-0.02544569916278124
1738772921398458600,11.790458740234374,-0.055039750176668165,0.005570068917027674,-0.0021548399463295937
