time,seconds_elapsed,z,y,x
1738772909631342000,0.023342041015625,-0.9679412841796875,-0.0055999755859375,-0.2696075439453125
1738772909641333200,0.033333251953125,-0.97174072265625,-0.0041351318359375,-0.27239990234375
1738772909651324200,0.04332421875,-0.96661376953125,-0.00506591796875,-0.270416259765625
1738772909661315300,0.0533154296875,-0.96685791015625,-0.0052032470703125,-0.2695770263671875
1738772909671306200,0.06330615234375,-0.9698638916015625,-0.0044708251953125,-0.272430419921875
1738772909681298200,0.073298095703125,-0.9683685302734375,-0.0049285888671875,-0.27166748046875
1738772909691289000,0.0832890625,-0.9676361083984375,-0.004180908203125,-0.2715606689453125
1738772909701280300,0.0932802734375,-0.9695892333984375,-0.005096435546875,-0.2702484130859375
1738772909711271200,0.103271240234375,-0.9688720703125,-0.0053253173828125,-0.270416259765625
1738772909721262300,0.113262451171875,-0.9663543701171875,-0.005035400390625,-0.271148681640625
1738772909731253200,0.123253173828125,-0.968414306640625,-0.0042724609375,-0.2707366943359375
1738772909741245200,0.1332451171875,-0.970001220703125,-0.00457763671875,-0.271484375
1738772909751236000,0.143236083984375,-0.9690399169921875,-0.0059814453125,-0.271026611328125
1738772909761227000,0.15322705078125,-0.9679107666015625,-0.0066375732421875,-0.2709808349609375
1738772909771218200,0.16321826171875,-0.969818115234375,-0.0044403076171875,-0.272064208984375
1738772909781209300,0.173209228515625,-0.968597412109375,-0.0042877197265625,-0.270721435546875
1738772909791200300,0.1832001953125,-0.9679412841796875,-0.004241943359375,-0.2703094482421875
1738772909801192200,0.193192138671875,-0.9677581787109375,-0.0054779052734375,-0.27093505859375
1738772909811183000,0.20318310546875,-0.969696044921875,-0.00543212890625,-0.2711639404296875
1738772909821174300,0.21317431640625,-0.9687652587890625,-0.0052642822265625,-0.271759033203125
1738772909831165400,0.22316552734375,-0.968231201171875,-0.00408935546875,-0.271453857421875
1738772909841156400,0.23315625,-0.9691925048828125,-0.005462646484375,-0.2705078125
1738772909851147300,0.243147216796875,-0.9699859619140625,-0.0049285888671875,-0.271026611328125
1738772909861139200,0.25313916015625,-0.969329833984375,-0.004486083984375,-0.2712554931640625
1738772909871130000,0.263130126953125,-0.969512939453125,-0.0046539306640625,-0.2710723876953125
1738772909881121300,0.273121337890625,-0.969696044921875,-0.004669189453125,-0.272186279296875
1738772909891112400,0.283112548828125,-0.96795654296875,-0.006011962890625,-0.2716064453125
1738772909901103400,0.293103271484375,-0.9694366455078125,-0.0044403076171875,-0.2711029052734375
1738772909911094300,0.30309423828125,-0.96905517578125,-0.0048065185546875,-0.2711334228515625
1738772909921086200,0.313086181640625,-0.9701995849609375,-0.005340576171875,-0.270111083984375
1738772909931077000,0.3230771484375,-0.9670257568359375,-0.00469970703125,-0.2718048095703125
1738772909941068300,0.333068359375,-0.9685211181640625,-0.0054931640625,-0.271942138671875
1738772909951059500,0.3430595703125,-0.97021484375,-0.00457763671875,-0.2721710205078125
1738772909961050400,0.35305029296875,-0.969482421875,-0.00537109375,-0.2704315185546875
1738772909971041300,0.363041259765625,-0.970062255859375,-0.005157470703125,-0.271942138671875
1738772909981033200,0.373033203125,-0.9691009521484375,-0.005157470703125,-0.27203369140625
1738772909991024000,0.383024169921875,-0.9686431884765625,-0.005859375,-0.2703857421875
1738772910001015300,0.393015380859375,-0.968505859375,-0.006134033203125,-0.270233154296875
1738772910011006500,0.40300634765625,-0.968902587890625,-0.0043182373046875,-0.27203369140625
1738772910020997400,0.412997314453125,-0.9697418212890625,-0.005218505859375,-0.2708587646484375
1738772910030988300,0.42298828125,-0.9680023193359375,-0.0044097900390625,-0.269989013671875
1738772910040980200,0.432980224609375,-0.9681396484375,-0.00518798828125,-0.2711334228515625
1738772910050971400,0.442971435546875,-0.9701080322265625,-0.005462646484375,-0.2720184326171875
1738772910060962300,0.45296240234375,-0.9712982177734375,-0.005462646484375,-0.2714691162109375
1738772910070953200,0.462953125,-0.968597412109375,-0.004425048828125,-0.269622802734375
1738772910080944000,0.472944091796875,-0.9675445556640625,-0.0052490234375,-0.2696990966796875
1738772910090936000,0.48293603515625,-0.9703369140625,-0.0042572021484375,-0.272216796875
1738772910100927000,0.492927001953125,-0.96917724609375,-0.0054779052734375,-0.27069091796875
1738772910110918100,0.502918212890625,-0.96771240234375,-0.0049896240234375,-0.2697601318359375
1738772910120909000,0.512908935546875,-0.9695587158203125,-0.00506591796875,-0.2716827392578125
1738772910130900000,0.52289990234375,-0.970855712890625,-0.0047454833984375,-0.272979736328125
1738772910140891100,0.53289111328125,-0.9696044921875,-0.0043182373046875,-0.271087646484375
1738772910150883000,0.542883056640625,-0.9684600830078125,-0.00457763671875,-0.2717132568359375
1738772910160874000,0.5528740234375,-0.968841552734375,-0.0055999755859375,-0.2706146240234375
1738772910170865200,0.562865234375,-0.96978759765625,-0.0040130615234375,-0.271697998046875
1738772910180856000,0.57285595703125,-0.96820068359375,-0.00421142578125,-0.271759033203125
1738772910190847000,0.582846923828125,-0.969757080078125,-0.0046844482421875,-0.270751953125
1738772910200838100,0.592838134765625,-0.968719482421875,-0.0048675537109375,-0.271636962890625
1738772910210830000,0.602830078125,-0.968902587890625,-0.0042724609375,-0.2717437744140625
1738772910220821000,0.612821044921875,-0.9684295654296875,-0.0044097900390625,-0.2716827392578125
1738772910230812200,0.622812255859375,-0.9693450927734375,-0.0062103271484375,-0.2716217041015625
1738772910240803000,0.632802978515625,-0.9688873291015625,-0.0047760009765625,-0.272125244140625
1738772910250794000,0.6427939453125,-0.96856689453125,-0.006134033203125,-0.270904541015625
1738772910260785200,0.65278515625,-0.9702606201171875,-0.0053253173828125,-0.27142333984375
1738772910270777000,0.662777099609375,-0.9689788818359375,-0.0043792724609375,-0.2708587646484375
1738772910280768000,0.67276806640625,-0.969573974609375,-0.004302978515625,-0.27197265625
1738772910290759200,0.68275927734375,-0.969207763671875,-0.0039825439453125,-0.2719879150390625
1738772910300750000,0.69275,-0.968841552734375,-0.005157470703125,-0.270782470703125
1738772910310741000,0.702740966796875,-0.9705047607421875,-0.0058746337890625,-0.270721435546875
1738772910320732000,0.71273193359375,-0.9678497314453125,-0.004364013671875,-0.2703857421875
1738772910330724000,0.72272412109375,-0.9690704345703125,-0.0050048828125,-0.270660400390625
1738772910340715000,0.732715087890625,-0.9699554443359375,-0.0045928955078125,-0.2714385986328125
1738772910350706200,0.7427060546875,-0.9693756103515625,-0.00482177734375,-0.27099609375
1738772910360697000,0.752697021484375,-0.9687042236328125,-0.006011962890625,-0.2699737548828125
1738772910370688000,0.76268798828125,-0.9692840576171875,-0.0050048828125,-0.271087646484375
1738772910380679000,0.772678955078125,-0.9696807861328125,-0.0061492919921875,-0.2711181640625
1738772910390671000,0.782671142578125,-0.9691009521484375,-0.00360107421875,-0.2708740234375
1738772910400662000,0.792662109375,-0.9683837890625,-0.003631591796875,-0.2706451416015625
1738772910410653000,0.80265283203125,-0.969482421875,-0.0043792724609375,-0.2707061767578125
1738772910420644000,0.81264404296875,-0.969573974609375,-0.0048675537109375,-0.270172119140625
1738772910430635000,0.822635009765625,-0.9688873291015625,-0.005157470703125,-0.2711944580078125
1738772910440627200,0.832627197265625,-0.967437744140625,-0.0059356689453125,-0.271820068359375
1738772910450618000,0.8426181640625,-0.96881103515625,-0.0049591064453125,-0.2710113525390625
1738772910460609000,0.852609130859375,-0.9698333740234375,-0.005584716796875,-0.271484375
1738772910470600000,0.862599853515625,-0.9686431884765625,-0.005645751953125,-0.270721435546875
1738772910480591000,0.872591064453125,-0.9699554443359375,-0.0052642822265625,-0.270355224609375
1738772910490582000,0.88258203125,-0.97052001953125,-0.00360107421875,-0.270721435546875
1738772910500574000,0.892573974609375,-0.9691925048828125,-0.0049285888671875,-0.27056884765625
1738772910510565000,0.902565185546875,-0.969482421875,-0.0043182373046875,-0.270263671875
1738772910520556000,0.91255615234375,-0.9703369140625,-0.0041656494140625,-0.2712554931640625
1738772910530547000,0.922546875,-0.9691314697265625,-0.0059814453125,-0.2708587646484375
1738772910540538000,0.9325380859375,-0.9677581787109375,-0.005279541015625,-0.2714385986328125
1738772910550530000,0.942530029296875,-0.968658447265625,-0.0042572021484375,-0.2699737548828125
1738772910560521000,0.95252099609375,-0.9679412841796875,-0.0057830810546875,-0.27130126953125
1738772910570512100,0.96251220703125,-0.9678802490234375,-0.00482177734375,-0.2722015380859375
1738772910580503000,0.9725029296875,-0.9698944091796875,-0.0051116943359375,-0.2718353271484375
1738772910590494000,0.982493896484375,-0.969818115234375,-0.0046844482421875,-0.2699432373046875
1738772910600485000,0.992485107421875,-0.969451904296875,-0.0049591064453125,-0.2711334228515625
1738772910610477000,1.00247705078125,-0.9697113037109375,-0.0047760009765625,-0.2712554931640625
1738772910620468000,1.012468017578125,-0.96856689453125,-0.0060577392578125,-0.2705535888671875
1738772910630459100,1.022459228515625,-0.9697113037109375,-0.0051422119140625,-0.270233154296875
1738772910640450000,1.032449951171875,-0.969451904296875,-0.0051116943359375,-0.2698516845703125
1738772910650441000,1.04244091796875,-0.9677276611328125,-0.003570556640625,-0.27215576171875
1738772910660432100,1.05243212890625,-0.96612548828125,-0.0052947998046875,-0.2710723876953125
1738772910670424000,1.062424072265625,-0.969573974609375,-0.005584716796875,-0.2703857421875
1738772910680415000,1.0724150390625,-0.968292236328125,-0.0048675537109375,-0.271697998046875
1738772910690406100,1.08240625,-0.967498779296875,-0.0039215087890625,-0.2713623046875
1738772910700397000,1.09239697265625,-0.9685516357421875,-0.0052337646484375,-0.2708740234375
1738772910710388000,1.102387939453125,-0.9696502685546875,-0.0053253173828125,-0.271148681640625
1738772910720380200,1.112380126953125,-0.9695587158203125,-0.004669189453125,-0.2717742919921875
1738772910730371000,1.12237109375,-0.96893310546875,-0.005035400390625,-0.270843505859375
1738772910740362000,1.132362060546875,-0.9693756103515625,-0.004058837890625,-0.2716064453125
1738772910750353200,1.142353271484375,-0.969268798828125,-0.0052337646484375,-0.2706756591796875
1738772910760344000,1.152343994140625,-0.9695281982421875,-0.00494384765625,-0.2708740234375
1738772910770335000,1.1623349609375,-0.9685516357421875,-0.0063018798828125,-0.269744873046875
1738772910780327200,1.1723271484375,-0.969757080078125,-0.006103515625,-0.27099609375
1738772910790318000,1.182318115234375,-0.9669647216796875,-0.0053253173828125,-0.2711639404296875
1738772910800309000,1.19230908203125,-0.9675445556640625,-0.0044097900390625,-0.27044677734375
1738772910810300000,1.2022998046875,-0.9699249267578125,-0.00445556640625,-0.2715606689453125
1738772910820291000,1.212291015625,-0.969573974609375,-0.0051422119140625,-0.2717132568359375
1738772910830282000,1.222281982421875,-0.9687042236328125,-0.0050506591796875,-0.269927978515625
1738772910840274200,1.232274169921875,-0.969482421875,-0.005523681640625,-0.271392822265625
1738772910850265000,1.24226513671875,-0.969329833984375,-0.0052947998046875,-0.27142333984375
1738772910860256000,1.252256103515625,-0.96929931640625,-0.0041961669921875,-0.2716522216796875
1738772910870247000,1.262246826171875,-0.9689178466796875,-0.0043182373046875,-0.2701568603515625
1738772910880238000,1.272238037109375,-0.9697265625,-0.0048828125,-0.2711639404296875
1738772910890230000,1.28222998046875,-0.9703521728515625,-0.0052337646484375,-0.2708282470703125
1738772910900221000,1.292220947265625,-0.969207763671875,-0.0055694580078125,-0.271942138671875
1738772910910212000,1.302212158203125,-0.969512939453125,-0.004913330078125,-0.2720794677734375
1738772910920203000,1.312203125,-0.96795654296875,-0.0046234130859375,-0.2713775634765625
1738772910930194000,1.32219384765625,-0.9682464599609375,-0.00494384765625,-0.271026611328125
1738772910940185000,1.33218505859375,-0.969329833984375,-0.005096435546875,-0.2693939208984375
1738772910950177000,1.342177001953125,-0.970306396484375,-0.0048675537109375,-0.271484375
1738772910960168000,1.35216796875,-0.9682464599609375,-0.006072998046875,-0.2723541259765625
1738772910970159000,1.3621591796875,-0.967620849609375,-0.0050811767578125,-0.2705535888671875
1738772910980150000,1.37214990234375,-0.969757080078125,-0.0051727294921875,-0.2696990966796875
1738772910990141000,1.382140869140625,-0.96875,-0.004791259765625,-0.27178955078125
1738772911000133000,1.392133056640625,-0.9693756103515625,-0.0048828125,-0.2717742919921875
1738772911010124000,1.4021240234375,-0.9695892333984375,-0.004486083984375,-0.2698516845703125
1738772911020115000,1.412114990234375,-0.9690093994140625,-0.0050201416015625,-0.2709503173828125
1738772911030106000,1.422106201171875,-0.9695892333984375,-0.0043182373046875,-0.2714996337890625
1738772911040097000,1.432096923828125,-0.9698333740234375,-0.0041961669921875,-0.27032470703125
1738772911050088000,1.442087890625,-0.9683990478515625,-0.0037689208984375,-0.2718658447265625
1738772911060080000,1.452080078125,-0.96734619140625,-0.005279541015625,-0.2722930908203125
1738772911070071000,1.462071044921875,-0.9698333740234375,-0.006500244140625,-0.2707672119140625
1738772911080062000,1.47206201171875,-0.9691925048828125,-0.0042572021484375,-0.271881103515625
1738772911090052400,1.48205224609375,-0.96832275390625,-0.00390625,-0.2702178955078125
1738772911100043500,1.49204345703125,-0.9687347412109375,-0.004791259765625,-0.272186279296875
1738772911110034400,1.502034423828125,-0.9690399169921875,-0.005340576171875,-0.2704010009765625
1738772911120026400,1.5120263671875,-0.96807861328125,-0.0051116943359375,-0.2720794677734375
1738772911130017500,1.522017578125,-0.9689788818359375,-0.0058746337890625,-0.27117919921875
1738772911140008400,1.532008544921875,-0.9691314697265625,-0.0040740966796875,-0.27099609375
1738772911149999400,1.541999267578125,-0.9678955078125,-0.003326416015625,-0.2718963623046875
1738772911159990500,1.551990478515625,-0.9697418212890625,-0.0041656494140625,-0.27020263671875
1738772911169982500,1.561982421875,-0.9694061279296875,-0.004364013671875,-0.2708892822265625
1738772911179973400,1.571973388671875,-0.9697418212890625,-0.0031585693359375,-0.2715911865234375
1738772911189964500,1.581964599609375,-0.968841552734375,-0.00555419921875,-0.2715606689453125
1738772911199955500,1.59195556640625,-0.9701385498046875,-0.0055694580078125,-0.2716064453125
1738772911209946400,1.6019462890625,-0.96929931640625,-0.00506591796875,-0.271087646484375
1738772911219937500,1.6119375,-0.9689483642578125,-0.0045013427734375,-0.2709197998046875
1738772911229929500,1.621929443359375,-0.9694366455078125,-0.0043487548828125,-0.2714996337890625
1738772911239920400,1.63192041015625,-0.969879150390625,-0.0040435791015625,-0.2722015380859375
1738772911249911600,1.64191162109375,-0.96868896484375,-0.00518798828125,-0.2715606689453125
1738772911259902500,1.65190234375,-0.9691619873046875,-0.0040740966796875,-0.2716522216796875
1738772911269893400,1.661893310546875,-0.9686279296875,-0.0041961669921875,-0.270751953125
1738772911279884300,1.67188427734375,-0.9682159423828125,-0.0053253173828125,-0.270843505859375
1738772911289876500,1.68187646484375,-0.970489501953125,-0.0052490234375,-0.2703399658203125
1738772911299867400,1.691867431640625,-0.9672088623046875,-0.005828857421875,-0.2705078125
1738772911309858600,1.701858642578125,-0.968994140625,-0.004608154296875,-0.2704620361328125
1738772911319849500,1.711849365234375,-0.9712066650390625,-0.0040283203125,-0.2715301513671875
1738772911329840400,1.72184033203125,-0.96990966796875,-0.004638671875,-0.2715301513671875
1738772911339832600,1.73183251953125,-0.9680328369140625,-0.0043487548828125,-0.27191162109375
1738772911349823500,1.741823486328125,-0.96795654296875,-0.0043792724609375,-0.2721099853515625
1738772911359814400,1.751814453125,-0.970672607421875,-0.00482177734375,-0.2714691162109375
1738772911369805300,1.761805419921875,-0.9701385498046875,-0.0044708251953125,-0.2717742919921875
1738772911379796500,1.77179638671875,-0.967620849609375,-0.0043487548828125,-0.2703399658203125
1738772911389787400,1.781787353515625,-0.970367431640625,-0.00579833984375,-0.2716522216796875
1738772911399779600,1.791779541015625,-0.9691619873046875,-0.0052642822265625,-0.27215576171875
1738772911409770500,1.8017705078125,-0.9690704345703125,-0.0044403076171875,-0.2708282470703125
1738772911419761400,1.811761474609375,-0.9699859619140625,-0.0041656494140625,-0.27142333984375
1738772911429752300,1.82175244140625,-0.968780517578125,-0.0050811767578125,-0.271392822265625
1738772911439743500,1.831743408203125,-0.9688262939453125,-0.005157470703125,-0.272247314453125
1738772911449734400,1.841734375,-0.968719482421875,-0.0035858154296875,-0.2712554931640625
1738772911459726300,1.851726318359375,-0.9687347412109375,-0.0049591064453125,-0.2715606689453125
1738772911469717500,1.861717529296875,-0.9687957763671875,-0.00494384765625,-0.26971435546875
1738772911479708400,1.87170849609375,-0.9696807861328125,-0.0033111572265625,-0.2697601318359375
1738772911489699300,1.88169921875,-0.9694976806640625,-0.0047454833984375,-0.2707977294921875
1738772911499690500,1.8916904296875,-0.9689178466796875,-0.005279541015625,-0.2709503173828125
1738772911509682400,1.901682373046875,-0.9690704345703125,-0.0039825439453125,-0.271087646484375
1738772911519673300,1.91167333984375,-0.967926025390625,-0.004241943359375,-0.269622802734375
1738772911529664500,1.92166455078125,-0.9695281982421875,-0.0047149658203125,-0.270263671875
1738772911539655400,1.931655517578125,-0.9705352783203125,-0.005401611328125,-0.2718048095703125
1738772911549646300,1.941646240234375,-0.966796875,-0.0048370361328125,-0.269866943359375
1738772911559637500,1.951637451171875,-0.968963623046875,-0.00457763671875,-0.2719268798828125
1738772911569629400,1.96162939453125,-0.969940185546875,-0.003692626953125,-0.2721099853515625
1738772911579620400,1.971620361328125,-0.96929931640625,-0.00433349609375,-0.270965576171875
1738772911589611500,1.981611572265625,-0.96783447265625,-0.0052642822265625,-0.26959228515625
1738772911599602400,1.9916025390625,-0.9686279296875,-0.0045318603515625,-0.271484375
1738772911609593300,2.00159326171875,-0.9710693359375,-0.0047760009765625,-0.270843505859375
1738772911619584500,2.01158447265625,-0.969970703125,-0.0052337646484375,-0.271026611328125
1738772911629576400,2.021576416015625,-0.9682464599609375,-0.004791259765625,-0.2714080810546875
1738772911639567400,2.0315673828125,-0.96875,-0.0039825439453125,-0.269989013671875
1738772911649558500,2.04155859375,-0.9688873291015625,-0.004852294921875,-0.27117919921875
1738772911659549400,2.051549560546875,-0.96844482421875,-0.004974365234375,-0.27069091796875
1738772911669540400,2.061540283203125,-0.9676361083984375,-0.0037384033203125,-0.271240234375
1738772911679531300,2.07153125,-0.9673919677734375,-0.00396728515625,-0.27093505859375
1738772911689523500,2.0815234375,-0.970001220703125,-0.0052642822265625,-0.271270751953125
1738772911699514400,2.091514404296875,-0.96978759765625,-0.004638671875,-0.2706146240234375
1738772911709505500,2.101505615234375,-0.967742919921875,-0.003814697265625,-0.2706756591796875
1738772911719496400,2.111496337890625,-0.9680328369140625,-0.0048065185546875,-0.27056884765625
1738772911729487400,2.1214873046875,-0.9705657958984375,-0.0044403076171875,-0.2713623046875
1738772911739479600,2.1314794921875,-0.9705047607421875,-0.004119873046875,-0.2716522216796875
1738772911749470500,2.141470458984375,-0.968231201171875,-0.0045013427734375,-0.270538330078125
1738772911759461400,2.15146142578125,-0.9694366455078125,-0.0037841796875,-0.26959228515625
1738772911769452300,2.161452392578125,-0.9707489013671875,-0.0056915283203125,-0.270904541015625
1738772911779443500,2.171443359375,-0.9691314697265625,-0.0046539306640625,-0.27142333984375
1738772911789434400,2.181434326171875,-0.9688873291015625,-0.00396728515625,-0.270355224609375
1738772911799426600,2.191426513671875,-0.9697113037109375,-0.0045928955078125,-0.2713623046875
1738772911809417500,2.20141748046875,-0.969512939453125,-0.004150390625,-0.2726287841796875
1738772911819408400,2.211408447265625,-0.9697265625,-0.0039520263671875,-0.269775390625
1738772911829399300,2.2213994140625,-0.9675750732421875,-0.0059967041015625,-0.271270751953125
1738772911839390500,2.231390380859375,-0.968505859375,-0.0051727294921875,-0.2714385986328125
1738772911849381400,2.24138134765625,-0.9693603515625,-0.0052642822265625,-0.271331787109375
1738772911859373300,2.251373291015625,-0.9698028564453125,-0.0050201416015625,-0.2709503173828125
1738772911869364500,2.261364501953125,-0.9693603515625,-0.0048980712890625,-0.26953125
1738772911879355400,2.27135546875,-0.969085693359375,-0.00482177734375,-0.26971435546875
1738772911889346300,2.28134619140625,-0.96942138671875,-0.0048065185546875,-0.271087646484375
1738772911899337500,2.29133740234375,-0.96832275390625,-0.0065460205078125,-0.27099609375
1738772911909329400,2.301329345703125,-0.96881103515625,-0.005035400390625,-0.2713470458984375
1738772911919320300,2.3113203125,-0.96759033203125,-0.0040435791015625,-0.2711944580078125
1738772911929311500,2.3213115234375,-0.9692535400390625,-0.004547119140625,-0.2706298828125
1738772911939302400,2.331302490234375,-0.970245361328125,-0.00482177734375,-0.2716217041015625
1738772911949293300,2.341293212890625,-0.9689483642578125,-0.005615234375,-0.2715301513671875
1738772911959284500,2.351284423828125,-0.9685516357421875,-0.003997802734375,-0.270782470703125
1738772911969276400,2.3612763671875,-0.969970703125,-0.00518798828125,-0.2700958251953125
1738772911979267300,2.371267333984375,-0.9701080322265625,-0.00628662109375,-0.2716064453125
1738772911989258500,2.381258544921875,-0.968017578125,-0.00555419921875,-0.2710723876953125
1738772911999249400,2.39124951171875,-0.968780517578125,-0.0046844482421875,-0.2707061767578125
1738772912009240300,2.401240234375,-0.9686126708984375,-0.00482177734375,-0.2711944580078125
1738772912019232500,2.411232421875,-0.96942138671875,-0.005126953125,-0.2719879150390625
1738772912029223400,2.421223388671875,-0.9686279296875,-0.004119873046875,-0.2698516845703125
1738772912039214300,2.43121435546875,-0.9676971435546875,-0.005218505859375,-0.271240234375
1738772912049205500,2.44120556640625,-0.96978759765625,-0.0040740966796875,-0.2708740234375
1738772912059196400,2.451196533203125,-0.9698486328125,-0.005035400390625,-0.2713623046875
1738772912069187300,2.461187255859375,-0.970306396484375,-0.0031890869140625,-0.271484375
1738772912079179500,2.471179443359375,-0.97015380859375,-0.0052947998046875,-0.2718963623046875
1738772912089170700,2.481170654296875,-0.9688873291015625,-0.0054931640625,-0.271942138671875
1738772912099161600,2.49116162109375,-0.9683685302734375,-0.004058837890625,-0.270416259765625
1738772912109152800,2.50115283203125,-0.96990966796875,-0.0044097900390625,-0.27069091796875
1738772912119143700,2.511143798828125,-0.9705657958984375,-0.005126953125,-0.271209716796875
1738772912129135600,2.521135498046875,-0.968353271484375,-0.004608154296875,-0.270751953125
1738772912139126800,2.531126708984375,-0.96881103515625,-0.00384521484375,-0.271575927734375
1738772912149117700,2.54111767578125,-0.97015380859375,-0.0058746337890625,-0.2712554931640625
1738772912159108600,2.551108642578125,-0.9691925048828125,-0.0045928955078125,-0.27117919921875
1738772912169099800,2.561099853515625,-0.9672088623046875,-0.0033111572265625,-0.27093505859375
1738772912179091700,2.571091796875,-0.9684600830078125,-0.00469970703125,-0.271575927734375
1738772912189082600,2.58108251953125,-0.971710205078125,-0.0055694580078125,-0.2742767333984375
1738772912199073800,2.59107373046875,-0.9841156005859375,0.0086212158203125,-0.28759765625
1738772912209064700,2.601064697265625,-0.9375457763671875,-0.0205535888671875,-0.26104736328125
1738772912219055600,2.6110556640625,-0.979766845703125,-0.0018157958984375,-0.2748565673828125
1738772912229047800,2.6210478515625,-0.96826171875,-0.0044097900390625,-0.2708282470703125
1738772912239038700,2.631038818359375,-0.96942138671875,-0.0045928955078125,-0.2689666748046875
1738772912249029600,2.641029541015625,-0.97076416015625,-0.0023345947265625,-0.2681732177734375
1738772912259020800,2.651020751953125,-0.970947265625,-0.0095977783203125,-0.2680816650390625
1738772912269011700,2.66101171875,-0.966827392578125,-0.003631591796875,-0.271087646484375
1738772912279002600,2.671002685546875,-0.9730682373046875,-0.006195068359375,-0.2712249755859375
1738772912288994800,2.680994873046875,-0.96868896484375,-0.003753662109375,-0.27215576171875
1738772912298985700,2.69098583984375,-0.9686279296875,-0.0061798095703125,-0.268157958984375
1738772912308976600,2.7009765625,-0.96722412109375,-0.00299072265625,-0.2725982666015625
1738772912318967600,2.710967529296875,-0.97235107421875,-0.005645751953125,-0.2700042724609375
1738772912328958700,2.720958740234375,-0.9667510986328125,-0.003509521484375,-0.2729339599609375
1738772912338950700,2.73095068359375,-0.9691314697265625,-0.0045013427734375,-0.270538330078125
1738772912348941800,2.74094189453125,-0.9687652587890625,-0.0063629150390625,-0.2724761962890625
1738772912358932700,2.7509326171875,-0.970184326171875,-0.0040130615234375,-0.271148681640625
1738772912368923600,2.760923583984375,-0.9688873291015625,-0.005218505859375,-0.2713165283203125
1738772912378914600,2.77091455078125,-0.96923828125,-0.0048828125,-0.26995849609375
1738772912388905700,2.78090576171875,-0.96868896484375,-0.003814697265625,-0.271331787109375
1738772912398897700,2.790897705078125,-0.9690704345703125,-0.0044708251953125,-0.2716827392578125
1738772912408888600,2.800888671875,-0.9695281982421875,-0.0048675537109375,-0.2713165283203125
1738772912418879700,2.810879638671875,-0.968597412109375,-0.0048828125,-0.271392822265625
1738772912428870700,2.82087060546875,-0.969940185546875,-0.0045318603515625,-0.27056884765625
1738772912438861600,2.830861572265625,-0.97149658203125,-0.00390625,-0.2698516845703125
1738772912448853800,2.840853759765625,-0.9680023193359375,-0.003570556640625,-0.2704010009765625
1738772912458844700,2.8508447265625,-0.96728515625,-0.0048370361328125,-0.27178955078125
1738772912468835600,2.860835693359375,-0.9689178466796875,-0.0050201416015625,-0.271514892578125
1738772912478826800,2.87082666015625,-0.969085693359375,-0.0057373046875,-0.269989013671875
1738772912488817700,2.880817626953125,-0.967193603515625,-0.0033111572265625,-0.27008056640625
1738772912498809900,2.890809814453125,-0.9689483642578125,-0.0053558349609375,-0.2704315185546875
1738772912508800800,2.90080078125,-0.96978759765625,-0.0060882568359375,-0.2709503173828125
1738772912518791700,2.910791748046875,-0.9680938720703125,-0.006072998046875,-0.2714385986328125
1738772912528782600,2.920782470703125,-0.967681884765625,-0.0041961669921875,-0.271148681640625
1738772912538773800,2.930773681640625,-0.969024658203125,-0.0042877197265625,-0.269378662109375
1738772912548765700,2.940765625,-0.9695587158203125,-0.0041961669921875,-0.27105712890625
1738772912558756600,2.950756591796875,-0.9690399169921875,-0.0052032470703125,-0.2710418701171875
1738772912568747800,2.960747802734375,-0.9689178466796875,-0.0047454833984375,-0.2687225341796875
1738772912578738700,2.97073876953125,-0.9690093994140625,-0.005889892578125,-0.269866943359375
1738772912588729600,2.9807294921875,-0.9683380126953125,-0.00445556640625,-0.2716827392578125
1738772912598720800,2.990720703125,-0.9696807861328125,-0.0045013427734375,-0.2707977294921875
1738772912608712700,3.000712646484375,-0.969970703125,-0.003936767578125,-0.271392822265625
1738772912618703600,3.01070361328125,-0.968780517578125,-0.0052337646484375,-0.27142333984375
1738772912628694800,3.02069482421875,-0.9687042236328125,-0.0049285888671875,-0.2706146240234375
1738772912638685700,3.030685791015625,-0.96832275390625,-0.005126953125,-0.269805908203125
1738772912648676600,3.040676513671875,-0.9706268310546875,-0.005401611328125,-0.2721405029296875
1738772912658668800,3.050668701171875,-0.9691619873046875,-0.0053253173828125,-0.2700347900390625
1738772912668659700,3.06065966796875,-0.96905517578125,-0.0056610107421875,-0.2713775634765625
1738772912678650600,3.070650634765625,-0.9687652587890625,-0.0050506591796875,-0.2718658447265625
1738772912688641800,3.080641845703125,-0.96875,-0.00567626953125,-0.271148681640625
1738772912698632700,3.0906328125,-0.9676666259765625,-0.00469970703125,-0.2706451416015625
1738772912708624600,3.100624755859375,-0.9687347412109375,-0.00445556640625,-0.2702178955078125
1738772912718615800,3.11061572265625,-0.9703216552734375,-0.005340576171875,-0.27130126953125
1738772912728606700,3.120606689453125,-0.970123291015625,-0.0054168701171875,-0.271026611328125
1738772912738597600,3.13059765625,-0.9703216552734375,-0.0052032470703125,-0.2712860107421875
1738772912748588800,3.1405888671875,-0.9690093994140625,-0.004547119140625,-0.271270751953125
1738772912758579700,3.150579833984375,-0.9692535400390625,-0.0038909912109375,-0.2720794677734375
1738772912768571600,3.160571533203125,-0.96868896484375,-0.0038604736328125,-0.271881103515625
1738772912778562800,3.170562744140625,-0.968841552734375,-0.00421142578125,-0.270782470703125
1738772912788553700,3.1805537109375,-0.969635009765625,-0.0051116943359375,-0.27044677734375
1738772912798544600,3.190544677734375,-0.969024658203125,-0.0050201416015625,-0.271392822265625
1738772912808535800,3.200535888671875,-0.9691314697265625,-0.00506591796875,-0.2718353271484375
1738772912818527700,3.21052783203125,-0.966583251953125,-0.0049285888671875,-0.2710113525390625
1738772912828518700,3.2205185546875,-0.9687652587890625,-0.0029754638671875,-0.2705230712890625
1738772912838509800,3.230509765625,-0.971649169921875,-0.004852294921875,-0.2704620361328125
1738772912848500700,3.240500732421875,-0.9686431884765625,-0.0053863525390625,-0.2711334228515625
1738772912858491600,3.25049169921875,-0.9680938720703125,-0.005157470703125,-0.2708740234375
1738772912868482600,3.260482666015625,-0.969146728515625,-0.0052032470703125,-0.271270751953125
1738772912878474800,3.270474853515625,-0.9685211181640625,-0.0064239501953125,-0.2718963623046875
1738772912888465700,3.280465576171875,-0.96868896484375,-0.0050201416015625,-0.2706756591796875
1738772912898456800,3.290456787109375,-0.9701690673828125,-0.003997802734375,-0.2697906494140625
1738772912908447700,3.30044775390625,-0.96856689453125,-0.0048065185546875,-0.2708740234375
1738772912918438700,3.310438720703125,-0.96795654296875,-0.0044097900390625,-0.272003173828125
1738772912928430800,3.320430908203125,-0.9691619873046875,-0.0042724609375,-0.2723846435546875
1738772912938421800,3.330421875,-0.9693756103515625,-0.0056610107421875,-0.2712860107421875
1738772912948412700,3.34041259765625,-0.9673309326171875,-0.0052947998046875,-0.27239990234375
1738772912958403600,3.350403564453125,-0.9685211181640625,-0.0041656494140625,-0.2717437744140625
1738772912968394800,3.360394775390625,-0.968780517578125,-0.0045623779296875,-0.270416259765625
1738772912978385700,3.3703857421875,-0.96881103515625,-0.0045013427734375,-0.27008056640625
1738772912988377900,3.3803779296875,-0.96990966796875,-0.0044097900390625,-0.2706146240234375
1738772912998368800,3.39036865234375,-0.96832275390625,-0.0042877197265625,-0.270660400390625
1738772913008359700,3.400359619140625,-0.9692230224609375,-0.0055999755859375,-0.2713775634765625
1738772913018350600,3.4103505859375,-0.968536376953125,-0.00537109375,-0.2707366943359375
1738772913028341800,3.420341796875,-0.9693450927734375,-0.00567626953125,-0.2701263427734375
1738772913038333700,3.430333740234375,-0.970703125,-0.0048675537109375,-0.272186279296875
1738772913048324600,3.44032470703125,-0.9694061279296875,-0.00445556640625,-0.271514892578125
1738772913058315800,3.450315673828125,-0.96923828125,-0.005035400390625,-0.2708282470703125
1738772913068306700,3.460306640625,-0.968780517578125,-0.0039520263671875,-0.271209716796875
1738772913078297600,3.470297607421875,-0.969268798828125,-0.005462646484375,-0.2701263427734375
1738772913088288800,3.480288818359375,-0.9688262939453125,-0.0042724609375,-0.2706146240234375
1738772913098280700,3.49028076171875,-0.9685516357421875,-0.00555419921875,-0.2705230712890625
1738772913108271600,3.500271728515625,-0.9691009521484375,-0.005767822265625,-0.2701568603515625
1738772913118262800,3.5102626953125,-0.9705352783203125,-0.004302978515625,-0.2699127197265625
1738772913128253700,3.520253662109375,-0.9700927734375,-0.005035400390625,-0.27056884765625
1738772913138244600,3.53024462890625,-0.96978759765625,-0.0046539306640625,-0.268829345703125
1738772913148236800,3.54023681640625,-0.9703521728515625,-0.0035400390625,-0.27117919921875
1738772913158227700,3.550227783203125,-0.9693756103515625,-0.004638671875,-0.2710723876953125
1738772913168218600,3.560218505859375,-0.9693603515625,-0.0042724609375,-0.2705078125
1738772913178209800,3.570209716796875,-0.968414306640625,-0.00445556640625,-0.2707977294921875
1738772913188200700,3.58020068359375,-0.9679412841796875,-0.0042266845703125,-0.271392822265625
1738772913198192600,3.590192626953125,-0.9705810546875,-0.00469970703125,-0.271575927734375
1738772913208183800,3.600183837890625,-0.9684906005859375,-0.004608154296875,-0.272247314453125
1738772913218174700,3.6101748046875,-0.9703369140625,-0.0044403076171875,-0.2711029052734375
1738772913228165600,3.62016552734375,-0.9692840576171875,-0.004974365234375,-0.2709503173828125
1738772913238156800,3.63015673828125,-0.969573974609375,-0.004913330078125,-0.2707977294921875
1738772913248147700,3.640147705078125,-0.9698944091796875,-0.0040130615234375,-0.271240234375
1738772913258139600,3.6501396484375,-0.968719482421875,-0.0037841796875,-0.2703399658203125
1738772913268130800,3.660130859375,-0.9691925048828125,-0.0059356689453125,-0.270965576171875
1738772913278121700,3.670121826171875,-0.9700469970703125,-0.0042877197265625,-0.2703857421875
1738772913288112600,3.680112548828125,-0.9678955078125,-0.0041656494140625,-0.270355224609375
1738772913298103800,3.690103759765625,-0.9685211181640625,-0.0042724609375,-0.2707672119140625
1738772913308095700,3.700095703125,-0.9691009521484375,-0.004364013671875,-0.2709808349609375
1738772913318086700,3.710086669921875,-0.9700469970703125,-0.005035400390625,-0.27130126953125
1738772913328077800,3.720077880859375,-0.9697113037109375,-0.0055389404296875,-0.27056884765625
1738772913338068700,3.73006884765625,-0.96923828125,-0.0060882568359375,-0.2698516845703125
1738772913348059600,3.7400595703125,-0.9691009521484375,-0.0048370361328125,-0.2716064453125
1738772913358051800,3.7500517578125,-0.969970703125,-0.0055999755859375,-0.2719573974609375
1738772913368042800,3.760042724609375,-0.968414306640625,-0.004791259765625,-0.2723846435546875
1738772913378033700,3.77003369140625,-0.968505859375,-0.0056610107421875,-0.2719573974609375
1738772913388024800,3.78002490234375,-0.968109130859375,-0.0048065185546875,-0.271148681640625
1738772913398015700,3.790015625,-0.9701995849609375,-0.0055084228515625,-0.2718353271484375
1738772913408006700,3.800006591796875,-0.96826171875,-0.0048370361328125,-0.271270751953125
1738772913417998800,3.809998779296875,-0.9691162109375,-0.005401611328125,-0.2708892822265625
1738772913427989800,3.81998974609375,-0.969696044921875,-0.00543212890625,-0.270355224609375
1738772913437980700,3.829980712890625,-0.96990966796875,-0.0047760009765625,-0.27020263671875
1738772913447971600,3.8399716796875,-0.970001220703125,-0.003997802734375,-0.2713470458984375
1738772913457962800,3.849962646484375,-0.9688720703125,-0.0051727294921875,-0.271331787109375
1738772913467954700,3.85995458984375,-0.969268798828125,-0.0056610107421875,-0.27099609375
1738772913477945900,3.86994580078125,-0.9687347412109375,-0.0045318603515625,-0.2712249755859375
1738772913487936800,3.879936767578125,-0.968994140625,-0.00506591796875,-0.26995849609375
1738772913497927700,3.889927734375,-0.9681854248046875,-0.0050048828125,-0.2706451416015625
1738772913507918600,3.899918701171875,-0.969879150390625,-0.0047607421875,-0.271087646484375
1738772913517909800,3.90990966796875,-0.96929931640625,-0.006378173828125,-0.272064208984375
1738772913527901700,3.919901611328125,-0.9679412841796875,-0.0059967041015625,-0.2711181640625
1738772913537892600,3.929892578125,-0.970306396484375,-0.0052490234375,-0.270172119140625
1738772913547883800,3.9398837890625,-0.9701080322265625,-0.00384521484375,-0.2713623046875
1738772913558499800,3.950499755859375,-0.9686737060546875,-0.0043487548828125,-0.2724761962890625
1738772913568490800,3.96049072265625,-0.969970703125,-0.0046234130859375,-0.2711181640625
1738772913578481700,3.970481689453125,-0.9694671630859375,-0.00616455078125,-0.2705230712890625
1738772913588472600,3.98047265625,-0.9691619873046875,-0.004638671875,-0.272003173828125
1738772913598463700,3.990463623046875,-0.968658447265625,-0.005126953125,-0.270477294921875
1738772913608454700,4.00045458984375,-0.9689788818359375,-0.00579833984375,-0.27197265625
1738772913618446600,4.010446533203125,-0.96868896484375,-0.0047760009765625,-0.27044677734375
1738772913628437800,4.020437744140625,-0.9689178466796875,-0.004791259765625,-0.2705535888671875
1738772913638428700,4.0304287109375,-0.969635009765625,-0.005401611328125,-0.2702484130859375
1738772913648419600,4.040419677734375,-0.9683380126953125,-0.0051116943359375,-0.270294189453125
1738772913658410800,4.05041064453125,-0.9682159423828125,-0.0041046142578125,-0.2710418701171875
1738772913668402700,4.060402587890625,-0.9681396484375,-0.005126953125,-0.269744873046875
1738772913678393600,4.0703935546875,-0.967803955078125,-0.00506591796875,-0.272308349609375
1738772913688384800,4.080384765625,-0.9694061279296875,-0.0051422119140625,-0.270172119140625
1738772913698375700,4.090375732421875,-0.968353271484375,-0.0051727294921875,-0.270263671875
1738772913708366600,4.10036669921875,-0.96832275390625,-0.003875732421875,-0.2706451416015625
1738772913718357800,4.110357666015625,-0.9703826904296875,-0.005035400390625,-0.2703094482421875
1738772913728349700,4.120349609375,-0.970245361328125,-0.004913330078125,-0.270050048828125
1738772913738340600,4.130340576171875,-0.970733642578125,-0.0046844482421875,-0.2692413330078125
1738772913748331800,4.140331787109375,-0.96990966796875,-0.0041961669921875,-0.270477294921875
1738772913758322700,4.15032275390625,-0.9686737060546875,-0.004547119140625,-0.2713165283203125
1738772913768313600,4.160313720703125,-0.9705810546875,-0.004425048828125,-0.27178955078125
1738772913778305800,4.170305908203125,-0.9704132080078125,-0.0046844482421875,-0.2704315185546875
1738772913788296700,4.180296630859375,-0.9706573486328125,-0.004852294921875,-0.270965576171875
1738772913798287600,4.19028759765625,-0.9676971435546875,-0.0047760009765625,-0.2710723876953125
1738772913808278800,4.20027880859375,-0.9689483642578125,-0.0053253173828125,-0.2705230712890625
1738772913818269700,4.210269775390625,-0.969818115234375,-0.004730224609375,-0.27166748046875
1738772913828261600,4.22026171875,-0.9693145751953125,-0.0052490234375,-0.2700347900390625
1738772913838252800,4.230252685546875,-0.9688720703125,-0.00518798828125,-0.2704010009765625
1738772913848243700,4.24024365234375,-0.9704437255859375,-0.005645751953125,-0.2713165283203125
1738772913858234600,4.250234619140625,-0.9688720703125,-0.0039520263671875,-0.2706298828125
1738772913868225800,4.260225830078125,-0.9673919677734375,-0.0044708251953125,-0.27020263671875
1738772913878216700,4.270216796875,-0.970062255859375,-0.0047454833984375,-0.2701416015625
1738772913888208600,4.280208740234375,-0.97039794921875,-0.006195068359375,-0.271636962890625
1738772913898199800,4.29019970703125,-0.9684600830078125,-0.0040283203125,-0.2696380615234375
1738772913908815600,4.300815673828125,-0.969268798828125,-0.00482177734375,-0.27056884765625
1738772913918806800,4.310806884765625,-0.969390869140625,-0.005889892578125,-0.271209716796875
1738772913928797700,4.320797607421875,-0.968505859375,-0.0051727294921875,-0.271392822265625
1738772913938788600,4.33078857421875,-0.9692840576171875,-0.0048980712890625,-0.271881103515625
1738772913948780800,4.34078076171875,-0.97052001953125,-0.0050048828125,-0.2723541259765625
1738772913958771700,4.350771728515625,-0.9694976806640625,-0.0041656494140625,-0.2710113525390625
1738772913968762600,4.3607626953125,-0.969146728515625,-0.003387451171875,-0.269256591796875
1738772913978753800,4.37075390625,-0.969268798828125,-0.0044708251953125,-0.270965576171875
1738772913988744700,4.38074462890625,-0.9686126708984375,-0.004547119140625,-0.27099609375
1738772913998736600,4.390736572265625,-0.969390869140625,-0.00469970703125,-0.270843505859375
1738772914008727800,4.400727783203125,-0.9698333740234375,-0.0042266845703125,-0.269744873046875
1738772914018718700,4.41071875,-0.969390869140625,-0.00445556640625,-0.2704010009765625
1738772914028709600,4.420709716796875,-0.968841552734375,-0.0051727294921875,-0.2706298828125
1738772914038700500,4.430700439453125,-0.9693756103515625,-0.0052490234375,-0.2709808349609375
1738772914048692700,4.440692626953125,-0.96954345703125,-0.0042266845703125,-0.269927978515625
1738772914058683600,4.45068359375,-0.9677276611328125,-0.0044403076171875,-0.2707061767578125
1738772914068674800,4.4606748046875,-0.969879150390625,-0.00408935546875,-0.2706451416015625
1738772914078665700,4.470665771484375,-0.9698333740234375,-0.004638671875,-0.2713623046875
1738772914088657200,4.4806572265625,-0.9696807861328125,-0.0044708251953125,-0.27056884765625
1738772914098648300,4.4906484375,-0.9688720703125,-0.005126953125,-0.2716064453125
1738772914108640300,4.50064013671875,-0.969482421875,-0.0045013427734375,-0.271148681640625
1738772914118631200,4.510631103515625,-0.9709625244140625,-0.0042877197265625,-0.2704010009765625
1738772914128622300,4.520622314453125,-0.9688873291015625,-0.0050048828125,-0.27130126953125
1738772914138613200,4.53061328125,-0.96832275390625,-0.0045623779296875,-0.27105712890625
1738772914148604200,4.540604248046875,-0.9688720703125,-0.00543212890625,-0.270355224609375
1738772914158596400,4.550596435546875,-0.96868896484375,-0.00439453125,-0.2700042724609375
1738772914168587300,4.560587158203125,-0.9688873291015625,-0.0048370361328125,-0.270660400390625
1738772914178578200,4.570578125,-0.970703125,-0.0050048828125,-0.269866943359375
1738772914188569300,4.5805693359375,-0.970550537109375,-0.0040130615234375,-0.2713470458984375
1738772914198560300,4.590560302734375,-0.970123291015625,-0.0056915283203125,-0.2713165283203125
1738772914208552200,4.60055224609375,-0.970489501953125,-0.0046234130859375,-0.2698516845703125
1738772914218543400,4.61054345703125,-0.9705657958984375,-0.0040283203125,-0.2698211669921875
1738772914228534300,4.6205341796875,-0.9699554443359375,-0.005340576171875,-0.2698974609375
1738772914238525200,4.630525146484375,-0.9692840576171875,-0.0052490234375,-0.27099609375
1738772914248516400,4.640516357421875,-0.9696197509765625,-0.0052490234375,-0.2711639404296875
1738772914258508300,4.65050830078125,-0.96917724609375,-0.003631591796875,-0.27093505859375
1738772914268499200,4.660499267578125,-0.968780517578125,-0.0053863525390625,-0.269927978515625
1738772914278490400,4.670490478515625,-0.9688720703125,-0.005279541015625,-0.269927978515625
1738772914288481300,4.680481201171875,-0.9694976806640625,-0.0041961669921875,-0.2715606689453125
1738772914298472200,4.69047216796875,-0.970733642578125,-0.0044403076171875,-0.270416259765625
1738772914308464400,4.70046435546875,-0.9681549072265625,-0.00469970703125,-0.2689361572265625
1738772914318455300,4.710455322265625,-0.9698944091796875,-0.0049591064453125,-0.270904541015625
1738772914328446200,4.7204462890625,-0.9701080322265625,-0.005218505859375,-0.2720947265625
1738772914338437400,4.730437255859375,-0.968170166015625,-0.00531005859375,-0.2704620361328125
1738772914348428300,4.74042822265625,-0.9692535400390625,-0.0049591064453125,-0.271209716796875
1738772914358420200,4.750420166015625,-0.9698638916015625,-0.003814697265625,-0.2715606689453125
1738772914368411400,4.760411376953125,-0.97021484375,-0.0050506591796875,-0.2716217041015625
1738772914378402300,4.77040234375,-0.9678802490234375,-0.0053863525390625,-0.271331787109375
1738772914388393200,4.780393310546875,-0.96844482421875,-0.005950927734375,-0.2707366943359375
1738772914398384400,4.79038427734375,-0.96990966796875,-0.0058746337890625,-0.2713775634765625
1738772914408375300,4.800375244140625,-0.9706573486328125,-0.0046539306640625,-0.270843505859375
1738772914418367200,4.8103671875,-0.9687957763671875,-0.00372314453125,-0.270477294921875
1738772914428358400,4.8203583984375,-0.970245361328125,-0.0058746337890625,-0.2695770263671875
1738772914438349300,4.830349365234375,-0.9701995849609375,-0.0049896240234375,-0.27099609375
1738772914448340200,4.84034033203125,-0.9700927734375,-0.0044097900390625,-0.2724151611328125
1738772914458331400,4.850331298828125,-0.9703216552734375,-0.00665283203125,-0.2717437744140625
1738772914468323300,4.8603232421875,-0.9695892333984375,-0.0052642822265625,-0.2718505859375
1738772914478314200,4.870314208984375,-0.968109130859375,-0.0030670166015625,-0.271209716796875
1738772914488305400,4.880305419921875,-0.969390869140625,-0.004547119140625,-0.2716064453125
1738772914498296300,4.89029638671875,-0.969390869140625,-0.0041961669921875,-0.2711334228515625
1738772914508287200,4.900287353515625,-0.96881103515625,-0.00445556640625,-0.271148681640625
1738772914518279400,4.910279541015625,-0.9695281982421875,-0.0039520263671875,-0.270721435546875
1738772914528270300,4.920270263671875,-0.96942138671875,-0.004669189453125,-0.2707672119140625
1738772914538261200,4.93026123046875,-0.968109130859375,-0.0042266845703125,-0.270294189453125
1738772914548252400,4.94025244140625,-0.967926025390625,-0.00421142578125,-0.2709808349609375
1738772914558243300,4.950243408203125,-0.96893310546875,-0.0038299560546875,-0.2715606689453125
1738772914568235300,4.9602353515625,-0.969207763671875,-0.004241943359375,-0.271087646484375
1738772914578226400,4.970226318359375,-0.9684295654296875,-0.0048370361328125,-0.2708740234375
1738772914588217300,4.98021728515625,-0.9698486328125,-0.00390625,-0.27099609375
1738772914598208300,4.990208251953125,-0.968963623046875,-0.0048065185546875,-0.2718963623046875
1738772914608199200,5.00019921875,-0.968902587890625,-0.004974365234375,-0.270538330078125
1738772914618191400,5.01019140625,-0.96917724609375,-0.003265380859375,-0.2707366943359375
1738772914628182300,5.020182373046875,-0.968994140625,-0.00445556640625,-0.2710418701171875
1738772914638173400,5.03017333984375,-0.969482421875,-0.0050811767578125,-0.2703857421875
1738772914648164400,5.040164306640625,-0.969757080078125,-0.0054779052734375,-0.270843505859375
1738772914658155300,5.0501552734375,-0.9692840576171875,-0.0055084228515625,-0.270538330078125
1738772914668147200,5.060147216796875,-0.9709320068359375,-0.0041046142578125,-0.2705078125
1738772914678138400,5.070138427734375,-0.96990966796875,-0.0049896240234375,-0.2709808349609375
1738772914688129300,5.08012939453125,-0.969482421875,-0.005645751953125,-0.27105712890625
1738772914698120400,5.090120361328125,-0.969970703125,-0.0054931640625,-0.270782470703125
1738772914708111400,5.100111328125,-0.970428466796875,-0.0043487548828125,-0.2708892822265625
1738772914718103300,5.110103271484375,-0.9699554443359375,-0.005096435546875,-0.270751953125
1738772914728094500,5.120094482421875,-0.970062255859375,-0.0055389404296875,-0.2703857421875
1738772914738085400,5.13008544921875,-0.9685821533203125,-0.004547119140625,-0.2713775634765625
1738772914748076300,5.140076171875,-0.9695892333984375,-0.0040740966796875,-0.271240234375
1738772914758067200,5.150067138671875,-0.968353271484375,-0.00396728515625,-0.2709808349609375
1738772914768059100,5.16005908203125,-0.967315673828125,-0.0047760009765625,-0.2703857421875
1738772914778050300,5.17005029296875,-0.968048095703125,-0.0054779052734375,-0.270538330078125
1738772914788041500,5.18004150390625,-0.9695587158203125,-0.0049285888671875,-0.271636962890625
1738772914798032400,5.190032470703125,-0.9690399169921875,-0.0062255859375,-0.2700653076171875
1738772914808023300,5.200023193359375,-0.9681396484375,-0.004913330078125,-0.2702789306640625
1738772914818015200,5.21001513671875,-0.9701385498046875,-0.0061187744140625,-0.2720947265625
1738772914828006100,5.220006103515625,-0.97021484375,-0.005035400390625,-0.27215576171875
1738772914837997300,5.229997314453125,-0.9678497314453125,-0.004852294921875,-0.270904541015625
1738772914847988200,5.23998828125,-0.9682464599609375,-0.0037078857421875,-0.270843505859375
1738772914857979400,5.2499794921875,-0.9694671630859375,-0.00360107421875,-0.2707366943359375
1738772914867971000,5.25997119140625,-0.9688720703125,-0.004119873046875,-0.2702484130859375
1738772914877962200,5.269962158203125,-0.96783447265625,-0.0041656494140625,-0.2708282470703125
1738772914887953400,5.279953369140625,-0.9678802490234375,-0.0051422119140625,-0.2714385986328125
1738772914897944300,5.2899443359375,-0.9694366455078125,-0.0035247802734375,-0.2703857421875
1738772914907935200,5.299935302734375,-0.9694061279296875,-0.0049285888671875,-0.271331787109375
1738772914917927200,5.30992724609375,-0.9688262939453125,-0.005218505859375,-0.27056884765625
1738772914927918000,5.31991796875,-0.969818115234375,-0.003631591796875,-0.2716064453125
1738772914937909200,5.3299091796875,-0.968658447265625,-0.0048675537109375,-0.270111083984375
1738772914947900400,5.339900390625,-0.9694366455078125,-0.0042572021484375,-0.2716522216796875
1738772914957891300,5.349891357421875,-0.968780517578125,-0.003936767578125,-0.270965576171875
1738772914967882200,5.35988232421875,-0.96990966796875,-0.0045318603515625,-0.2705535888671875
1738772914977874200,5.369874267578125,-0.9689483642578125,-0.00543212890625,-0.2701873779296875
1738772914987865000,5.379864990234375,-0.9695892333984375,-0.0052032470703125,-0.2721710205078125
1738772914997856300,5.389856201171875,-0.9709014892578125,-0.0044708251953125,-0.2703094482421875
1738772915007847400,5.399847412109375,-0.9693145751953125,-0.0049285888671875,-0.271148681640625
1738772915017838300,5.40983837890625,-0.9692230224609375,-0.0052490234375,-0.271514892578125
1738772915027830000,5.419830078125,-0.97088623046875,-0.0042572021484375,-0.270721435546875
1738772915037821200,5.4298212890625,-0.9709625244140625,-0.0042724609375,-0.27069091796875
1738772915047812000,5.43981201171875,-0.9692535400390625,-0.005279541015625,-0.2707672119140625
1738772915057803300,5.44980322265625,-0.968048095703125,-0.0056915283203125,-0.270721435546875
1738772915067794400,5.45979443359375,-0.970306396484375,-0.0038909912109375,-0.2718353271484375
1738772915077786000,5.4697861328125,-0.9684295654296875,-0.0043487548828125,-0.270751953125
1738772915087777000,5.479777099609375,-0.967926025390625,-0.0042724609375,-0.269073486328125
1738772915097768000,5.489767822265625,-0.9666290283203125,-0.0036163330078125,-0.2706146240234375
1738772915107758800,5.4997587890625,-0.9694366455078125,-0.004608154296875,-0.2722930908203125
1738772915117749800,5.509749755859375,-0.9695587158203125,-0.004913330078125,-0.272125244140625
1738772915127741700,5.51974169921875,-0.9683837890625,-0.003448486328125,-0.2711181640625
1738772915137732900,5.52973291015625,-0.968109130859375,-0.004425048828125,-0.271026611328125
1738772915147723800,5.539723876953125,-0.96966552734375,-0.0053863525390625,-0.2716827392578125
1738772915157715000,5.54971484375,-0.9691314697265625,-0.004608154296875,-0.270843505859375
1738772915167705900,5.559705810546875,-0.9701995849609375,-0.0050506591796875,-0.271270751953125
1738772915177697500,5.569697509765625,-0.9703216552734375,-0.0047149658203125,-0.27105712890625
1738772915187688700,5.579688720703125,-0.96820068359375,-0.0052947998046875,-0.2706298828125
1738772915197679900,5.589679931640625,-0.9710540771484375,-0.0057525634765625,-0.271392822265625
1738772915207670800,5.5996708984375,-0.9697418212890625,-0.0049591064453125,-0.2705841064453125
1738772915217661700,5.60966162109375,-0.969635009765625,-0.0051727294921875,-0.27044677734375
1738772915227653600,5.619653564453125,-0.968841552734375,-0.0041351318359375,-0.27056884765625
1738772915237644800,5.629644775390625,-0.9680633544921875,-0.0048980712890625,-0.2715606689453125
1738772915247636000,5.639635986328125,-0.96844482421875,-0.00555419921875,-0.2713470458984375
1738772915257627000,5.649626953125,-0.9692840576171875,-0.005828857421875,-0.27142333984375
1738772915267617800,5.65961767578125,-0.9686737060546875,-0.004486083984375,-0.2718353271484375
1738772915277609700,5.669609619140625,-0.96905517578125,-0.0043792724609375,-0.269378662109375
1738772915287600600,5.6796005859375,-0.96893310546875,-0.0046234130859375,-0.2711639404296875
1738772915297591800,5.689591796875,-0.96942138671875,-0.005889892578125,-0.270660400390625
1738772915307583000,5.6995830078125,-0.97021484375,-0.00482177734375,-0.2713165283203125
1738772915317574000,5.709573974609375,-0.97052001953125,-0.00543212890625,-0.2713165283203125
1738772915327564800,5.719564697265625,-0.968994140625,-0.0038299560546875,-0.2700958251953125
1738772915337556700,5.729556640625,-0.969390869140625,-0.005218505859375,-0.2701416015625
1738772915347547600,5.739547607421875,-0.97015380859375,-0.005157470703125,-0.2711181640625
1738772915357538800,5.749538818359375,-0.97021484375,-0.0052032470703125,-0.2700347900390625
1738772915367529700,5.75952978515625,-0.9694976806640625,-0.0055389404296875,-0.2711181640625
1738772915377521000,5.76952099609375,-0.9697723388671875,-0.005096435546875,-0.269317626953125
1738772915387512600,5.7795126953125,-0.96868896484375,-0.00506591796875,-0.2713470458984375
1738772915397503700,5.789503662109375,-0.9686126708984375,-0.004547119140625,-0.270660400390625
1738772915407494700,5.79949462890625,-0.9682464599609375,-0.0052642822265625,-0.2703857421875
1738772915417485800,5.80948583984375,-0.968902587890625,-0.00518798828125,-0.27081298828125
1738772915427476700,5.819476806640625,-0.9690399169921875,-0.0050048828125,-0.2715606689453125
1738772915437468700,5.82946875,-0.9684906005859375,-0.0054168701171875,-0.2710723876953125
1738772915447459600,5.83945947265625,-0.96881103515625,-0.006011962890625,-0.27178955078125
1738772915457450800,5.84945068359375,-0.96923828125,-0.0027618408203125,-0.2712554931640625
1738772915467442000,5.85944189453125,-0.968048095703125,-0.0038604736328125,-0.27105712890625
1738772915477432800,5.869432861328125,-0.9681243896484375,-0.0053253173828125,-0.269805908203125
1738772915487424800,5.8794248046875,-0.9692230224609375,-0.005035400390625,-0.2701568603515625
1738772915497415700,5.889415771484375,-0.96875,-0.0052490234375,-0.2706146240234375
1738772915507406600,5.899406494140625,-0.9686279296875,-0.0054473876953125,-0.2696380615234375
1738772915517397800,5.909397705078125,-0.96923828125,-0.0049896240234375,-0.270782470703125
1738772915527389000,5.919388916015625,-0.9685821533203125,-0.0034027099609375,-0.2709503173828125
1738772915537380600,5.929380615234375,-0.96905517578125,-0.0048065185546875,-0.269866943359375
1738772915547371500,5.93937158203125,-0.96893310546875,-0.0045013427734375,-0.271270751953125
1738772915557362700,5.94936279296875,-0.968475341796875,-0.0042266845703125,-0.2706451416015625
1738772915567353600,5.959353515625,-0.96893310546875,-0.0039825439453125,-0.270843505859375
1738772915577344800,5.9693447265625,-0.9684600830078125,-0.00445556640625,-0.2705078125
1738772915587336000,5.9793359375,-0.9702911376953125,-0.00628662109375,-0.2706298828125
1738772915597327600,5.98932763671875,-0.9685211181640625,-0.004730224609375,-0.2718353271484375
1738772915607318500,5.999318603515625,-0.967864990234375,-0.00469970703125,-0.2706298828125
1738772915617309700,6.009309814453125,-0.96942138671875,-0.004730224609375,-0.271453857421875
1738772915627300900,6.01930078125,-0.9683380126953125,-0.004486083984375,-0.2703857421875
1738772915637291800,6.029291748046875,-0.96832275390625,-0.0050811767578125,-0.271392822265625
1738772915647283700,6.03928369140625,-0.9692535400390625,-0.004241943359375,-0.2712554931640625
1738772915657274600,6.049274658203125,-0.9704742431640625,-0.0035400390625,-0.2699127197265625
1738772915667265500,6.059265625,-0.970184326171875,-0.004119873046875,-0.2708587646484375
1738772915677256700,6.069256591796875,-0.96807861328125,-0.0032806396484375,-0.27130126953125
1738772915687248000,6.079247802734375,-0.9693756103515625,-0.0064239501953125,-0.2698516845703125
1738772915697239600,6.089239501953125,-0.9695892333984375,-0.004791259765625,-0.270599365234375
1738772915707230700,6.099230712890625,-0.9691619873046875,-0.0051116943359375,-0.27178955078125
1738772915717221600,6.1092216796875,-0.9687957763671875,-0.0060272216796875,-0.270172119140625
1738772915727212500,6.119212646484375,-0.9696502685546875,-0.004974365234375,-0.270263671875
1738772915737203700,6.12920361328125,-0.969024658203125,-0.0052642822265625,-0.2705230712890625
1738772915747195600,6.139195556640625,-0.9708099365234375,-0.005035400390625,-0.2703399658203125
1738772915757186600,6.1491865234375,-0.9690093994140625,-0.004852294921875,-0.269622802734375
1738772915767177700,6.159177734375,-0.9702301025390625,-0.0047454833984375,-0.2711944580078125
1738772915777168600,6.169168701171875,-0.9712066650390625,-0.00433349609375,-0.2705078125
1738772915787159800,6.179159912109375,-0.970001220703125,-0.00457763671875,-0.270751953125
1738772915797151700,6.18915185546875,-0.968536376953125,-0.0048370361328125,-0.2694091796875
1738772915807142700,6.199142578125,-0.9698944091796875,-0.0043792724609375,-0.2714996337890625
1738772915817133600,6.209133544921875,-0.9707794189453125,-0.0035400390625,-0.270721435546875
1738772915827124700,6.219124755859375,-0.9687042236328125,-0.0055084228515625,-0.271453857421875
1738772915837115600,6.22911572265625,-0.9701995849609375,-0.0052490234375,-0.27203369140625
1738772915847107600,6.239107666015625,-0.9698638916015625,-0.0045623779296875,-0.2711181640625
1738772915857098800,6.2490986328125,-0.969024658203125,-0.005126953125,-0.2694854736328125
1738772915867089700,6.259089599609375,-0.9699859619140625,-0.004913330078125,-0.270843505859375
1738772915877080600,6.26908056640625,-0.9701385498046875,-0.00457763671875,-0.2703399658203125
1738772915887071700,6.27907177734375,-0.9679107666015625,-0.005126953125,-0.2711944580078125
1738772915897063700,6.289063720703125,-0.969879150390625,-0.0038909912109375,-0.2714996337890625
1738772915907054600,6.2990546875,-0.97076416015625,-0.0048675537109375,-0.2698516845703125
1738772915917045800,6.309045654296875,-0.968597412109375,-0.0054931640625,-0.2718353271484375
1738772915927036700,6.31903662109375,-0.9678802490234375,-0.0060577392578125,-0.27032470703125
1738772915937027600,6.329027587890625,-0.9706878662109375,-0.006072998046875,-0.2705230712890625
1738772915947019800,6.339019775390625,-0.96917724609375,-0.00494384765625,-0.270263671875
1738772915957010700,6.3490107421875,-0.9668121337890625,-0.0042724609375,-0.2698516845703125
1738772915967001600,6.359001708984375,-0.9685211181640625,-0.0046234130859375,-0.270294189453125
1738772915976992800,6.36899267578125,-0.9711761474609375,-0.005828857421875,-0.27215576171875
1738772915986983700,6.378983642578125,-0.969024658203125,-0.0037689208984375,-0.2701873779296875
1738772915996975600,6.3889755859375,-0.9685211181640625,-0.003509521484375,-0.2703399658203125
1738772916006966800,6.398966796875,-0.97021484375,-0.004547119140625,-0.27130126953125
1738772916016957700,6.408957763671875,-0.9706268310546875,-0.00469970703125,-0.2707366943359375
1738772916026948600,6.418948486328125,-0.9701080322265625,-0.005462646484375,-0.2697296142578125
1738772916036939500,6.428939453125,-0.96929931640625,-0.005828857421875,-0.270965576171875
1738772916046931700,6.438931640625,-0.968780517578125,-0.0048370361328125,-0.2716217041015625
1738772916056922600,6.448922607421875,-0.96807861328125,-0.004913330078125,-0.270660400390625
1738772916066913800,6.458913818359375,-0.9696502685546875,-0.00439453125,-0.27142333984375
1738772916076904700,6.46890478515625,-0.9691314697265625,-0.003875732421875,-0.2716064453125
1738772916086895600,6.4788955078125,-0.9683074951171875,-0.005706787109375,-0.2708892822265625
1738772916096887800,6.4888876953125,-0.969451904296875,-0.004669189453125,-0.27081298828125
1738772916106878700,6.498878662109375,-0.96929931640625,-0.00531005859375,-0.270294189453125
1738772916116870000,6.508869873046875,-0.968353271484375,-0.004547119140625,-0.271728515625
1738772916126860800,6.51886083984375,-0.966827392578125,-0.0047607421875,-0.2695770263671875
1738772916136851700,6.528851806640625,-0.96826171875,-0.003509521484375,-0.270416259765625
1738772916146844000,6.538843994140625,-0.969482421875,-0.0042266845703125,-0.270355224609375
1738772916156834800,6.548834716796875,-0.9681549072265625,-0.0030059814453125,-0.271026611328125
1738772916166825700,6.55882568359375,-0.9688262939453125,-0.00384521484375,-0.2684478759765625
1738772916176817000,6.56881689453125,-0.969970703125,-0.004058837890625,-0.2699737548828125
1738772916186807800,6.578807861328125,-0.968505859375,-0.00433349609375,-0.271270751953125
1738772916196799700,6.5887998046875,-0.968780517578125,-0.0051727294921875,-0.27020263671875
1738772916206791000,6.598791015625,-0.9689483642578125,-0.005462646484375,-0.2696075439453125
1738772916216781800,6.60878173828125,-0.9679107666015625,-0.0056610107421875,-0.271392822265625
1738772916226772700,6.618772705078125,-0.968719482421875,-0.0057373046875,-0.27105712890625
1738772916236763600,6.628763671875,-0.96917724609375,-0.00506591796875,-0.2709503173828125
1738772916246755800,6.638755859375,-0.9686737060546875,-0.004486083984375,-0.2693939208984375
1738772916256746800,6.648746826171875,-0.9702301025390625,-0.0041961669921875,-0.2695159912109375
1738772916266738000,6.658738037109375,-0.970367431640625,-0.00433349609375,-0.2703704833984375
1738772916276728800,6.668728759765625,-0.9698944091796875,-0.005096435546875,-0.2710723876953125
1738772916286719700,6.6787197265625,-0.9698333740234375,-0.004425048828125,-0.2706756591796875
1738772916296712000,6.6887119140625,-0.9697418212890625,-0.0053558349609375,-0.2706756591796875
1738772916306702800,6.698702880859375,-0.96978759765625,-0.00433349609375,-0.2707977294921875
1738772916316693800,6.70869384765625,-0.9682464599609375,-0.0045928955078125,-0.2701416015625
1738772916326684700,6.7186845703125,-0.967041015625,-0.004730224609375,-0.2694854736328125
1738772916336675800,6.72867578125,-0.9687347412109375,-0.00408935546875,-0.2699127197265625
1738772916346667800,6.738667724609375,-0.9690399169921875,-0.0048675537109375,-0.270172119140625
1738772916356659000,6.748658935546875,-0.9690399169921875,-0.0047149658203125,-0.27069091796875
1738772916366649900,6.75864990234375,-0.9684600830078125,-0.004669189453125,-0.2704620361328125
1738772916376640800,6.768640869140625,-0.9700927734375,-0.0053558349609375,-0.2711944580078125
1738772916386631700,6.778631591796875,-0.9694671630859375,-0.0042572021484375,-0.2694091796875
1738772916396624000,6.788623779296875,-0.96856689453125,-0.0045623779296875,-0.2711639404296875
1738772916406614800,6.79861474609375,-0.9684295654296875,-0.0042877197265625,-0.2711029052734375
1738772916416605700,6.808605712890625,-0.9700775146484375,-0.0048370361328125,-0.271484375
1738772916426596900,6.818596923828125,-0.9698486328125,-0.0061187744140625,-0.2701568603515625
1738772916436587800,6.828587890625,-0.969390869140625,-0.0042724609375,-0.271392822265625
1738772916446580000,6.838580078125,-0.9701690673828125,-0.00482177734375,-0.2705535888671875
1738772916456571000,6.84857080078125,-0.969390869140625,-0.005126953125,-0.2707672119140625
1738772916466561800,6.858561767578125,-0.96905517578125,-0.0042266845703125,-0.27099609375
1738772916476552700,6.868552734375,-0.9706878662109375,-0.0043182373046875,-0.270538330078125
1738772916486544000,6.8785439453125,-0.9699859619140625,-0.0052032470703125,-0.270843505859375
1738772916496535800,6.888535888671875,-0.9672393798828125,-0.0036773681640625,-0.2700653076171875
1738772916506526700,6.898526611328125,-0.9687347412109375,-0.00537109375,-0.270751953125
1738772916516518000,6.908517822265625,-0.9697418212890625,-0.0052032470703125,-0.2714996337890625
1738772916526508800,6.9185087890625,-0.9685821533203125,-0.0037689208984375,-0.270904541015625
1738772916536499700,6.928499755859375,-0.966766357421875,-0.0038604736328125,-0.2710723876953125
1738772916546492000,6.938491943359375,-0.9703521728515625,-0.0042266845703125,-0.2714385986328125
1738772916556482800,6.94848291015625,-0.969146728515625,-0.0050048828125,-0.270782470703125
1738772916566473700,6.9584736328125,-0.967864990234375,-0.0048065185546875,-0.2697296142578125
1738772916576465000,6.96846484375,-0.969024658203125,-0.004669189453125,-0.270263671875
1738772916586455800,6.978455810546875,-0.9700469970703125,-0.005401611328125,-0.2705841064453125
1738772916596447700,6.98844775390625,-0.96923828125,-0.004974365234375,-0.2708740234375
1738772916606439000,6.99843896484375,-0.9700927734375,-0.005126953125,-0.27117919921875
1738772916616429800,7.008429931640625,-0.9699859619140625,-0.0052032470703125,-0.2703094482421875
1738772916626420700,7.018420654296875,-0.9695892333984375,-0.0055389404296875,-0.2708740234375
1738772916636412000,7.028411865234375,-0.9702606201171875,-0.0052947998046875,-0.270538330078125
1738772916646403800,7.03840380859375,-0.9691925048828125,-0.0048675537109375,-0.26983642578125
1738772916656394800,7.048394775390625,-0.9695892333984375,-0.003875732421875,-0.2715911865234375
1738772916666386000,7.058385986328125,-0.969146728515625,-0.0055084228515625,-0.27130126953125
1738772916676376800,7.068376953125,-0.969512939453125,-0.0056304931640625,-0.27093505859375
1738772916686367700,7.07836767578125,-0.9679718017578125,-0.003509521484375,-0.2707672119140625
1738772916696360000,7.08835986328125,-0.968048095703125,-0.004547119140625,-0.27008056640625
1738772916706350800,7.098350830078125,-0.9692230224609375,-0.00506591796875,-0.2715301513671875
1738772916716341800,7.108341796875,-0.9688873291015625,-0.00439453125,-0.270538330078125
1738772916726333000,7.1183330078125,-0.9690399169921875,-0.0042572021484375,-0.271209716796875
1738772916736323800,7.12832373046875,-0.9692535400390625,-0.004852294921875,-0.271240234375
1738772916746315800,7.138315673828125,-0.9700927734375,-0.0047760009765625,-0.2696685791015625
1738772916756307000,7.148306884765625,-0.9681396484375,-0.00494384765625,-0.271331787109375
1738772916766297900,7.1582978515625,-0.968719482421875,-0.005035400390625,-0.27093505859375
1738772916776288800,7.168288818359375,-0.968719482421875,-0.004547119140625,-0.2703399658203125
1738772916786280000,7.178280029296875,-0.9683990478515625,-0.0048980712890625,-0.269927978515625
1738772916796270800,7.188270751953125,-0.9702911376953125,-0.0037689208984375,-0.2716827392578125
1738772916806262800,7.1982626953125,-0.96875,-0.0044403076171875,-0.2700042724609375
1738772916816254000,7.20825390625,-0.9691619873046875,-0.00537109375,-0.2703704833984375
1738772916826244900,7.218244873046875,-0.9693756103515625,-0.005096435546875,-0.2711639404296875
1738772916836235800,7.22823583984375,-0.9676971435546875,-0.0053253173828125,-0.2707977294921875
1738772916846227000,7.23822705078125,-0.968048095703125,-0.0052490234375,-0.2705535888671875
1738772916856219000,7.248218994140625,-0.9683990478515625,-0.004150390625,-0.271575927734375
1738772916866209800,7.258209716796875,-0.9693450927734375,-0.003997802734375,-0.26971435546875
1738772916876201000,7.268200927734375,-0.968994140625,-0.0042724609375,-0.2718048095703125
1738772916886191900,7.27819189453125,-0.969085693359375,-0.0045928955078125,-0.2717437744140625
1738772916896182800,7.288182861328125,-0.9689483642578125,-0.005645751953125,-0.270538330078125
1738772916906175000,7.298175048828125,-0.9694976806640625,-0.00506591796875,-0.2710113525390625
1738772916916166000,7.308165771484375,-0.9690399169921875,-0.0052337646484375,-0.27081298828125
1738772916926156800,7.31815673828125,-0.9694366455078125,-0.0041656494140625,-0.270263671875
1738772916936148000,7.32814794921875,-0.969207763671875,-0.0051116943359375,-0.2715911865234375
1738772916946139000,7.338138916015625,-0.9688873291015625,-0.00457763671875,-0.2724456787109375
1738772916956130800,7.348130859375,-0.9682464599609375,-0.00396728515625,-0.2704620361328125
1738772916966122000,7.3581220703125,-0.9689788818359375,-0.0051422119140625,-0.2711029052734375
1738772916976113000,7.36811279296875,-0.969970703125,-0.004180908203125,-0.269683837890625
1738772916986103800,7.378103759765625,-0.9688568115234375,-0.00482177734375,-0.2723388671875
1738772916996094700,7.3880947265625,-0.9690399169921875,-0.0048065185546875,-0.2711334228515625
1738772917006086000,7.3980859375,-0.967559814453125,-0.0050811767578125,-0.270599365234375
1738772917016077800,7.408077880859375,-0.9679412841796875,-0.0051422119140625,-0.27117919921875
1738772917026069000,7.418069091796875,-0.968536376953125,-0.0046844482421875,-0.270477294921875
1738772917036060000,7.428059814453125,-0.96856689453125,-0.004302978515625,-0.27032470703125
1738772917046050800,7.43805078125,-0.9702911376953125,-0.0057525634765625,-0.2698516845703125
1738772917056041700,7.448041748046875,-0.968658447265625,-0.0043182373046875,-0.270721435546875
1738772917066034000,7.458033935546875,-0.9689178466796875,-0.0038604736328125,-0.2712860107421875
1738772917076024800,7.46802490234375,-0.96820068359375,-0.0040130615234375,-0.2718048095703125
1738772917086016000,7.47801611328125,-0.969970703125,-0.0047607421875,-0.2703094482421875
1738772917096007000,7.4880068359375,-0.969573974609375,-0.0050811767578125,-0.2701873779296875
1738772917105997800,7.497997802734375,-0.9685516357421875,-0.0045623779296875,-0.2723846435546875
1738772917115990000,7.507989990234375,-0.9685211181640625,-0.00408935546875,-0.2711944580078125
1738772917125981000,7.51798095703125,-0.970123291015625,-0.004425048828125,-0.271728515625
1738772917135971800,7.527971923828125,-0.9699859619140625,-0.00390625,-0.2711029052734375
1738772917145962800,7.537962646484375,-0.9684906005859375,-0.00543212890625,-0.2703857421875
1738772917155954000,7.547953857421875,-0.96832275390625,-0.0058746337890625,-0.2716217041015625
1738772917165945900,7.55794580078125,-0.970703125,-0.0052490234375,-0.2709808349609375
1738772917175937000,7.56793701171875,-0.969024658203125,-0.0042877197265625,-0.2708892822265625
1738772917185928000,7.577927978515625,-0.969146728515625,-0.005157470703125,-0.27081298828125
1738772917195918800,7.5879189453125,-0.9698333740234375,-0.0047454833984375,-0.2704620361328125
1738772917205909800,7.59790966796875,-0.9700469970703125,-0.0056915283203125,-0.2713470458984375
1738772917215901000,7.60790087890625,-0.96795654296875,-0.0045013427734375,-0.2708282470703125
1738772917225892900,7.617892822265625,-0.9684906005859375,-0.004608154296875,-0.27020263671875
1738772917235883800,7.6278837890625,-0.9685516357421875,-0.0054168701171875,-0.2706298828125
1738772917245875000,7.637875,-0.9678497314453125,-0.0047607421875,-0.270843505859375
1738772917255865900,7.647865966796875,-0.969390869140625,-0.003814697265625,-0.2707977294921875
1738772917265856800,7.657856689453125,-0.969024658203125,-0.0047760009765625,-0.272369384765625
1738772917275849000,7.667848876953125,-0.9684906005859375,-0.0044097900390625,-0.271392822265625
1738772917285840000,7.67783984375,-0.969207763671875,-0.004302978515625,-0.2707672119140625
1738772917295830800,7.687830810546875,-0.9688568115234375,-0.0062103271484375,-0.271575927734375
1738772917305822000,7.697822021484375,-0.96978759765625,-0.0046539306640625,-0.27197265625
1738772917315812900,7.707812744140625,-0.9678955078125,-0.0052642822265625,-0.2707366943359375
1738772917325804800,7.7178046875,-0.9689483642578125,-0.0047607421875,-0.27008056640625
1738772917335796000,7.7277958984375,-0.9690093994140625,-0.0042266845703125,-0.2718505859375
1738772917345787000,7.737786865234375,-0.9693756103515625,-0.00494384765625,-0.2711639404296875
1738772917355777800,7.74777783203125,-0.96875,-0.005462646484375,-0.26971435546875
1738772917365769000,7.75776904296875,-0.9685211181640625,-0.0042724609375,-0.2699737548828125
1738772917375760000,7.767759765625,-0.9707489013671875,-0.0055389404296875,-0.27130126953125
1738772917385751800,7.777751708984375,-0.9704437255859375,-0.0035858154296875,-0.27154541015625
1738772917395743000,7.787742919921875,-0.9682769775390625,-0.00439453125,-0.27166748046875
1738772917405734000,7.79773388671875,-0.9693756103515625,-0.006103515625,-0.2704010009765625
1738772917415724800,7.807724853515625,-0.9674072265625,-0.0054168701171875,-0.2709503173828125
1738772917425716000,7.817716064453125,-0.9694976806640625,-0.0044097900390625,-0.2710723876953125
1738772917435708000,7.8277080078125,-0.9696044921875,-0.005096435546875,-0.27056884765625
1738772917445698800,7.83769873046875,-0.96881103515625,-0.004913330078125,-0.2703704833984375
1738772917455690000,7.84768994140625,-0.968536376953125,-0.0047607421875,-0.2709808349609375
1738772917465681000,7.857680908203125,-0.9682769775390625,-0.0047454833984375,-0.270416259765625
1738772917475671800,7.867671875,-0.9690399169921875,-0.0057373046875,-0.2716522216796875
1738772917485664000,7.8776640625,-0.9687652587890625,-0.005584716796875,-0.2710723876953125
1738772917495655000,7.887655029296875,-0.969757080078125,-0.0037689208984375,-0.2715606689453125
1738772917505645800,7.897645751953125,-0.96929931640625,-0.00537109375,-0.269622802734375
1738772917515637000,7.907636962890625,-0.968353271484375,-0.004974365234375,-0.2706756591796875
1738772917525628000,7.9176279296875,-0.9691925048828125,-0.0047607421875,-0.2704925537109375
1738772917535618800,7.927618896484375,-0.9684600830078125,-0.0040130615234375,-0.2707061767578125
1738772917545611000,7.937611083984375,-0.9690704345703125,-0.00457763671875,-0.2711334228515625
1738772917556225800,7.948225830078125,-0.9698638916015625,-0.0050811767578125,-0.2711944580078125
1738772917566216700,7.958216796875,-0.9688568115234375,-0.0048370361328125,-0.2708282470703125
1738772917576208000,7.968207763671875,-0.9703521728515625,-0.0040130615234375,-0.2701416015625
1738772917586198800,7.97819873046875,-0.970794677734375,-0.005340576171875,-0.2705535888671875
1738772917596191000,7.98819091796875,-0.968994140625,-0.004974365234375,-0.271240234375
1738772917606182000,7.998181884765625,-0.9685821533203125,-0.0048980712890625,-0.2710723876953125
1738772917616172800,8.0081728515625,-0.9678497314453125,-0.0045623779296875,-0.27032470703125
1738772917626163700,8.018163818359374,-0.969451904296875,-0.0063323974609375,-0.2707366943359375
1738772917636155000,8.02815478515625,-0.969024658203125,-0.0053558349609375,-0.2703704833984375
1738772917646146800,8.038146728515626,-0.9701995849609375,-0.0039825439453125,-0.2713775634765625
1738772917656137700,8.0481376953125,-0.9669036865234375,-0.0048828125,-0.2717742919921875
1738772917666129000,8.05812890625,-0.9691314697265625,-0.004638671875,-0.270233154296875
1738772917676119800,8.068119873046875,-0.9699859619140625,-0.0052490234375,-0.2692413330078125
1738772917686110700,8.07811083984375,-0.968902587890625,-0.005340576171875,-0.271942138671875
1738772917696102000,8.088101806640625,-0.968841552734375,-0.004638671875,-0.2711029052734375
1738772917706093800,8.09809375,-0.9692230224609375,-0.0049591064453125,-0.271453857421875
1738772917716084700,8.108084716796874,-0.9696197509765625,-0.005157470703125,-0.2710113525390625
1738772917726076000,8.118075927734376,-0.9705352783203125,-0.0046234130859375,-0.27069091796875
1738772917736066800,8.12806689453125,-0.9690093994140625,-0.004913330078125,-0.27008056640625
1738772917746057700,8.1380576171875,-0.9685211181640625,-0.004486083984375,-0.2706756591796875
1738772917756050000,8.1480498046875,-0.9699249267578125,-0.0055999755859375,-0.270965576171875
1738772917766040800,8.158040771484375,-0.967559814453125,-0.00469970703125,-0.2710418701171875
1738772917776031700,8.16803173828125,-0.96942138671875,-0.0052032470703125,-0.2704010009765625
1738772917786023000,8.17802294921875,-0.970367431640625,-0.0057830810546875,-0.2703857421875
1738772917796013800,8.188013916015626,-0.969146728515625,-0.005157470703125,-0.27093505859375
1738772917806004700,8.198004638671875,-0.9702301025390625,-0.0038299560546875,-0.2704925537109375
1738772917815997000,8.207996826171875,-0.9690704345703125,-0.0040435791015625,-0.27105712890625
1738772917825987800,8.21798779296875,-0.968780517578125,-0.005126953125,-0.2706756591796875
1738772917835978800,8.227978759765625,-0.968505859375,-0.005096435546875,-0.2713623046875
1738772917845970000,8.237969970703125,-0.96893310546875,-0.0050506591796875,-0.2711334228515625
1738772917855960800,8.2479609375,-0.9691162109375,-0.004302978515625,-0.2704925537109375
1738772917865952800,8.257952880859374,-0.9712982177734375,-0.0052947998046875,-0.2705841064453125
1738772917875944000,8.26794384765625,-0.97076416015625,-0.006072998046875,-0.2722625732421875
1738772917885934800,8.277934814453126,-0.9680633544921875,-0.0050048828125,-0.2708892822265625
1738772917895925800,8.28792578125,-0.9686126708984375,-0.0052642822265625,-0.27105712890625
1738772917906541800,8.298541748046874,-0.9683685302734375,-0.0064544677734375,-0.271728515625
1738772917916532700,8.30853271484375,-0.970672607421875,-0.0039215087890625,-0.27154541015625
1738772917926524000,8.31852392578125,-0.9692840576171875,-0.00439453125,-0.2700347900390625
1738772917936515800,8.328515869140626,-0.9685211181640625,-0.0043487548828125,-0.269927978515625
1738772917946506800,8.3385068359375,-0.9688720703125,-0.00518798828125,-0.2706756591796875
1738772917956498000,8.348497802734375,-0.968719482421875,-0.0047760009765625,-0.2714080810546875
1738772917966488800,8.35848876953125,-0.96905517578125,-0.004547119140625,-0.27001953125
1738772917976479700,8.368479736328124,-0.968597412109375,-0.0068359375,-0.2700653076171875
1738772917986472000,8.378471923828124,-0.9702301025390625,-0.0050201416015625,-0.270965576171875
1738772917996462800,8.388462890625,-0.969573974609375,-0.0044708251953125,-0.2715606689453125
1738772918006453800,8.398453857421876,-0.9696807861328125,-0.0041351318359375,-0.2702789306640625
1738772918016445000,8.40844482421875,-0.96942138671875,-0.0045013427734375,-0.27008056640625
1738772918026435800,8.418435791015625,-0.9681549072265625,-0.0054473876953125,-0.2710418701171875
1738772918036427800,8.428427734375,-0.9700164794921875,-0.0038909912109375,-0.2720794677734375
1738772918046419000,8.4384189453125,-0.9681243896484375,-0.004425048828125,-0.2713623046875
1738772918056409900,8.448409912109375,-0.9685821533203125,-0.0051727294921875,-0.2704620361328125
1738772918066400800,8.45840087890625,-0.9695281982421875,-0.0032806396484375,-0.2699127197265625
1738772918076392000,8.468391845703126,-0.968994140625,-0.0043487548828125,-0.2712860107421875
1738772918086382800,8.4783828125,-0.970001220703125,-0.0053863525390625,-0.2716827392578125
1738772918096374500,8.48837451171875,-0.9691619873046875,-0.0050506591796875,-0.269866943359375
1738772918106365400,8.498365478515625,-0.96954345703125,-0.00506591796875,-0.270355224609375
1738772918116356400,8.5083564453125,-0.96844482421875,-0.00518798828125,-0.2703704833984375
1738772918126347500,8.518347412109375,-0.9691314697265625,-0.0041351318359375,-0.2707977294921875
1738772918136338400,8.52833837890625,-0.9690093994140625,-0.004608154296875,-0.2712554931640625
1738772918146330600,8.53833056640625,-0.9685211181640625,-0.0048980712890625,-0.27117919921875
1738772918156321500,8.548321533203126,-0.969512939453125,-0.0057525634765625,-0.270782470703125
1738772918166312400,8.5583125,-0.9705352783203125,-0.0035400390625,-0.2718505859375
1738772918176303400,8.568303466796875,-0.9688873291015625,-0.0043487548828125,-0.2712860107421875
1738772918186294500,8.57829443359375,-0.9685211181640625,-0.0053558349609375,-0.2714385986328125
1738772918196286500,8.588286376953125,-0.9691925048828125,-0.0048828125,-0.270721435546875
1738772918206277400,8.59827734375,-0.968658447265625,-0.005706787109375,-0.271728515625
1738772918216268500,8.6082685546875,-0.9687347412109375,-0.0048675537109375,-0.2710418701171875
1738772918226259500,8.618259521484376,-0.968414306640625,-0.0050048828125,-0.271636962890625
1738772918236250400,8.62825048828125,-0.969268798828125,-0.0052947998046875,-0.2706146240234375
1738772918246241500,8.638241455078125,-0.968597412109375,-0.004913330078125,-0.2705078125
1738772918256233500,8.6482333984375,-0.968658447265625,-0.0046234130859375,-0.2703704833984375
1738772918266224400,8.658224365234375,-0.969879150390625,-0.0048065185546875,-0.2693328857421875
1738772918276215600,8.668215576171875,-0.96893310546875,-0.0044097900390625,-0.27032470703125
1738772918286206500,8.67820654296875,-0.9685211181640625,-0.005828857421875,-0.2715911865234375
1738772918296197400,8.688197265625,-0.968353271484375,-0.0056304931640625,-0.27020263671875
1738772918306189600,8.698189453125,-0.968353271484375,-0.0045928955078125,-0.2705078125
1738772918316180500,8.708180419921876,-0.9691314697265625,-0.00555419921875,-0.2710723876953125
1738772918326171400,8.71817138671875,-0.9684906005859375,-0.0045166015625,-0.2708740234375
1738772918336162600,8.72816259765625,-0.9696044921875,-0.0046539306640625,-0.2714080810546875
1738772918346153500,8.738153564453125,-0.967987060546875,-0.0049285888671875,-0.270233154296875
1738772918356145400,8.7481455078125,-0.96929931640625,-0.0047760009765625,-0.270843505859375
1738772918366136600,8.758136474609374,-0.968475341796875,-0.0043792724609375,-0.271484375
1738772918376127500,8.76812744140625,-0.968505859375,-0.0039215087890625,-0.270843505859375
1738772918386118400,8.778118408203126,-0.969757080078125,-0.003570556640625,-0.2703704833984375
1738772918396109600,8.788109619140625,-0.9692535400390625,-0.004241943359375,-0.2703704833984375
1738772918406100500,8.7981005859375,-0.9695281982421875,-0.0057373046875,-0.2707977294921875
1738772918416092400,8.808092529296875,-0.9687957763671875,-0.00445556640625,-0.271148681640625
1738772918426083600,8.81808349609375,-0.96923828125,-0.00482177734375,-0.2707061767578125
1738772918436074500,8.828074462890624,-0.9698486328125,-0.0044403076171875,-0.2703094482421875
1738772918446065400,8.8380654296875,-0.9683380126953125,-0.0040435791015625,-0.2700042724609375
1738772918456056600,8.848056640625,-0.96832275390625,-0.0038909912109375,-0.2708892822265625
1738772918466048500,8.858048583984376,-0.9688262939453125,-0.004425048828125,-0.269927978515625
1738772918476039400,8.868039306640625,-0.9676513671875,-0.0043487548828125,-0.2699127197265625
1738772918486030600,8.878030517578125,-0.968353271484375,-0.0036773681640625,-0.271759033203125
1738772918496021500,8.888021484375,-0.9691162109375,-0.0041656494140625,-0.271453857421875
1738772918506012400,8.898012451171875,-0.96942138671875,-0.005340576171875,-0.2718353271484375
1738772918516003300,8.90800341796875,-0.96917724609375,-0.0047760009765625,-0.2725982666015625
1738772918525995500,8.91799560546875,-0.9675140380859375,-0.00543212890625,-0.269744873046875
1738772918535986400,8.927986328125,-0.9682159423828125,-0.0056610107421875,-0.27117919921875
1738772918545977600,8.9379775390625,-0.9710540771484375,-0.0045166015625,-0.269195556640625
1738772918555968500,8.947968505859375,-0.96820068359375,-0.00439453125,-0.2714691162109375
1738772918565959400,8.95795947265625,-0.9675445556640625,-0.0056304931640625,-0.2698516845703125
1738772918575951600,8.96795166015625,-0.96923828125,-0.00537109375,-0.270263671875
1738772918585942500,8.977942626953125,-0.9693756103515625,-0.0052032470703125,-0.27105712890625
1738772918595933400,8.987933349609374,-0.970062255859375,-0.006134033203125,-0.2713165283203125
1738772918605924600,8.997924560546876,-0.9702911376953125,-0.0047454833984375,-0.2719879150390625
1738772918615915500,9.00791552734375,-0.96954345703125,-0.0041961669921875,-0.2714080810546875
1738772918625906400,9.017906494140625,-0.9687347412109375,-0.0041351318359375,-0.271026611328125
1738772918635898600,9.027898681640625,-0.96783447265625,-0.0050506591796875,-0.2705078125
1738772918645889500,9.0378896484375,-0.9674224853515625,-0.0048675537109375,-0.2703094482421875
1738772918655880400,9.04788037109375,-0.969146728515625,-0.004669189453125,-0.270965576171875
1738772918665871400,9.057871337890624,-0.9687042236328125,-0.0051727294921875,-0.270263671875
1738772918675862500,9.067862548828124,-0.9684600830078125,-0.0053253173828125,-0.27032470703125
1738772918685854500,9.0778544921875,-0.968902587890625,-0.00445556640625,-0.271759033203125
1738772918695845600,9.087845703125,-0.969818115234375,-0.0037994384765625,-0.2703094482421875
1738772918705836500,9.09783642578125,-0.9688262939453125,-0.0045013427734375,-0.270111083984375
1738772918715827500,9.107827392578125,-0.9679107666015625,-0.0038604736328125,-0.27105712890625
1738772918725818400,9.117818359375,-0.9680328369140625,-0.004608154296875,-0.2722930908203125
1738772918735810600,9.127810546875,-0.9685821533203125,-0.004852294921875,-0.2700653076171875
1738772918745801500,9.137801513671874,-0.9703216552734375,-0.00506591796875,-0.2704010009765625
1738772918755792400,9.14779248046875,-0.9697113037109375,-0.0052337646484375,-0.2712249755859375
1738772918765783600,9.157783447265626,-0.9688262939453125,-0.0048370361328125,-0.2706756591796875
1738772918775774500,9.1677744140625,-0.9679107666015625,-0.0049591064453125,-0.2722015380859375
1738772918785765400,9.177765380859375,-0.9690399169921875,-0.0056915283203125,-0.2713775634765625
1738772918795757600,9.187757568359375,-0.96942138671875,-0.003631591796875,-0.2710418701171875
1738772918805748500,9.19774853515625,-0.967926025390625,-0.0048980712890625,-0.26922607421875
1738772918815739400,9.207739501953125,-0.968292236328125,-0.0051116943359375,-0.270782470703125
1738772918825730600,9.21773046875,-0.9707794189453125,-0.00482177734375,-0.2721710205078125
1738772918835721500,9.227721435546876,-0.9698638916015625,-0.0044708251953125,-0.272430419921875
1738772918845713400,9.23771337890625,-0.968505859375,-0.005218505859375,-0.269744873046875
1738772918855704600,9.24770458984375,-0.96942138671875,-0.00531005859375,-0.269927978515625
1738772918865695500,9.257695556640625,-0.9693450927734375,-0.00445556640625,-0.2720184326171875
1738772918875686400,9.267686279296875,-0.9704437255859375,-0.0047454833984375,-0.2715911865234375
1738772918885677600,9.277677490234375,-0.966339111328125,-0.00323486328125,-0.270904541015625
1738772918895668500,9.28766845703125,-0.968658447265625,-0.00439453125,-0.2709503173828125
1738772918905660400,9.297660400390624,-0.9706268310546875,-0.0054168701171875,-0.272735595703125
1738772918915651600,9.307651611328126,-0.967926025390625,-0.004180908203125,-0.2697296142578125
1738772918925642500,9.317642578125,-0.96746826171875,-0.0046539306640625,-0.2703399658203125
1738772918935633400,9.32763330078125,-0.969970703125,-0.0055694580078125,-0.270904541015625
1738772918945624600,9.33762451171875,-0.9698638916015625,-0.003265380859375,-0.2713623046875
1738772918955616500,9.347616455078125,-0.9698333740234375,-0.004791259765625,-0.270294189453125
1738772918965607400,9.357607421875,-0.9696197509765625,-0.0051727294921875,-0.2694091796875
1738772918975598600,9.3675986328125,-0.967681884765625,-0.0042572021484375,-0.2707672119140625
1738772918985589500,9.377589599609376,-0.9699554443359375,-0.0056915283203125,-0.2714691162109375
1738772918995580400,9.387580322265626,-0.969970703125,-0.004913330078125,-0.2697601318359375
1738772919005571600,9.397571533203125,-0.9683685302734375,-0.0044403076171875,-0.270477294921875
1738772919015563500,9.4075634765625,-0.968505859375,-0.0045623779296875,-0.270111083984375
1738772919025554400,9.417554443359375,-0.96978759765625,-0.0046539306640625,-0.2712860107421875
1738772919035545600,9.427545654296875,-0.9687347412109375,-0.0055389404296875,-0.270233154296875
1738772919045536500,9.43753662109375,-0.9702301025390625,-0.0052642822265625,-0.2720184326171875
1738772919055527400,9.44752734375,-0.9699554443359375,-0.0032196044921875,-0.2715911865234375
1738772919065518300,9.457518310546876,-0.9679718017578125,-0.0032806396484375,-0.2705230712890625
1738772919075510500,9.467510498046876,-0.968475341796875,-0.00445556640625,-0.2701263427734375
1738772919085501400,9.47750146484375,-0.971405029296875,-0.0045318603515625,-0.2716217041015625
1738772919095493400,9.487493408203125,-0.96832275390625,-0.004547119140625,-0.2710418701171875
1738772919105484300,9.497484375,-0.968231201171875,-0.004119873046875,-0.2716827392578125
1738772919115475500,9.507475341796875,-0.9694976806640625,-0.0050811767578125,-0.2713775634765625
1738772919125467400,9.51746728515625,-0.9688720703125,-0.0041961669921875,-0.271759033203125
1738772919135458300,9.527458251953124,-0.9690093994140625,-0.0055999755859375,-0.2705841064453125
1738772919145449500,9.537449462890624,-0.9687957763671875,-0.004638671875,-0.269866943359375
1738772919155440400,9.5474404296875,-0.968414306640625,-0.00543212890625,-0.270172119140625
1738772919165431300,9.557431396484375,-0.969512939453125,-0.004119873046875,-0.271759033203125
1738772919175422500,9.56742236328125,-0.9686126708984375,-0.0049896240234375,-0.270721435546875
1738772919185414400,9.577414306640625,-0.967376708984375,-0.0046234130859375,-0.26953125
1738772919195405300,9.5874052734375,-0.96826171875,-0.0048980712890625,-0.2720184326171875
1738772919205396500,9.597396484375,-0.969085693359375,-0.0039520263671875,-0.270721435546875
1738772919215387400,9.607387451171874,-0.969268798828125,-0.0052642822265625,-0.27056884765625
1738772919225378300,9.61737841796875,-0.9688720703125,-0.00445556640625,-0.2699127197265625
1738772919235370500,9.62737060546875,-0.968414306640625,-0.00506591796875,-0.2710113525390625
1738772919245361400,9.637361328125,-0.968597412109375,-0.00531005859375,-0.2708587646484375
1738772919255352300,9.647352294921875,-0.969024658203125,-0.004638671875,-0.2711029052734375
1738772919265343500,9.657343505859375,-0.9674835205078125,-0.0044708251953125,-0.2711944580078125
1738772919275334400,9.66733447265625,-0.969024658203125,-0.0058135986328125,-0.271270751953125
1738772919285325300,9.6773251953125,-0.970123291015625,-0.0051727294921875,-0.2715301513671875
1738772919295317500,9.6873173828125,-0.9674835205078125,-0.0054779052734375,-0.270660400390625
1738772919305308400,9.697308349609376,-0.969573974609375,-0.004852294921875,-0.2697601318359375
1738772919315299300,9.70729931640625,-0.9701995849609375,-0.0041656494140625,-0.2713775634765625
1738772919325290200,9.717290283203125,-0.968597412109375,-0.0050811767578125,-0.271240234375
1738772919335281400,9.727281494140625,-0.9704437255859375,-0.003082275390625,-0.2704010009765625
1738772919345272300,9.737272216796875,-0.968231201171875,-0.0036773681640625,-0.2692718505859375
1738772919355264500,9.747264404296875,-0.96832275390625,-0.0038909912109375,-0.270782470703125
1738772919365255400,9.75725537109375,-0.9686737060546875,-0.002685546875,-0.27130126953125
1738772919375246300,9.767246337890626,-0.9690704345703125,-0.0037841796875,-0.2698516845703125
1738772919385237200,9.7772373046875,-0.9682464599609375,-0.003509521484375,-0.2688446044921875
1738772919395228400,9.787228515625,-0.969451904296875,-0.0042572021484375,-0.271270751953125
1738772919405220400,9.797220458984375,-0.9703369140625,-0.0046539306640625,-0.2707061767578125
1738772919415211500,9.80721142578125,-0.97021484375,-0.00469970703125,-0.2705078125
1738772919425202400,9.817202392578125,-0.969085693359375,-0.0058441162109375,-0.2719268798828125
1738772919435193300,9.827193359375,-0.96929931640625,-0.004791259765625,-0.270416259765625
1738772919445184300,9.837184326171876,-0.9684600830078125,-0.0048828125,-0.2713470458984375
1738772919455175400,9.847175537109376,-0.966949462890625,-0.0050048828125,-0.27093505859375
1738772919465167400,9.85716748046875,-0.9678802490234375,-0.0051727294921875,-0.2706298828125
1738772919475158300,9.867158203125,-0.969482421875,-0.0046234130859375,-0.271820068359375
1738772919485149400,9.8771494140625,-0.96826171875,-0.0036773681640625,-0.27020263671875
1738772919495140400,9.887140380859375,-0.969696044921875,-0.0044097900390625,-0.2703399658203125
1738772919505131300,9.89713134765625,-0.969635009765625,-0.00457763671875,-0.2702789306640625
1738772919515123500,9.90712353515625,-0.96917724609375,-0.004180908203125,-0.2703094482421875
1738772919525114400,9.9171142578125,-0.967559814453125,-0.005035400390625,-0.271728515625
1738772919535105300,9.927105224609376,-0.9682159423828125,-0.0051727294921875,-0.270538330078125
1738772919545096400,9.937096435546875,-0.970733642578125,-0.0044708251953125,-0.270843505859375
1738772919555087400,9.94708740234375,-0.9695892333984375,-0.0043182373046875,-0.27099609375
1738772919565078300,9.957078369140625,-0.968536376953125,-0.0042266845703125,-0.2699432373046875
1738772919575070500,9.967070556640625,-0.968780517578125,-0.0040283203125,-0.2706298828125
1738772919585061400,9.977061279296874,-0.9683685302734375,-0.0044097900390625,-0.270416259765625
1738772919595052300,9.98705224609375,-0.9683074951171875,-0.005126953125,-0.2696533203125
1738772919605043500,9.99704345703125,-0.96929931640625,-0.0057373046875,-0.2702484130859375
1738772919615034400,10.007034423828125,-0.97003173828125,-0.005401611328125,-0.27142333984375
1738772919625025300,10.017025390625,-0.9683685302734375,-0.005157470703125,-0.2700958251953125
1738772919635017500,10.027017578125,-0.9674835205078125,-0.0042877197265625,-0.27020263671875
1738772919645008400,10.03700830078125,-0.9704742431640625,-0.0051116943359375,-0.2710723876953125
1738772919654999300,10.046999267578125,-0.9692840576171875,-0.0055084228515625,-0.2721405029296875
1738772919664990500,10.056990478515624,-0.9655609130859375,-0.0051116943359375,-0.2707977294921875
1738772919674981400,10.0669814453125,-0.968597412109375,-0.004547119140625,-0.2711029052734375
1738772919684973300,10.076973388671876,-0.9691925048828125,-0.0047149658203125,-0.271209716796875
1738772919694964500,10.086964599609376,-0.9676971435546875,-0.004302978515625,-0.27008056640625
1738772919704955400,10.096955322265625,-0.9680328369140625,-0.0049591064453125,-0.271026611328125
1738772919714946300,10.1069462890625,-0.9703369140625,-0.004058837890625,-0.270751953125
1738772919724937500,10.1169375,-0.96783447265625,-0.003936767578125,-0.271697998046875
1738772919734928400,10.126928466796874,-0.96966552734375,-0.005218505859375,-0.270477294921875
1738772919744920300,10.13692041015625,-0.970489501953125,-0.0041656494140625,-0.269256591796875
1738772919754911500,10.146911376953126,-0.9690093994140625,-0.00439453125,-0.271270751953125
1738772919764902400,10.15690234375,-0.96942138671875,-0.0054779052734375,-0.270843505859375
1738772919774893300,10.166893310546875,-0.96954345703125,-0.0046539306640625,-0.2707061767578125
1738772919784884200,10.17688427734375,-0.968170166015625,-0.0043487548828125,-0.27117919921875
1738772919794875400,10.18687548828125,-0.96844482421875,-0.005615234375,-0.2708740234375
1738772919804867300,10.196867431640625,-0.9695892333984375,-0.0036163330078125,-0.27197265625
1738772919814858500,10.2068583984375,-0.969390869140625,-0.0046539306640625,-0.2698516845703125
1738772919824849400,10.216849365234374,-0.9680023193359375,-0.0034332275390625,-0.270782470703125
1738772919834840300,10.22684033203125,-0.9699249267578125,-0.004852294921875,-0.2708282470703125
1738772919844831200,10.236831298828125,-0.9688720703125,-0.0043792724609375,-0.2700347900390625
1738772919854823400,10.246823486328125,-0.9678497314453125,-0.0041046142578125,-0.2708282470703125
1738772919864814300,10.256814453125,-0.96954345703125,-0.0051727294921875,-0.2711181640625
1738772919874805200,10.26680517578125,-0.9701080322265625,-0.004669189453125,-0.27044677734375
1738772919884796400,10.27679638671875,-0.9678802490234375,-0.0040740966796875,-0.26959228515625
1738772919894787300,10.286787353515624,-0.969635009765625,-0.004364013671875,-0.2718505859375
1738772919904778200,10.2967783203125,-0.9705352783203125,-0.00604248046875,-0.2710723876953125
1738772919914770400,10.3067705078125,-0.96905517578125,-0.0048675537109375,-0.2705841064453125
1738772919924761300,10.31676123046875,-0.9675445556640625,-0.0041656494140625,-0.2698822021484375
1738772919934752300,10.326752197265625,-0.969573974609375,-0.0039825439453125,-0.2711181640625
1738772919944743400,10.336743408203125,-0.9689483642578125,-0.0049896240234375,-0.27020263671875
1738772919954734300,10.346734375,-0.969329833984375,-0.0050048828125,-0.2705535888671875
1738772919964725200,10.356725341796874,-0.96917724609375,-0.00518798828125,-0.270782470703125
1738772919974717400,10.366717529296874,-0.9691314697265625,-0.004669189453125,-0.2703857421875
1738772919984708400,10.376708251953126,-0.9698486328125,-0.0034332275390625,-0.271392822265625
1738772919994699300,10.38669921875,-0.969879150390625,-0.0049591064453125,-0.2720489501953125
1738772920004690400,10.3966904296875,-0.9683074951171875,-0.0042266845703125,-0.27081298828125
1738772920014681300,10.406681396484375,-0.969024658203125,-0.0046844482421875,-0.2711334228515625
1738772920024673300,10.41667333984375,-0.9695587158203125,-0.004852294921875,-0.2703857421875
1738772920034664400,10.42666455078125,-0.9698638916015625,-0.005615234375,-0.271484375
1738772920044655400,10.4366552734375,-0.9691925048828125,-0.0045013427734375,-0.270751953125
1738772920054646300,10.446646240234376,-0.9693145751953125,-0.00537109375,-0.2711334228515625
1738772920064637400,10.456637451171876,-0.96923828125,-0.0051116943359375,-0.2709808349609375
1738772920074628400,10.46662841796875,-0.9680633544921875,-0.004241943359375,-0.270294189453125
1738772920084620300,10.476620361328125,-0.9683074951171875,-0.005096435546875,-0.2701873779296875
1738772920094610200,10.486610107421875,-0.9685821533203125,-0.00555419921875,-0.2708282470703125
1738772920104601300,10.496601318359374,-0.9691925048828125,-0.0044097900390625,-0.270233154296875
1738772920114592300,10.50659228515625,-0.9680633544921875,-0.00494384765625,-0.27203369140625
1738772920124583200,10.516583251953126,-0.9681396484375,-0.0038909912109375,-0.26885986328125
1738772920134574300,10.52657421875,-0.9701080322265625,-0.00457763671875,-0.2706146240234375
1738772920144566300,10.536566162109375,-0.9708251953125,-0.005767822265625,-0.27215576171875
1738772920154557200,10.54655712890625,-0.9676666259765625,-0.00482177734375,-0.2708587646484375
1738772920164548400,10.55654833984375,-0.968292236328125,-0.0042877197265625,-0.27178955078125
1738772920174539300,10.566539306640625,-0.9684295654296875,-0.005340576171875,-0.27130126953125
1738772920184530200,10.5765302734375,-0.9687042236328125,-0.0049591064453125,-0.2711334228515625
1738772920194521300,10.586521240234376,-0.9690093994140625,-0.0043182373046875,-0.26953125
1738772920204513300,10.59651318359375,-0.9689178466796875,-0.0054168701171875,-0.27099609375
1738772920214504200,10.606504150390625,-0.9678192138671875,-0.004608154296875,-0.27008056640625
1738772920224495400,10.616495361328125,-0.9695587158203125,-0.0044403076171875,-0.27069091796875
1738772920234486300,10.626486328125,-0.9691619873046875,-0.005645751953125,-0.2714691162109375
1738772920244477200,10.636477294921875,-0.9693145751953125,-0.0054473876953125,-0.2708587646484375
1738772920254469400,10.646469482421875,-0.968475341796875,-0.0047454833984375,-0.270721435546875
1738772920264460300,10.656460205078124,-0.969268798828125,-0.003997802734375,-0.270477294921875
1738772920274451200,10.666451171875,-0.9691619873046875,-0.00311279296875,-0.269866943359375
1738772920284442400,10.6764423828125,-0.969268798828125,-0.0037078857421875,-0.271453857421875
1738772920294433300,10.686433349609375,-0.9694061279296875,-0.0052947998046875,-0.2701416015625
1738772920304424200,10.696424072265625,-0.9689788818359375,-0.004913330078125,-0.2699737548828125
1738772920314416400,10.70641650390625,-0.96917724609375,-0.004669189453125,-0.271026611328125
1738772920324407300,10.7164072265625,-0.9696044921875,-0.0051422119140625,-0.2705535888671875
1738772920334398200,10.726398193359374,-0.969512939453125,-0.0041656494140625,-0.269500732421875
1738772920344389400,10.736389404296874,-0.96990966796875,-0.0052642822265625,-0.2702484130859375
1738772920354380300,10.74638037109375,-0.9677581787109375,-0.0043487548828125,-0.2718353271484375
1738772920364371200,10.75637109375,-0.969940185546875,-0.0037994384765625,-0.2706756591796875
1738772920374363400,10.76636328125,-0.9703216552734375,-0.0052032470703125,-0.2705230712890625
1738772920384354300,10.776354248046875,-0.9686279296875,-0.00494384765625,-0.270782470703125
1738772920394345200,10.78634521484375,-0.9683837890625,-0.005645751953125,-0.2712860107421875
1738772920404336000,10.796336181640624,-0.9698333740234375,-0.0056915283203125,-0.2708282470703125
1738772920414327300,10.806327392578124,-0.9699859619140625,-0.0042572021484375,-0.2698516845703125
1738772920424319200,10.8163193359375,-0.969573974609375,-0.0051422119140625,-0.270599365234375
1738772920434310400,10.826310302734376,-0.969329833984375,-0.0053863525390625,-0.27044677734375
1738772920444301300,10.83630126953125,-0.9689788818359375,-0.0060577392578125,-0.2693328857421875
1738772920454292200,10.846292236328125,-0.96875,-0.0045166015625,-0.270721435546875
1738772920464283100,10.856283203125,-0.9701385498046875,-0.00543212890625,-0.2710418701171875
1738772920474274300,10.8662744140625,-0.9696807861328125,-0.0047454833984375,-0.2696075439453125
1738772920484266200,10.876266357421875,-0.9691925048828125,-0.0054779052734375,-0.270294189453125
1738772920494257200,10.886257080078124,-0.969207763671875,-0.0056304931640625,-0.2716064453125
1738772920504248300,10.896248291015626,-0.969940185546875,-0.00543212890625,-0.2702484130859375
1738772920514239200,10.9062392578125,-0.9687957763671875,-0.0041351318359375,-0.270843505859375
1738772920524230100,10.916230224609375,-0.96868896484375,-0.004425048828125,-0.2714691162109375
1738772920534221300,10.92622119140625,-0.9698638916015625,-0.0040283203125,-0.27130126953125
1738772920544213200,10.936213134765625,-0.9673309326171875,-0.004974365234375,-0.2719879150390625
1738772920554204200,10.9462041015625,-0.9683837890625,-0.0047149658203125,-0.271240234375
1738772920564195300,10.9561953125,-0.967803955078125,-0.0046539306640625,-0.27069091796875
1738772920574186200,10.966186279296876,-0.968658447265625,-0.0039520263671875,-0.270355224609375
1738772920584177200,10.97617724609375,-0.9697113037109375,-0.0044403076171875,-0.26995849609375
1738772920594168300,10.986168212890625,-0.969879150390625,-0.00469970703125,-0.2711639404296875
1738772920604160300,10.99616015625,-0.96856689453125,-0.0044403076171875,-0.2710113525390625
1738772920614151200,11.006151123046875,-0.968353271484375,-0.0050506591796875,-0.270172119140625
1738772920624142300,11.016142333984375,-0.968505859375,-0.004150390625,-0.2722320556640625
1738772920634133200,11.02613330078125,-0.9680938720703125,-0.0043182373046875,-0.2713775634765625
1738772920644124200,11.036124267578124,-0.9682464599609375,-0.0046539306640625,-0.2697296142578125
1738772920654115300,11.046115234375,-0.968292236328125,-0.00537109375,-0.2712860107421875
1738772920664107300,11.056107177734376,-0.96966552734375,-0.0043182373046875,-0.2713470458984375
1738772920674098200,11.06609814453125,-0.97003173828125,-0.004791259765625,-0.2709503173828125
1738772920684089300,11.07608935546875,-0.96923828125,-0.005584716796875,-0.2696685791015625
1738772920694080300,11.086080322265625,-0.9692230224609375,-0.004119873046875,-0.2710418701171875
1738772920704071200,11.0960712890625,-0.968994140625,-0.004180908203125,-0.2713165283203125
1738772920714062300,11.106062255859374,-0.97027587890625,-0.004608154296875,-0.272186279296875
1738772920724054300,11.11605419921875,-0.9691925048828125,-0.0042724609375,-0.270111083984375
1738772920734045200,11.126045166015626,-0.9693756103515625,-0.0047149658203125,-0.2711029052734375
1738772920744036400,11.136036376953125,-0.968902587890625,-0.0048370361328125,-0.2721099853515625
1738772920754027300,11.14602734375,-0.9689178466796875,-0.0039825439453125,-0.2702789306640625
1738772920764018200,11.15601806640625,-0.9680633544921875,-0.0056915283203125,-0.271331787109375
1738772920774009300,11.16600927734375,-0.9691162109375,-0.0049285888671875,-0.271514892578125
1738772920784001300,11.176001220703125,-0.9694671630859375,-0.004547119140625,-0.270721435546875
1738772920793992200,11.1859921875,-0.96923828125,-0.0041046142578125,-0.2703704833984375
1738772920803983000,11.195983154296876,-0.97003173828125,-0.00543212890625,-0.2701416015625
1738772920813974300,11.205974365234376,-0.9698944091796875,-0.005767822265625,-0.270904541015625
1738772920823965200,11.215965087890625,-0.96923828125,-0.0055084228515625,-0.271484375
1738772920833957400,11.225957275390625,-0.968536376953125,-0.0041961669921875,-0.2711029052734375
1738772920843948300,11.2359482421875,-0.9679412841796875,-0.0051422119140625,-0.2717742919921875
1738772920853939200,11.245939208984375,-0.9706573486328125,-0.0045013427734375,-0.2718353271484375
1738772920863930000,11.25593017578125,-0.96832275390625,-0.003997802734375,-0.27178955078125
1738772920873921300,11.26592138671875,-0.9681549072265625,-0.0060577392578125,-0.269744873046875
1738772920883912400,11.275912353515626,-0.9683380126953125,-0.0047149658203125,-0.2702484130859375
1738772920893904100,11.285904052734375,-0.970367431640625,-0.0047760009765625,-0.27099609375
1738772920903895300,11.295895263671875,-0.971527099609375,-0.0055694580078125,-0.2710113525390625
1738772920913886200,11.30588623046875,-0.9691619873046875,-0.00537109375,-0.2704315185546875
1738772920923877000,11.315877197265625,-0.96856689453125,-0.005523681640625,-0.269775390625
1738772920933868300,11.325868408203124,-0.969268798828125,-0.0047454833984375,-0.271087646484375
1738772920943859500,11.335859375,-0.970306396484375,-0.0051116943359375,-0.272369384765625
1738772920953851100,11.34585107421875,-0.9687042236328125,-0.005096435546875,-0.269317626953125
1738772920963842300,11.35584228515625,-0.969268798828125,-0.0057525634765625,-0.27020263671875
1738772920973833200,11.365833251953125,-0.969512939453125,-0.0063018798828125,-0.2712860107421875
1738772920983824100,11.37582421875,-0.9686279296875,-0.0058441162109375,-0.269989013671875
1738772920993815300,11.385815185546875,-0.9688873291015625,-0.0040283203125,-0.2699127197265625
1738772921003806500,11.395806396484375,-0.96917724609375,-0.0058441162109375,-0.27154541015625
1738772921013798100,11.405798095703124,-0.9693450927734375,-0.0051727294921875,-0.271331787109375
1738772921023789300,11.415789306640624,-0.9706268310546875,-0.00518798828125,-0.2703704833984375
1738772921033780200,11.4257802734375,-0.9687652587890625,-0.0046844482421875,-0.270843505859375
1738772921043771400,11.435771484375,-0.9683074951171875,-0.0041961669921875,-0.2706298828125
1738772921053762600,11.445762451171875,-0.97003173828125,-0.0044708251953125,-0.2718505859375
1738772921063753500,11.45575341796875,-0.969818115234375,-0.005584716796875,-0.270538330078125
1738772921073745200,11.4657451171875,-0.9693603515625,-0.0050048828125,-0.269287109375
1738772921083736300,11.475736328125,-0.9705963134765625,-0.0040283203125,-0.27044677734375
1738772921093727500,11.4857275390625,-0.9697418212890625,-0.005340576171875,-0.2711181640625
1738772921103718700,11.49571875,-0.96820068359375,-0.0050201416015625,-0.269775390625
1738772921113709600,11.50570947265625,-0.968505859375,-0.0046844482421875,-0.27154541015625
1738772921123700700,11.51570068359375,-0.96856689453125,-0.0057373046875,-0.2698516845703125
1738772921133692700,11.525692626953125,-0.9689788818359375,-0.0057220458984375,-0.2704925537109375
1738772921143683600,11.53568359375,-0.970672607421875,-0.0055999755859375,-0.2698974609375
1738772921153674500,11.545674560546875,-0.9685516357421875,-0.004974365234375,-0.2704925537109375
1738772921163665700,11.555665771484374,-0.9673004150390625,-0.0052490234375,-0.2702789306640625
1738772921173656600,11.565656494140624,-0.969207763671875,-0.0053558349609375,-0.270904541015625
1738772921183647700,11.575647705078126,-0.970123291015625,-0.0053863525390625,-0.269439697265625
1738772921193639700,11.5856396484375,-0.96826171875,-0.005340576171875,-0.269622802734375
1738772921203630600,11.595630615234375,-0.96826171875,-0.004608154296875,-0.271484375
1738772921213621500,11.60562158203125,-0.9690704345703125,-0.003814697265625,-0.2704315185546875
1738772921223612700,11.61561279296875,-0.969970703125,-0.005340576171875,-0.271240234375
1738772921233603800,11.625603759765625,-0.9683837890625,-0.005523681640625,-0.27130126953125
1738772921243594800,11.6355947265625,-0.9690093994140625,-0.0040740966796875,-0.270538330078125
1738772921253586700,11.645586669921874,-0.9703369140625,-0.0058441162109375,-0.2710113525390625
1738772921263577600,11.65557763671875,-0.9695892333984375,-0.00421142578125,-0.2707672119140625
1738772921273568500,11.665568603515625,-0.968536376953125,-0.004974365234375,-0.2716064453125
1738772921283559700,11.6755595703125,-0.96905517578125,-0.006011962890625,-0.2710113525390625
1738772921293550800,11.68555078125,-0.9705657958984375,-0.0044708251953125,-0.2708892822265625
1738772921303541800,11.695541748046875,-0.9690399169921875,-0.005157470703125,-0.2709503173828125
1738772921313533700,11.70553369140625,-0.9698638916015625,-0.0046234130859375,-0.269744873046875
1738772921323524600,11.715524658203124,-0.969696044921875,-0.0045318603515625,-0.2711639404296875
1738772921333515500,11.725515625,-0.9688720703125,-0.0043487548828125,-0.2710113525390625
1738772921343506700,11.735506591796875,-0.9700927734375,-0.0046844482421875,-0.271087646484375
1738772921353497900,11.745497802734375,-0.9684600830078125,-0.005157470703125,-0.2699737548828125
1738772921363488800,11.75548876953125,-0.967864990234375,-0.0048980712890625,-0.2696685791015625
1738772921373480700,11.765480712890625,-0.9697113037109375,-0.0056915283203125,-0.2710418701171875
1738772921383471600,11.7754716796875,-0.9706573486328125,-0.00506591796875,-0.271087646484375
1738772921393462800,11.785462890625,-0.968902587890625,-0.00469970703125,-0.2699127197265625
1738772921403453700,11.79545361328125,-0.9681549072265625,-0.0051116943359375,-0.269073486328125
1738772921413444900,11.80544482421875,-0.9700775146484375,-0.0051727294921875,-0.270477294921875
1738772921423435800,11.815435791015625,-0.9704132080078125,-0.0048828125,-0.2708892822265625
1738772921433427700,11.825427734375,-0.969268798828125,-0.005584716796875,-0.2712554931640625
1738772921443418600,11.835418701171875,-0.969329833984375,-0.0044708251953125,-0.27154541015625
1738772921453409800,11.845409912109375,-0.9696197509765625,-0.0037689208984375,-0.2714996337890625
1738772921463400700,11.855400634765624,-0.968719482421875,-0.0047607421875,-0.2707977294921875
1738772921473391900,11.865391845703124,-0.9698638916015625,-0.0053558349609375,-0.2702789306640625
1738772921483382800,11.8753828125,-0.9691162109375,-0.0052337646484375,-0.2701416015625
1738772921493374500,11.88537451171875,-0.969146728515625,-0.005096435546875,-0.271453857421875
1738772921503365600,11.89536572265625,-0.9692230224609375,-0.003814697265625,-0.271392822265625
1738772921513356800,11.905356689453125,-0.970001220703125,-0.0042266845703125,-0.271575927734375
1738772921523347700,11.91534765625,-0.9678955078125,-0.004852294921875,-0.27008056640625
1738772921533339000,11.9253388671875,-0.971038818359375,-0.0052947998046875,-0.2707672119140625
1738772921543329800,11.935329833984374,-0.9693603515625,-0.004730224609375,-0.2709503173828125
1738772921553321500,11.945321533203124,-0.9687347412109375,-0.0046539306640625,-0.270263671875
1738772921563936800,11.955936767578125,-0.968109130859375,-0.005340576171875,-0.2699432373046875
1738772921573927700,11.965927734375,-0.969390869140625,-0.0051116943359375,-0.2724151611328125
1738772921583918800,11.9759189453125,-0.9691925048828125,-0.005218505859375,-0.2717437744140625
1738772921593909800,11.98590966796875,-0.969818115234375,-0.003875732421875,-0.270416259765625
1738772921603901700,11.995901611328126,-0.9676971435546875,-0.00482177734375,-0.27032470703125
1738772921613892900,12.005892822265626,-0.9683990478515625,-0.0041961669921875,-0.2709503173828125
1738772921623883800,12.0158837890625,-0.9705352783203125,-0.0039520263671875,-0.271209716796875
1738772921633874700,12.025874755859375,-0.9682769775390625,-0.00408935546875,-0.2701263427734375
1738772921643865600,12.035865478515625,-0.9680633544921875,-0.004730224609375,-0.2701568603515625
1738772921653856800,12.045856689453124,-0.970916748046875,-0.004638671875,-0.271026611328125
1738772921663848700,12.0558486328125,-0.9683990478515625,-0.0052337646484375,-0.270294189453125
1738772921673839900,12.06583984375,-0.9699554443359375,-0.0062103271484375,-0.270477294921875
1738772921683830800,12.075830810546876,-0.969635009765625,-0.00543212890625,-0.2696380615234375
1738772921693821700,12.08582177734375,-0.969573974609375,-0.004638671875,-0.2713165283203125
1738772921703812600,12.0958125,-0.9685516357421875,-0.004608154296875,-0.27154541015625
1738772921713803800,12.1058037109375,-0.9685821533203125,-0.0041046142578125,-0.2728424072265625
1738772921723795700,12.115795654296875,-0.9694366455078125,-0.0046844482421875,-0.270050048828125
1738772921733786600,12.12578662109375,-0.968719482421875,-0.0050811767578125,-0.2716064453125
1738772921743777800,12.13577783203125,-0.9702911376953125,-0.0049896240234375,-0.2713470458984375
1738772921753768700,12.145768798828126,-0.97021484375,-0.00555419921875,-0.27117919921875
1738772921763759600,12.155759521484375,-0.9698944091796875,-0.004486083984375,-0.2703704833984375
1738772921773750800,12.165750732421875,-0.968414306640625,-0.0039825439453125,-0.270355224609375
1738772921783742700,12.17574267578125,-0.96929931640625,-0.0052947998046875,-0.2705230712890625
1738772921793733600,12.185733642578125,-0.969512939453125,-0.005126953125,-0.2713623046875
1738772921803724800,12.195724853515625,-0.96844482421875,-0.0050811767578125,-0.2712554931640625
1738772921813715700,12.2057158203125,-0.9680633544921875,-0.0049591064453125,-0.27020263671875
1738772921823706600,12.21570654296875,-0.968231201171875,-0.0047760009765625,-0.27044677734375
1738772921833697800,12.22569775390625,-0.969573974609375,-0.0054779052734375,-0.2706298828125
1738772921843689700,12.235689697265625,-0.96832275390625,-0.00445556640625,-0.2706756591796875
1738772921853680600,12.2456806640625,-0.969268798828125,-0.004119873046875,-0.269378662109375
1738772921863671800,12.255671875,-0.96868896484375,-0.005523681640625,-0.27105712890625
1738772921873662700,12.265662841796875,-0.9696044921875,-0.0047454833984375,-0.2703704833984375
1738772921883653600,12.275653564453124,-0.9693603515625,-0.0045928955078125,-0.269927978515625
1738772921893644800,12.285644775390624,-0.9678802490234375,-0.0050201416015625,-0.2709197998046875
1738772921903636700,12.29563671875,-0.96868896484375,-0.00433349609375,-0.271331787109375
1738772921914251800,12.306251708984375,-0.9698333740234375,-0.0045318603515625,-0.27166748046875
1738772921924243700,12.31624365234375,-0.9703521728515625,-0.00384521484375,-0.2713775634765625
1738772921934234600,12.326234619140624,-0.9674072265625,-0.0041351318359375,-0.2713470458984375
1738772921944225800,12.336225830078124,-0.9688720703125,-0.004058837890625,-0.2711334228515625
1738772921954216700,12.346216796875,-0.9705963134765625,-0.00518798828125,-0.271331787109375
1738772921964207600,12.35620751953125,-0.9702301025390625,-0.00543212890625,-0.2712249755859375
1738772921974199800,12.36619970703125,-0.96820068359375,-0.0037078857421875,-0.27081298828125
1738772921984190700,12.376190673828125,-0.9687652587890625,-0.005035400390625,-0.2709503173828125
1738772921994181600,12.386181640625,-0.970672607421875,-0.004608154296875,-0.270843505859375
1738772922004172800,12.3961728515625,-0.9694366455078125,-0.0039215087890625,-0.2707061767578125
1738772922014163700,12.406163818359374,-0.968902587890625,-0.0047607421875,-0.2707672119140625
1738772922024154600,12.416154541015626,-0.96917724609375,-0.0041961669921875,-0.2717132568359375
1738772922034146800,12.426146728515626,-0.97113037109375,-0.003997802734375,-0.270782470703125
1738772922044137700,12.4361376953125,-0.9696044921875,-0.004974365234375,-0.2709503173828125
1738772922054128600,12.446128662109375,-0.9690093994140625,-0.00390625,-0.2707061767578125
1738772922064119800,12.456119873046875,-0.969146728515625,-0.003814697265625,-0.2715606689453125
1738772922074110700,12.46611083984375,-0.9683837890625,-0.0040283203125,-0.27142333984375
1738772922084101600,12.4761015625,-0.9694061279296875,-0.0053863525390625,-0.270904541015625
1738772922094094000,12.486093994140624,-0.9698333740234375,-0.005615234375,-0.27001953125
1738772922104085000,12.4960849609375,-0.9699249267578125,-0.004241943359375,-0.2711181640625
1738772922114076000,12.506075927734376,-0.9681854248046875,-0.0039215087890625,-0.2702789306640625
1738772922124067000,12.516067138671875,-0.9684295654296875,-0.0048980712890625,-0.2710113525390625
1738772922134058000,12.52605810546875,-0.9695281982421875,-0.0050506591796875,-0.27056884765625
1738772922144050000,12.5360498046875,-0.9694976806640625,-0.0054168701171875,-0.2711639404296875
1738772922154041000,12.546041015625,-0.968170166015625,-0.004058837890625,-0.2708587646484375
1738772922164032000,12.556031982421874,-0.9689788818359375,-0.0041046142578125,-0.2702789306640625
1738772922174023000,12.56602294921875,-0.97064208984375,-0.00469970703125,-0.2698974609375
1738772922184014000,12.57601416015625,-0.9683380126953125,-0.0044403076171875,-0.2707061767578125
1738772922194005000,12.5860048828125,-0.9693450927734375,-0.0041351318359375,-0.270660400390625
1738772922203997000,12.595996826171875,-0.9695587158203125,-0.00579833984375,-0.27093505859375
1738772922213988000,12.605988037109375,-0.9688262939453125,-0.004669189453125,-0.270355224609375
1738772922223979000,12.61597900390625,-0.9696044921875,-0.0040283203125,-0.2701416015625
1738772922233970000,12.625969970703125,-0.9696502685546875,-0.0062255859375,-0.270843505859375
1738772922243961000,12.635961181640624,-0.97027587890625,-0.0049896240234375,-0.2712249755859375
1738772922253953000,12.645953125,-0.97015380859375,-0.0053253173828125,-0.27105712890625
1738772922263944000,12.65594384765625,-0.9696044921875,-0.004913330078125,-0.270111083984375
1738772922273935000,12.66593505859375,-0.9694061279296875,-0.0049896240234375,-0.2698822021484375
1738772922283926000,12.675926025390625,-0.9681243896484375,-0.0043182373046875,-0.2691497802734375
1738772922293917000,12.6859169921875,-0.9693450927734375,-0.00537109375,-0.270355224609375
1738772922303907800,12.695907958984375,-0.96868896484375,-0.0037689208984375,-0.27166748046875
1738772922313900000,12.705900146484375,-0.9682464599609375,-0.0047454833984375,-0.2711944580078125
1738772922323891000,12.715890869140624,-0.96954345703125,-0.005523681640625,-0.271087646484375
1738772922333882000,12.725882080078126,-0.9698333740234375,-0.0048828125,-0.2707061767578125
1738772922343873000,12.735873046875,-0.9701690673828125,-0.0042572021484375,-0.271575927734375
1738772922353864000,12.745864013671875,-0.9691619873046875,-0.005035400390625,-0.271026611328125
