time,seconds_elapsed,z,y,x
1738772909631342000,0.023342041015625,0.0024559672456234694,0.003990480676293373,-0.000437291048001498
1738772909641333200,0.033333251953125,0.0002234392159152776,0.000913197931367904,0.00039974047103896737
1738772909651324200,0.04332421875,0.001955026527866721,0.004590490832924843,-0.0008045409340411425
1738772909661315300,0.0533154296875,0.0014937670202925801,0.005649097263813019,0.0008916263468563557
1738772909671306200,0.06330615234375,0.0008732505375519395,0.001904160133562982,0.00037523938226513565
1738772909681298200,0.073298095703125,0.0009688580175861716,0.00430153775960207,-0.0006146575906313956
1738772909691289000,0.0832890625,0.0006554039428010583,0.004303934518247843,0.0018098842119798064
1738772909701280300,0.0932802734375,0.0019598202779889107,0.0033545177429914474,0.00041731735109351575
1738772909711271200,0.103271240234375,0.0033571808598935604,0.0039867521263659,-0.0007717840489931405
1738772909721262300,0.113262451171875,0.0018767296569421887,0.002788329729810357,0.0012564794160425663
1738772909731253200,0.123253173828125,0.001895105466246605,0.003382214577868581,-0.00048070057528093457
1738772909741245200,0.1332451171875,0.0012170645641162992,0.00341523764654994,-0.00030546457855962217
1738772909751236000,0.143236083984375,0.0008604673203080893,0.0038013961166143417,0.0001227717293659225
1738772909761227000,0.15322705078125,0.0011086739832535386,0.0037491980474442244,0.0009797769598662853
1738772909771218200,0.16321826171875,0.00115421402733773,0.0022778017446398735,-0.0003350256592966616
1738772909781209300,0.173209228515625,0.0006159891490824521,0.003171292133629322,0.0011478224769234657
1738772909791200300,0.1832001953125,0.002412024885416031,0.005360676907002926,0.00007643271965207532
1738772909801192200,0.193192138671875,0.0003406183095648885,0.0032059133518487215,0.0001483380765421316
1738772909811183000,0.20318310546875,0.001972603378817439,0.003907656297087669,-0.0006572681595571339
1738772909821174300,0.21317431640625,0.0011851066956296563,0.003379285102710128,-0.00032384038786403835
1738772909831165400,0.22316552734375,0.002020007697865367,0.004968393128365278,-0.00019148127466905862
1738772909841156400,0.23315625,0.002326004905626178,0.0034442662727087736,0.0006918892613612115
1738772909851147300,0.243147216796875,0.0013781858142465353,0.003468234557658434,-0.00015206649550236762
1738772909861139200,0.25313916015625,0.0007358313887380064,0.004791559185832739,0.0009259810904040933
1738772909871130000,0.263130126953125,0.0014927018200978637,0.004027232062071562,0.000006391586794052273
1738772909881121300,0.273121337890625,0.0016325177857652307,0.00336117553524673,0.0011496866354718804
1738772909891112400,0.283112548828125,-0.0008210525847971439,0.00418489146977663,-0.002115348819643259
1738772909901103400,0.293103271484375,0.0010807107901200652,0.0046634613536298275,0.000049801110435510054
1738772909911094300,0.30309423828125,0.0013491574209183455,0.00538384635001421,0.0007736482657492161
1738772909921086200,0.313086181640625,0.0025747441686689854,0.003067428944632411,-0.0001901497016660869
1738772909931077000,0.3230771484375,0.0019342538435012102,0.0032597091048955917,-0.00015872440417297184
1738772909941068300,0.333068359375,0.0013086773687973619,0.004194478504359722,-0.0023545008152723312
1738772909951059500,0.3430595703125,-0.00009960222087102011,0.0038216360844671726,-0.0012183962389826775
1738772909961050400,0.35305029296875,0.0013704627053812146,0.004923119675368071,0.0004213120846543461
1738772909971041300,0.363041259765625,0.0005717806634493172,0.0038900794461369514,0.0010330402292311192
1738772909981033200,0.373033203125,0.0016737966798245907,0.0032471923623234034,0.00008681904728291556
1738772909991024000,0.383024169921875,0.00017230652156285942,0.003930026665329933,0.0006942860782146454
1738772910001015300,0.393015380859375,0.0015851134667173028,0.0037713022902607918,0.0006410228670574725
1738772910011006500,0.40300634765625,0.00202240445651114,0.0037494644057005644,-0.0005643238546326756
1738772910020997400,0.412997314453125,0.0011507519520819187,0.0026322684716433287,0.0015805860748514533
1738772910030988300,0.42298828125,0.000678307143971324,0.003796069882810116,-0.00044022052315995097
1738772910040980200,0.432980224609375,0.0001680454588495195,0.0060267336666584015,-0.0010367685463279486
1738772910050971400,0.442971435546875,0.0013646037550643086,0.004278901033103466,0.0013515542959794402
1738772910060962300,0.45296240234375,0.00024048343766480684,0.004316984210163355,0.0005986785981804132
1738772910070953200,0.462953125,0.0006466155173256993,0.004986502695828676,-0.0001893507578643039
1738772910080944000,0.472944091796875,-0.00013209278404247016,0.004328702110797167,-0.0004945489927195013
1738772910090936000,0.48293603515625,0.0019054916920140386,0.0021204089280217886,0.0008524778531864285
1738772910100927000,0.492927001953125,-0.000021305288100847974,0.001615473534911871,0.0019473034190014005
1738772910110918100,0.502918212890625,0.001324123702943325,0.00529729388654232,-0.00030360036180354655
1738772910120909000,0.512908935546875,0.001603489276021719,0.004863198380917311,0.0013158678775653243
1738772910130900000,0.52289990234375,0.002058357233181596,0.0044109937734901905,0.00022210762836039066
1738772910140891100,0.53289111328125,0.0003557983145583421,0.0033598439767956734,0.00008442220860160887
1738772910150883000,0.542883056640625,0.0015190670965239406,0.004206196404993534,-0.0011198592837899923
1738772910160874000,0.5528740234375,0.0010128001449629664,0.0035665053874254227,0.0005752427969127893
1738772910170865200,0.562865234375,-0.00029348034877330065,0.004791825544089079,-0.000028495824153651483
1738772910180856000,0.57285595703125,0.0013440974289551377,0.004524976946413517,0.0005262406193651259
1738772910190847000,0.582846923828125,0.0010303769959136844,0.004054929129779339,-0.0003347593592479825
1738772910200838100,0.592838134765625,0.002338788006454706,0.0038450718857347965,0.0012125372886657715
1738772910210830000,0.602830078125,0.0005411543534137309,0.005058940965682268,-0.000987500068731606
1738772910220821000,0.612821044921875,-0.00015180018090177327,0.004577707499265671,0.0010743191232904792
1738772910230812200,0.622812255859375,-0.00025726135936565697,0.003180613275617361,0.0007158577209338546
1738772910240803000,0.632802978515625,0.0009558085002936423,0.004175836686044931,0.00023409185814671218
1738772910250794000,0.6427939453125,0.0010295780375599861,0.004098604898899794,0.00011531487689353526
1738772910260785200,0.65278515625,0.001847701147198677,0.0032474587205797434,-0.00009454221435589716
1738772910270777000,0.662777099609375,0.0005041363765485585,0.0023252058308571577,0.0011022823164239526
1738772910280768000,0.67276806640625,0.0009962886106222868,0.0027324033435434103,0.00036618465674109757
1738772910290759200,0.68275927734375,0.0018905780743807554,0.003787015099078417,-0.000597879639826715
1738772910300750000,0.69275,0.0009693906176835299,0.002438922878354788,0.0013366405619308352
1738772910310741000,0.702740966796875,0.001936917076818645,0.004550010897219181,-0.00006897587445564568
1738772910320732000,0.71273193359375,0.0010788465151563287,0.0028748824261128902,0.0018317222129553556
1738772910330724000,0.72272412109375,0.0012141350889578462,0.004384362138807774,0.00022077605535741895
1738772910340715000,0.732715087890625,0.001175252953544259,0.0036751623265445232,-0.0000021305288555595325
1738772910350706200,0.7427060546875,0.0014178669080138206,0.002775280037894845,0.0005603290628641844
1738772910360697000,0.752697021484375,0.0002103897277265787,0.00487198680639267,0.00038056570338085294
1738772910370688000,0.76268798828125,0.0022927154786884785,0.002177666872739792,0.001113201375119388
1738772910380679000,0.772678955078125,0.00023222764139063656,0.004446680191904306,0.000046871635277057067
1738772910390671000,0.782671142578125,0.00230816169641912,0.002965962514281273,0.00044794369023293257
1738772910400662000,0.792662109375,0.0007286408799700439,0.0041124531999230385,0.0011547466274350882
1738772910410653000,0.80265283203125,0.001413339632563293,0.004011785611510277,0.0008809737046249211
1738772910420644000,0.81264404296875,0.0020703414920717478,0.0034650389570742846,0.0010351707460358739
1738772910430635000,0.822635009765625,0.0015638081822544336,0.003552124137058854,-0.0011235876008868217
1738772910440627200,0.832627197265625,0.001401089015416801,0.003990480676293373,0.00011584750609472394
1738772910450618000,0.8426181640625,0.0002836266648955643,0.004429635591804981,-0.0010626012226566672
1738772910460609000,0.852609130859375,0.001961684552952647,0.003230147995054722,0.0005813680472783744
1738772910470600000,0.862599853515625,0.0028122980147600174,0.005593437235802412,-0.00024101608141791075
1738772910480591000,0.872591064453125,0.0035358788445591927,0.0026282735634595156,0.000330231967382133
1738772910490582000,0.88258203125,0.0007510114228352904,0.001713744131848216,0.00026498452643863857
1738772910500574000,0.892573974609375,0.0015765913994982839,0.0036823528353124857,0.0008609999786131084
1738772910510565000,0.902565185546875,0.002043709857389331,0.003337739733979106,0.0005776396137662232
1738772910520556000,0.91255615234375,0.0009270463488064706,0.0035542547702789307,-0.0001459412305848673
1738772910530547000,0.922546875,0.0007651261985301971,0.003591272747144103,0.0005877596559002995
1738772910540538000,0.9325380859375,0.001927862293086946,0.0040943436324596405,-0.000025832661776803434
1738772910550530000,0.942530029296875,0.0017294568242505193,0.0029984530992805958,-0.0004223773430567235
1738772910560521000,0.95252099609375,0.0009981527691707015,0.003471164032816887,-0.00010945591930067167
1738772910570512100,0.96251220703125,0.0008831042214296758,0.004148139618337154,-0.00008628641808172688
1738772910580503000,0.9725029296875,0.0017859158106148243,0.0030929953791201115,-0.000006924218723725062
1738772910590494000,0.982493896484375,0.0006625944515690207,0.004204598721116781,-0.0008197209681384265
1738772910600485000,0.992485107421875,0.0013036173768341541,0.004018443636596203,0.0015744607662782073
1738772910610477000,1.00247705078125,0.0005731122801080346,0.004022438544780016,-0.0012343751732259989
1738772910620468000,1.012468017578125,0.0024253407027572393,0.004240018781274557,0.0009150621481239796
1738772910630459100,1.022459228515625,0.00001997370782191865,0.0019478360190987587,-0.0009049421059899032
1738772910640450000,1.032449951171875,0.0006213154993019998,0.0030069751664996147,-0.00026525085559114814
1738772910650441000,1.04244091796875,0.00003861583536490798,0.00466532539576292,0.0010719223646447062
1738772910660432100,1.05243212890625,0.0016674051294103265,0.003923102747648954,-0.000245543458731845
1738772910670424000,1.062424072265625,0.0014618091518059373,0.0040975394658744335,0.00043809000635519624
1738772910680415000,1.0724150390625,0.0011627360945567489,0.0033310819417238235,0.0003755057114176452
1738772910690406100,1.08240625,0.0013230583863332868,0.003707120195031166,-0.0005597964627668262
1738772910700397000,1.09239697265625,0.002730805426836014,0.004012051969766617,-0.001317998394370079
1738772910710388000,1.102387939453125,0.0010839065071195364,0.0036970002111047506,0.00036938043194822967
1738772910720380200,1.112380126953125,-0.0012564794160425663,0.003314303932711482,0.0016578177455812693
1738772910730371000,1.12237109375,0.0015867113834246993,0.004547347314655781,0.0006998787284828722
1738772910740362000,1.132362060546875,-0.0007776430575177073,0.0029758161399513483,-0.0014144048327580094
1738772910750353200,1.142353271484375,0.0013853764394298196,0.003044259501621127,-0.00026019083452410996
1738772910760344000,1.152343994140625,0.0011030812747776508,0.0035662390291690826,-0.0020714066922664642
1738772910770335000,1.1623349609375,0.0024668860714882612,0.0033571808598935604,0.0007757788407616317
1738772910780327200,1.1723271484375,0.0023105584550648928,0.003191798459738493,-0.0009717874927446246
1738772910790318000,1.182318115234375,0.0006716492353007197,0.004565456882119179,0.0012998889433220029
1738772910800309000,1.19230908203125,0.0009267800487577915,0.004653341136872768,0.0007502124644815922
1738772910810300000,1.2022998046875,0.0023872575256973505,0.0027441212441772223,-0.0010436928132548928
1738772910820291000,1.212291015625,0.0010128001449629664,0.004169711377471685,0.00013156015484128147
1738772910830282000,1.222281982421875,-0.00032437301706522703,0.004728708881884813,0.0010183927370235324
1738772910840274200,1.232274169921875,0.0011648666113615036,0.0019214707426726818,0.00035206988104619086
1738772910850265000,1.24226513671875,0.0014687333023175597,0.003453853540122509,-0.00022210762836039066
1738772910860256000,1.252256103515625,0.0011848403373733163,0.0038605183362960815,0.00007084008393576369
1738772910870247000,1.262246826171875,-0.00021731393644586205,0.003305249148979783,-0.0008969526388682425
1738772910880238000,1.272238037109375,0.000990429543890059,0.0032661007717251778,-0.00024314661277458072
1738772910890230000,1.28222998046875,0.0013771206140518188,0.0038903458043932915,-0.0004601942200679332
1738772910900221000,1.292220947265625,0.0014969628537073731,0.003438939806073904,0.001056476030498743
1738772910910212000,1.302212158203125,0.0011470235185697675,0.0018690064316615462,-0.00011211907985853031
1738772910920203000,1.312203125,0.000928111607208848,0.004490355961024761,0.00016937704640440643
1738772910930194000,1.32219384765625,0.001675128354690969,0.0052083441987633705,0.0005675196298398077
1738772910940185000,1.33218505859375,0.0012085424968972802,0.0038962047547101974,-0.00012889699428342283
1738772910950177000,1.342177001953125,0.001999767730012536,0.0027052389923483133,0.000505734293255955
1738772910960168000,1.35216796875,0.0010548781137913465,0.002284992253407836,0.0009592706337571144
1738772910970159000,1.3621591796875,-0.00021438446128740907,0.003995007835328579,-0.0009680590592324734
1738772910980150000,1.37214990234375,0.0007869640830904245,0.00469621829688549,0.00012729909212794155
1738772910990141000,1.382140869140625,0.0010479538468644023,0.001683384063653648,0.001966744428500533
1738772911000133000,1.392133056640625,0.0013853764394298196,0.003066629869863391,0.0015036207623779774
1738772911010124000,1.4021240234375,0.00185036426410079,0.004219778813421726,-0.0008024104172363877
1738772911020115000,1.412114990234375,0.0022098910994827747,0.0032487902790308,0.0003914846747647971
1738772911030106000,1.422106201171875,0.0012980246683582664,0.003506850451231003,0.00023302659974433482
1738772911040097000,1.432096923828125,0.0017188041238114238,0.0043777041137218475,0.0009129316313192248
1738772911050088000,1.442087890625,0.001490304945036769,0.004844556096941233,-0.0006410228670574725
1738772911060080000,1.452080078125,0.0006937534781172872,0.0037739656399935484,0.0014503574930131435
1738772911070071000,1.462071044921875,0.001535046030767262,0.0016391756944358349,-0.00025539714260958135
1738772911080062000,1.47206201171875,0.0010974886827170849,0.003549194661900401,-0.0010237190872430801
1738772911090052400,1.48205224609375,0.0018458369886502624,0.003979827743023634,-0.0005435511702671647
1738772911100043500,1.49204345703125,0.0012476909905672073,0.003245860803872347,-0.0006165218073874712
1738772911110034400,1.502034423828125,0.0011408982099965215,0.0015883093001320958,0.0001448759576305747
1738772911120026400,1.5120263671875,0.00009347695595351979,0.003569967346265912,0.002226402750238776
1738772911130017500,1.522017578125,0.00002902845517382957,0.0037713022902607918,-0.00015100123709999025
1738772911140008400,1.532008544921875,0.0009100021561607718,0.004337224178016186,-0.00036751621519215405
1738772911149999400,1.541999267578125,0.0031582426745444536,0.004178766161203384,-0.00023861923546064645
1738772911159990500,1.551990478515625,0.0019736685790121555,0.002034921431913972,0.0005097290268167853
1738772911169982500,1.561982421875,0.0006969492533244193,0.004277835600078106,0.000952080066781491
1738772911179973400,1.571973388671875,0.00007669904152862728,0.00387330143712461,0.0012157330056652427
1738772911189964500,1.581964599609375,0.0009081379394046962,0.0036482643336057663,0.00031318774563260376
1738772911199955500,1.59195556640625,-0.0003230414295103401,0.0026559706311672926,0.0002162486780434847
1738772911209946400,1.6019462890625,0.0007147924043238163,0.004796885885298252,-0.00045833003241568804
1738772911219937500,1.6119375,0.0007241134881041944,0.0040914141573011875,0.0004423510399647057
1738772911229929500,1.621929443359375,0.0008250473183579743,0.0038360171020030975,-0.00022370553051587194
1738772911239920400,1.63192041015625,0.0020530307665467262,0.004422178957611322,0.0012405004817992449
1738772911249911600,1.64191162109375,0.0005555353709496558,0.0035361452028155327,-0.00012144014181103557
1738772911259902500,1.65190234375,0.0024642229545861483,0.003233876544982195,0.002161954063922167
1738772911269893400,1.661893310546875,0.0015592807903885841,0.004944158717989922,0.0005352954030968249
1738772911279884300,1.67188427734375,0.0017398431664332747,0.004859736189246178,-0.00065460498444736
1738772911289876500,1.68187646484375,0.0006804376607760787,0.0014942996203899384,0.0009566074586473405
1738772911299867400,1.691867431640625,0.0013664679136127234,0.003966512158513069,0.0000828243064461276
1738772911309858600,1.701858642578125,0.0008546083699911833,0.004668254870921373,0.0007795072160661221
1738772911319849500,1.711849365234375,-0.0005819007055833936,0.0033481260761618614,0.0009054747642949224
1738772911329840400,1.72184033203125,0.0027028422337025404,0.004506601020693779,-0.0003579288604669273
1738772911339832600,1.73183251953125,0.0009246495319530368,0.0032431974541395903,-0.000666322885081172
1738772911349823500,1.741823486328125,0.002662894781678915,0.004936168901622295,-0.00037736992817372084
1738772911359814400,1.751814453125,0.001261805766262114,0.00350365461781621,0.001273257308639586
1738772911369805300,1.761805419921875,0.0004902879591099918,0.003990214318037033,0.0010684601729735732
1738772911379796500,1.77179638671875,0.0012479572324082255,0.003599528456106782,0.0012314456980675459
1738772911389787400,1.781787353515625,0.0013552826130762696,0.003216033335775137,-0.000020772657080669887
1738772911399779600,1.791779541015625,0.0018255969043821096,0.003385410411283374,-0.002007490722462535
1738772911409770500,1.8017705078125,0.0018852517241612077,0.0026168220210820436,0.00027750138542614877
1738772911419761400,1.811761474609375,0.0004809668753296137,0.003829892026260495,-0.0007342335302382708
1738772911429752300,1.82175244140625,0.0010548781137913465,0.0035414716694504023,-0.00041971419705078006
1738772911439743500,1.831743408203125,0.0006599313346669078,0.004048004746437073,0.0007107976707629859
1738772911449734400,1.841734375,0.0019747340120375156,0.002418416552245617,0.0005211806274019182
1738772911459726300,1.851726318359375,0.00043356261448934674,0.00509995361790061,0.0008386294357478619
1738772911469717500,1.861717529296875,-0.00008548746700398624,0.0032927324064075947,-0.0008892294717952609
1738772911479708400,1.87170849609375,0.0017382452497258782,0.003840544493868947,0.00001944107498275116
1738772911489699300,1.88169921875,0.001133441342972219,0.003919374197721481,0.0005510080372914672
1738772911499690500,1.8916904296875,0.0008042746339924634,0.004123106133192778,0.0007563377148471773
1738772911509682400,1.901682373046875,0.0009092031978070736,0.00347542529925704,0.00011345066013745964
1738772911519673300,1.91167333984375,0.00004474110755836591,0.005218463949859142,0.0005259743193164468
1738772911529664500,1.92166455078125,0.0014562164433300495,0.0013350426452234387,0.001252750982530415
1738772911539655400,1.931655517578125,0.00018908442871179432,0.0035486621782183647,0.0007789746159687638
1738772911549646300,1.941646240234375,0.0027947211638092995,0.004597947467118502,0.0003712446487043053
1738772911559637500,1.951637451171875,0.000014114753867033869,0.003974767867475748,0.001035436987876892
1738772911569629400,1.96162939453125,-0.0009318400407209992,0.0024080302100628614,-0.0002585929469205439
1738772911579620400,1.971620361328125,0.0012679309584200382,0.004092213232070208,-0.00012969593808520585
1738772911589611500,1.981611572265625,0.001820536912418902,0.0041675809770822525,0.0008407599525526166
1738772911599602400,1.9916025390625,-0.0009584716754034162,0.005317800212651491,-0.0013731258222833276
1738772911609593300,2.00159326171875,0.0009374326909892261,0.0023790018167346716,0.0007504787645302713
1738772911619584500,2.01158447265625,0.000431432097684592,0.002552639925852418,-0.0002479403046891093
1738772911629576400,2.021576416015625,0.0011036139912903309,0.00532499048858881,0.0008727178792469203
1738772911639567400,2.0315673828125,0.0011462245602160692,0.005046956706792116,0.00034674355993047357
1738772911649558500,2.04155859375,0.0002442118711769581,0.003976898267865181,0.00008735168376006186
1738772911659549400,2.051549560546875,-0.0007214503129944205,0.004856008104979992,0.00009560748003423214
1738772911669540400,2.061540283203125,0.001457548001781106,0.004334561061114073,-0.0009645969257690012
1738772911679531300,2.07153125,0.0010151970200240612,0.004716191906481981,0.00023995080846361816
1738772911689523500,2.0815234375,0.0015456987312063575,0.004131894558668137,-0.0009366337326355278
1738772911699514400,2.091514404296875,0.0021350563038140535,0.0023097596131265163,-0.0023015039041638374
1738772911709505500,2.101505615234375,-0.0005755090969614685,0.0035691685043275356,-0.0000031957933970261365
1738772911719496400,2.111496337890625,0.000811997801065445,0.004013916477560997,-0.00011824435205198824
1738772911729487400,2.1214873046875,0.0007371630053967237,0.003492735791951418,-0.00015046859334688634
1738772911739479600,2.1314794921875,0.00152359448838979,0.0033475933596491814,0.0003150519623886794
1738772911749470500,2.141470458984375,0.0006974819116294384,0.00384453940205276,0.0018309232546016574
1738772911759461400,2.15146142578125,0.0002889529860112816,0.0031047132797539234,-0.0014674017438665032
1738772911769452300,2.161452392578125,0.0020626182667911053,0.0027087011840194464,-0.001341434195637703
1738772911779443500,2.171443359375,0.000046072687837295234,0.004567055031657219,0.0015821839915588498
1738772911789434400,2.181434326171875,0.0017180051654577255,0.0036312201991677284,0.00001997370782191865
1738772911799426600,2.191426513671875,0.0015081481542438269,0.003129746997728944,0.000964064325671643
1738772911809417500,2.20141748046875,0.0003603257064241916,0.0037563887890428305,0.0004748416249640286
1738772911819408400,2.211408447265625,0.0012072109384462237,0.0033153691329061985,0.0005302353529259562
1738772911829399300,2.2213994140625,0.001169394003227353,0.0035145736765116453,0.001169127761386335
1738772911839390500,2.231390380859375,0.0005518069956451654,0.0037609159480780363,-7.989483492565341e-7
1738772911849381400,2.24138134765625,0.0014359764754772186,0.005064267199486494,-0.00045673211570829153
1738772911859373300,2.251373291015625,-0.0000828243064461276,0.002710299100726843,0.00031798143754713237
1738772911869364500,2.261364501953125,0.0026381274219602346,0.005834186915308237,-0.00021837920940015465
1738772911879355400,2.27135546875,0.0020996362436562777,0.0027118970174342394,0.0007137271459214389
1738772911889346300,2.28134619140625,0.0018927085911855102,0.0032890038564801216,0.0011153318919241428
1738772911899337500,2.29133740234375,0.000984570593573153,0.0034173682797700167,-0.0009214537567459047
1738772911909329400,2.301329345703125,0.00018269284919369966,0.003781422507017851,-0.001064998097717762
1738772911919320300,2.3113203125,0.0021752698812633753,0.00270736962556839,0.0006700513185933232
1738772911929311500,2.3213115234375,0.0011046791914850473,0.004936435259878635,0.0002889529860112816
1738772911939302400,2.331302490234375,0.00015180018090177327,0.0020450414158403873,0.000278300343779847
1738772911949293300,2.341293212890625,0.002680205274373293,0.0033806166611611843,0.0005571332876570523
1738772911959284500,2.351284423828125,0.002070873975753784,0.005935120861977339,0.0014985607704147696
1738772911969276400,2.3612763671875,0.0015904398169368505,0.003955060616135597,0.0007022755453363061
1738772911979267300,2.371267333984375,0.003014432033523917,0.002758235903456807,-0.0004918858758173883
1738772911989258500,2.381258544921875,0.002825880190357566,0.0037348170299082994,0.0009528790251351893
1738772911999249400,2.39124951171875,0.0007257114048115909,0.0036887445021420717,0.00042317630141042173
1738772912009240300,2.401240234375,0.001181378262117505,0.003811516100540757,0.0008378304773941636
1738772912019232500,2.411232421875,0.000910268456209451,0.003581951605156064,0.00021145498612895608
1738772912029223400,2.421223388671875,-0.00019520970818120986,0.004470914602279663,0.00003328951424919069
1738772912039214300,2.43121435546875,0.002037850907072425,0.004021905828267336,0.0007757788407616317
1738772912049205500,2.44120556640625,0.00037497308221645653,0.0049646650440990925,0.0017062872648239136
1738772912059196400,2.451196533203125,0.00119575927965343,0.002235191175714135,-0.001651159836910665
1738772912069187300,2.461187255859375,0.0025334651581943035,0.003236006945371628,0.00034914040588773787
1738772912079179500,2.471179443359375,-0.0002735066518653184,0.0034104441292583942,-0.0002463423879817128
1738772912089170700,2.481170654296875,0.002010686555877328,0.004740959499031305,0.001193096162751317
1738772912099161600,2.49116162109375,0.0008026767172850668,0.0057127466425299644,-0.0003001382574439049
1738772912109152800,2.50115283203125,0.000336090917699039,0.0035183019936084747,0.0012024171883240342
1738772912119143700,2.511143798828125,0.0005291700945235789,0.0037228327710181475,0.000477504770969972
1738772912129135600,2.521135498046875,0.001534779672510922,0.003954261541366577,-0.00038988678716123104
1738772912139126800,2.531126708984375,0.002305232221260667,0.004507400095462799,-0.00011717908637365326
1738772912149117700,2.54111767578125,0.00035420042695477605,0.003195793367922306,-0.000016777914424892515
1738772912159108600,2.551108642578125,0.0006330333999358118,0.0027614317368716,0.00016458335448987782
1738772912169099800,2.561099853515625,0.0012170645641162992,0.0026072347536683083,-0.0018873822409659624
1738772912179091700,2.571091796875,0.0012199940392747521,0.0036607813090085983,0.0006053365068510175
1738772912189082600,2.58108251953125,-0.03398433327674866,0.024999892339110374,-0.0211873110383749
1738772912199073800,2.59107373046875,0.007964449934661388,0.007340204436331987,0.027961593121290207
1738772912209064700,2.601064697265625,0.0026013758033514023,0.016535300761461258,0.02365393005311489
1738772912219055600,2.6110556640625,0.0041646515019237995,0.0010881676571443677,0.0023307986557483673
1738772912229047800,2.6210478515625,0.0009318400407209992,0.002454102970659733,-0.000303334032651037
1738772912239038700,2.631038818359375,0.06469351053237915,-0.01738325133919716,0.0008127967594191432
1738772912249029600,2.641029541015625,-0.06535983085632324,0.03388739377260208,-0.012147210538387299
1738772912259020800,2.651020751953125,0.06682191044092178,-0.023564981296658516,0.004776379559189081
1738772912269011700,2.66101171875,-0.062360312789678574,0.04236902669072151,-0.0017707358347252011
1738772912279002600,2.671002685546875,0.0695178285241127,-0.03176086023449898,0.0025457157753407955
1738772912288994800,2.680994873046875,-0.06542082130908966,0.0368134081363678,-0.0023459785152226686
1738772912298985700,2.69098583984375,0.07034100592136383,-0.027652399614453316,0.0022266688756644726
1738772912308976600,2.7009765625,-0.06553826481103897,0.03822541609406471,-0.004674380179494619
1738772912318967600,2.710967529296875,0.07066724449396133,-0.03412334993481636,0.00395639194175601
1738772912328958700,2.720958740234375,-0.06691724807024002,0.03681686893105507,-0.0019355855183675885
1738772912338950700,2.73095068359375,0.017065003514289856,-0.013320332393050194,0.005944708362221718
1738772912348941800,2.74094189453125,0.0017651431262493134,0.009661681950092316,0.0012258529895916581
1738772912358932700,2.7509326171875,0.0022655511274933815,0.003186738584190607,0.0012929646763950586
1738772912368923600,2.760923583984375,0.000672181835398078,0.00458622956648469,0.0013382384786382318
1738772912378914600,2.77091455078125,0.0018530274974182248,0.005116198677569628,-0.00019867181254085153
1738772912388905700,2.78090576171875,0.0007227819296531379,0.003166232258081436,0.0012202603975310922
1738772912398897700,2.790897705078125,0.00027537086862139404,0.003111371072009206,0.0007728493656031787
1738772912408888600,2.800888671875,-0.00044581317342817783,0.003858654061332345,0.0009970874525606632
1738772912418879700,2.810879638671875,0.002302302746102214,0.005479720421135426,0.0010634001810103655
1738772912428870700,2.82087060546875,0.0010668623726814985,0.003421895671635866,-0.00000958738019107841
1738772912438861600,2.830861572265625,-0.0003171824791934341,0.002493517706170678,-0.00006125270738266408
1738772912448853800,2.840853759765625,0.002010952914133668,0.005148422904312611,-0.0002567287301644683
1738772912458844700,2.8508447265625,0.00041998049709945917,0.0049316417425870895,-0.0013273194199427962
1738772912468835600,2.860835693359375,0.001241033081896603,0.0034815503749996424,-0.00020639497961383313
1738772912478826800,2.87082666015625,0.0013960290234535933,0.0029997846577316523,0.000523843802511692
1738772912488817700,2.880817626953125,0.00047058056225068867,0.0038866172544658184,-0.0006490123341791332
1738772912498809900,2.890809814453125,0.0005792375304736197,0.004141481593251228,-0.00008921589324017987
1738772912508800800,2.90080078125,0.0011741877533495426,0.0021726067643612623,0.00007536746124969795
1738772912518791700,2.910791748046875,0.0022594258189201355,0.003409378696233034,-0.0013630058383569121
1738772912528782600,2.920782470703125,0.0010580739472061396,0.003573962254449725,-0.0003307645965833217
1738772912538773800,2.930773681640625,0.000904409505892545,0.0020386497490108013,0.0014405038673430681
1738772912548765700,2.940765625,0.0005989448982290924,0.0036040558479726315,-0.00026258768048137426
1738772912558756600,2.950756591796875,0.0012279836228117347,0.003992877434939146,0.00007190534961409867
1738772912568747800,2.960747802734375,0.0025691515766084194,0.004013383761048317,0.0007395598222501576
1738772912578738700,2.97073876953125,0.00047164582065306604,0.0034378746058791876,0.000606934423558414
1738772912588729600,2.9807294921875,0.0021606225054711103,0.0035894084721803665,0.0013912353897467256
1738772912598720800,2.990720703125,0.0011771172285079956,0.0036634444259107113,-0.0008311725687235594
1738772912608712700,3.000712646484375,0.00233825552277267,0.003284476464614272,0.0012343751732259989
1738772912618703600,3.01070361328125,0.000401604687795043,0.003946538548916578,0.0007326356135308743
1738772912628694800,3.02069482421875,0.0028636970091611147,0.004777977243065834,0.0016381103778257966
1738772912638685700,3.030685791015625,0.00072597770486027,0.0035894084721803665,0.000595216522924602
1738772912648676600,3.040676513671875,0.0009446232579648495,0.004600876942276955,0.0006772418855689466
1738772912658668800,3.050668701171875,0.00009960222087102011,0.004192081745713949,0.000600809114985168
1738772912668659700,3.06065966796875,0.0033124396577477455,0.004354268312454224,0.0004527373821474612
1738772912678650600,3.070650634765625,0.0006274407496675849,0.003379018744453788,-0.0010655306978151202
1738772912688641800,3.080641845703125,0.0016197345685213804,0.002689526416361332,0.00065460498444736
1738772912698632700,3.0906328125,0.0010764497565105557,0.004484763368964195,0.001332645770162344
1738772912708624600,3.100624755859375,0.000716922979336232,0.004357197787612677,-0.00006578007742064074
1738772912718615800,3.11061572265625,0.001683916780166328,0.004464789759367704,0.0009134642314165831
1738772912728606700,3.120606689453125,0.0026258768048137426,0.002986468840390444,0.0010452907299622893
1738772912738597600,3.13059765625,0.0007371630053967237,0.0037087181117385626,-0.00008122641156660393
1738772912748588800,3.1405888671875,0.002767557045444846,0.00464641721919179,0.0006119944155216217
1738772912758579700,3.150579833984375,0.0002878876985050738,0.00464668357744813,0.0010988202411681414
1738772912768571600,3.160571533203125,0.0009278453071601689,0.004736964590847492,0.0011163970921188593
1738772912778562800,3.170562744140625,0.001996571896597743,0.003739344421774149,-0.0015081481542438269
1738772912788553700,3.1805537109375,0.00047351003740914166,0.003394465195015073,0.00004740426811622456
1738772912798544600,3.190544677734375,0.001139566651545465,0.0052136704325675964,-0.0005403553950600326
1738772912808535800,3.200535888671875,0.0012871057260781527,0.0020122844725847244,-0.00012410330236889422
1738772912818527700,3.21052783203125,0.001689509372226894,0.003967044875025749,0.000592287047766149
1738772912828518700,3.2205185546875,0.0006476807757280767,0.005869074258953333,0.00008335694292327389
1738772912838509800,3.230509765625,0.001121457084082067,0.00558118661865592,0.0010157296201214194
1738772912848500700,3.240500732421875,0.0015108112711459398,0.0033212280832231045,0.00046099317842163146
1738772912858491600,3.25049169921875,0.00022530343267135322,0.0038392129354178905,0.000702009245287627
1738772912868482600,3.260482666015625,0.0017965685110539198,0.003802727675065398,0.00038535939529538155
1738772912878474800,3.270474853515625,0.00101146858651191,0.003290335414931178,-0.000248472933890298
1738772912888465700,3.280465576171875,0.002082591876387596,0.0038661109283566475,0.0008823052630759776
1738772912898456800,3.290456787109375,0.0023545008152723312,0.004363855812698603,0.001071123406291008
1738772912908447700,3.30044775390625,0.002572613535448909,0.0041609229519963264,0.0007835020078346133
1738772912918438700,3.310438720703125,0.0011262508342042565,0.0028786107432097197,0.0008524778531864285
1738772912928430800,3.320430908203125,0.000862864195369184,0.0035417377948760986,-0.000005326322025211994
1738772912938421800,3.330421875,0.0013526194961741567,0.004597947467118502,0.0005438174703158438
1738772912948412700,3.34041259765625,0.0025843314360827208,0.003914047963917255,0.0010277138790115714
1738772912958403600,3.350403564453125,0.002368615474551916,0.0038282941095530987,-0.0004721784498542547
1738772912968394800,3.360394775390625,0.0015451660146936774,0.003614974906668067,0.0007408913807012141
1738772912978385700,3.3703857421875,0.001407480682246387,0.0035752938129007816,0.0005499427788890898
1738772912988377900,3.3803779296875,0.002558765234425664,0.004208859521895647,0.0006024070316925645
1738772912998368800,3.39036865234375,-0.000031158982892520726,0.0034317492973059416,0.0007217166712507606
1738772913008359700,3.400359619140625,0.0009882990270853043,0.004822185728698969,0.0009392969077453017
1738772913018350600,3.4103505859375,0.0014796522445976734,0.002679938916116953,0.0010434264549985528
1738772913028341800,3.420341796875,0.0010556770721450448,0.004171309061348438,-0.0005217132274992764
1738772913038333700,3.430333740234375,0.00173771264962852,0.0028855351265519857,0.001136637176387012
1738772913048324600,3.44032470703125,0.001520132296718657,0.004174504894763231,-0.0008415589109063148
1738772913058315800,3.450315673828125,0.003757453989237547,0.00427250936627388,-0.000180029688635841
1738772913068306700,3.460306640625,0.002109756227582693,0.004574511665850878,0.0017598168924450874
1738772913078297600,3.470297607421875,-0.00004660531703848392,0.0038535939529538155,0.0008692557457834482
1738772913088288800,3.480288818359375,0.0009179916232824326,0.004179564770311117,-0.0003909520455636084
1738772913098280700,3.49028076171875,0.0019467707024887204,0.003710582386702299,0.0003920173039659858
1738772913108271600,3.500271728515625,0.0013928331900388002,0.0032631712965667248,0.0013305152533575892
1738772913118262800,3.5102626953125,0.0015662050573155284,0.0030061763245612383,0.00046818371629342437
1738772913128253700,3.520253662109375,0.0013345100451260805,0.0037409423384815454,0.0010309095960110426
1738772913138244600,3.53024462890625,-0.00009933590627042577,0.003753991797566414,-0.0003294330381322652
1738772913148236800,3.54023681640625,0.0009933591354638338,0.00375985074788332,0.000035686356568476185
1738772913158227700,3.550227783203125,0.0013875069562345743,0.0038602519780397415,-0.0007669904152862728
1738772913168218600,3.560218505859375,-0.0003456783015280962,0.004057325888425112,-0.001621332485228777
1738772913178209800,3.570209716796875,0.0010335728293284774,0.005071457475423813,0.0011121360585093498
1738772913188200700,3.58020068359375,0.0011827098205685616,0.004107926040887833,0.0002657834847923368
1738772913198192600,3.590192626953125,0.0020996362436562777,0.0023518374655395746,-0.000565122754778713
1738772913208183800,3.600183837890625,0.0025997778866440058,0.004766525700688362,-0.00019920444174204022
1738772913218174700,3.6101748046875,0.0021667478140443563,0.00455800024792552,0.001484445994719863
1738772913228165600,3.62016552734375,0.0014524880098178983,0.0037236318457871675,0.0010985539993271232
1738772913238156800,3.63015673828125,0.0015241270884871483,0.0030924626626074314,0.0009555422002449632
1738772913248147700,3.640147705078125,-0.0004934837343171239,0.004861600697040558,0.0009829727932810783
1738772913258139600,3.6501396484375,0.0013582120882347226,0.004224039614200592,-0.0007155913626775146
1738772913268130800,3.660130859375,0.0007392935222014785,0.003501257859170437,0.0006527407676912844
1738772913278121700,3.670121826171875,0.0004487426485866308,0.003278617514297366,0.0012961605098098516
1738772913288112600,3.680112548828125,0.0012572783743962646,0.0036993969697505236,0.0011574097443372011
1738772913298103800,3.690103759765625,0.00037444045301526785,0.0037611823063343763,-0.0006972155533730984
1738772913308095700,3.700095703125,0.0018343853298574686,0.0024549018125981092,-0.00016405072528868914
1738772913318086700,3.710086669921875,-0.00010226538870483637,0.004172640852630138,-0.0003515372518450022
1738772913328077800,3.720077880859375,0.001008272753097117,0.003826962551102042,0.00033902039285749197
1738772913338068700,3.73006884765625,0.002371544949710369,0.003053047927096486,-0.0007238471880555153
1738772913348059600,3.7400595703125,0.002017610939219594,0.002995523624122143,0.00031132352887652814
1738772913358051800,3.7500517578125,0.00011638013529591262,0.003593403147533536,-0.00007323692989302799
1738772913368042800,3.760042724609375,0.0005227785441093147,0.0032173648942261934,0.000011984225238848012
1738772913378033700,3.77003369140625,0.0012098740553483367,0.0046759783290326595,0.0001608549355296418
1738772913388024800,3.78002490234375,0.00042557314736768603,0.006564159411936998,-0.0008391620358452201
1738772913398015700,3.790015625,0.002784867538139224,0.004041879437863827,-0.00015819176041986793
1738772913408006700,3.800006591796875,0.0005731122801080346,0.0023313311394304037,-0.0007206514128483832
1738772913417998800,3.809998779296875,0.0017843178939074278,0.003320695599541068,-0.0004950816510245204
1738772913427989800,3.81998974609375,0.002469815546646714,0.005048820748925209,-0.0007076018955558538
1738772913437980700,3.829980712890625,0.00016351809608750045,0.0033694314770400524,0.0014628743520006537
1738772913447971600,3.8399716796875,0.001282045734114945,0.004847485572099686,-0.0007904262165538967
1738772913457962800,3.849962646484375,-0.00036751621519215405,0.0033997914288192987,0.0010849718237295747
1738772913467954700,3.85995458984375,0.001924666459672153,0.0032599754631519318,-0.0001661812566453591
1738772913477945900,3.86994580078125,0.0007238471880555153,0.0038000645581632853,0.0008958873804658651
1738772913487936800,3.879936767578125,0.0008407599525526166,0.0046639940701425076,0.0006711165769957006
1738772913497927700,3.889927734375,0.002763828495517373,0.002305498579517007,0.0005464806454256177
1738772913507918600,3.899918701171875,0.002311623888090253,0.0025872609112411737,0.0004319647268857807
1738772913517909800,3.90990966796875,0.0013214604696258903,0.005851497408002615,-0.0005456816870719194
1738772913527901700,3.919901611328125,0.0012740562669932842,0.0032562471460551023,0.0006942860782146454
1738772913537892600,3.929892578125,0.002329200739040971,0.0030509172938764095,0.0004593952908180654
1738772913547883800,3.9398837890625,0.00022743394947610795,0.004310858901590109,0.00041492050513625145
1738772913558499800,3.950499755859375,0.0006831008358858526,0.0033334787003695965,0.00037470675306394696
1738772913568490800,3.96049072265625,0.0004689826746471226,0.004508199170231819,0.000248472933890298
1738772913578481700,3.970481689453125,0.0013307816116139293,0.003964115399867296,0.0006820355774834752
1738772913588472600,3.98047265625,0.0007805725326761603,0.002370745874941349,0.00021198761533014476
1738772913598463700,3.990463623046875,0.0011704593198373914,0.004828044679015875,-0.00027324032271280885
1738772913608454700,4.00045458984375,0.0017619474092498422,0.0041792988777160645,-0.0001608549355296418
1738772913618446600,4.010446533203125,0.0008673915872350335,0.0041372207924723625,-0.0023033679462969303
1738772913628437800,4.020437744140625,0.002112952060997486,0.002942526713013649,0.00119575927965343
1738772913638428700,4.0304287109375,0.0021931130904704332,0.00370179396122694,-0.00005619269722956233
1738772913648419600,4.040419677734375,0.001261805766262114,0.004600344225764275,-0.0001073253879440017
1738772913658410800,4.05041064453125,0.0029087045695632696,0.0032799490727484226,0.000999750685878098
1738772913668402700,4.060402587890625,0.0026849990244954824,0.0030075078830122948,-0.0003195793251506984
1738772913678393600,4.0703935546875,0.0015542207984253764,0.0032770195975899696,0.0010932276491075754
1738772913688384800,4.080384765625,0.0033774208277463913,0.0025473134592175484,0.0014825817197561264
1738772913698375700,4.090375732421875,0.000877511571161449,0.0029981867410242558,0.0004743089957628399
1738772913708366600,4.10036669921875,0.001957423286512494,0.003376621985808015,-0.0003110571997240186
1738772913718357800,4.110357666015625,0.00004207794336252846,0.002898051869124174,-0.0012128035305067897
1738772913728349700,4.120349609375,0.0026040389202535152,0.0026911243330687284,0.0007667240570299327
1738772913738340600,4.130340576171875,0.00047830372932367027,0.002625077962875366,0.0004146541759837419
1738772913748331800,4.140331787109375,0.0009606021922081709,0.003494866192340851,0.00021252025908324867
1738772913758322700,4.15032275390625,0.0014535533264279366,0.00418409239500761,0.0002612560929264873
1738772913768313600,4.160313720703125,0.0002993392990902066,0.004126035608351231,0.0002641855680849403
1738772913778305800,4.170305908203125,0.002347842790186405,0.003973436541855335,-0.0006833671359345317
1738772913788296700,4.180296630859375,0.000016245283404714428,0.004253600724041462,-0.00044288369826972485
1738772913798287600,4.19028759765625,0.00028336033574305475,0.004277036525309086,-0.00048123320448212326
1738772913808278800,4.20027880859375,0.0023246733471751213,0.0033933997619897127,-0.00043782367720268667
1738772913818269700,4.210269775390625,0.003154247999191284,0.003388606244698167,0.00012996226723771542
1738772913828261600,4.22026171875,-0.0003528688393998891,0.004387824330478907,0.00006657902849838138
1738772913838252800,4.230252685546875,0.001728657865896821,0.0046639940701425076,0.0007126618875190616
1738772913848243700,4.24024365234375,0.0013286510948091745,0.003168629016727209,-0.0009574064170010388
1738772913858234600,4.250234619140625,0.001079645473510027,0.002156894188374281,-0.0012037487467750907
1738772913868225800,4.260225830078125,0.0008530105114914477,0.0041217743419110775,-0.00005379585491027683
1738772913878216700,4.270216796875,0.0012708604335784912,0.004343882203102112,0.0005446164286695421
1738772913888208600,4.280208740234375,0.001148355077020824,0.003305249148979783,0.000874582096002996
1738772913898199800,4.29019970703125,0.0010705908061936498,0.003448527306318283,-0.00016112125013023615
1738772913908815600,4.300815673828125,0.0009507485083304346,0.006893326062709093,0.0011259844759479165
1738772913918806800,4.310806884765625,0.001776594785042107,0.0034171019215136766,-0.00014700648898724467
1738772913928797700,4.320797607421875,0.00005166532355360687,0.004532167688012123,0.000526506919413805
1738772913938788600,4.33078857421875,0.0009353021741844714,0.005112203769385815,-0.0003105245705228299
1738772913948780800,4.34078076171875,0.0005661880713887513,0.004049070179462433,-0.00013741910515818745
1738772913958771700,4.350771728515625,0.0007171892793849111,0.0027601001784205437,-0.0007001450285315514
1738772913968762600,4.3607626953125,0.00020133497309871018,0.00407463638111949,0.00004793690095539205
1738772913978753800,4.37075390625,0.0010346380295231938,0.004006725735962391,0.001249555149115622
1738772913988744700,4.38074462890625,0.0010245180455967784,0.004575843457132578,-0.0013904364313930273
1738772913998736600,4.390736572265625,0.0007321029552258551,0.002257827902212739,0.000687361869495362
1738772914008727800,4.400727783203125,0.0020743361674249172,0.002770220162346959,-0.0008056062506511807
1738772914018718700,4.41071875,0.00033582461765035987,0.004259459674358368,-0.00007163903501350433
1738772914028709600,4.420709716796875,0.0011965582380071282,0.004736964590847492,0.0002798982313834131
1738772914038700500,4.430700439453125,0.0014620753936469555,0.0032205607276409864,-0.00024314661277458072
1738772914048692700,4.440692626953125,0.0009933591354638338,0.0018924422329291701,0.00006125270738266408
1738772914058683600,4.45068359375,0.0023454460315406322,0.00492098880931735,-0.0007576693315058947
1738772914068674800,4.4606748046875,-0.000550475378986448,0.004012318328022957,0.0006809702608734369
1738772914078665700,4.470665771484375,0.000723048229701817,0.00413509039208293,0.0004801679460797459
1738772914088657200,4.4806572265625,0.00009347695595351979,0.003808053908869624,-0.00043356261448934674
1738772914098648300,4.4906484375,0.0014644722687080503,0.003573695896193385,-0.0013885721564292908
1738772914108640300,4.50064013671875,0.0022053637076169252,0.0037590519059449434,0.0008921589469537139
1738772914118631200,4.510631103515625,0.0030242856591939926,0.00446878420189023,0.0004500742070376873
1738772914128622300,4.520622314453125,0.0018005631864070892,0.0036799560766667128,0.0014122743159532547
1738772914138613200,4.53061328125,0.0023792681749910116,0.003519101068377495,0.0007371630053967237
1738772914148604200,4.540604248046875,0.0010892328573390841,0.0033427998423576355,0.00170788518153131
1738772914158596400,4.550596435546875,0.002668221015483141,0.003352919826284051,-0.0010050770360976458
1738772914168587300,4.560587158203125,0.00043036683928221464,0.00398781755939126,-0.0003880225704051554
1738772914178578200,4.570578125,0.0008173241512849927,0.003481017891317606,0.00023142869758885354
1738772914188569300,4.5805693359375,0.002453836612403393,0.0032503881957381964,0.00020053602929692715
1738772914198560300,4.590560302734375,0.0011792477453127503,0.003433879930526018,0.0002969424531329423
1738772914208552200,4.60055224609375,0.002088717184960842,0.0032413334120064974,0.0006636597099713981
1738772914218543400,4.61054345703125,0.0018809906905516982,0.002763828495517373,-0.0008412926108576357
1738772914228534300,4.6205341796875,0.00039547940832562745,0.0032264196779578924,-0.00046818371629342437
1738772914238525200,4.630525146484375,0.0006234460161067545,0.0035332157276570797,0.0013496900210157037
1738772914248516400,4.640516357421875,0.0005677859298884869,0.002395513467490673,0.0009835053933784366
1738772914258508300,4.65050830078125,0.0008127967594191432,0.0035563854034990072,0.0007337008719332516
1738772914268499200,4.660499267578125,0.003376621985808015,0.00433189794421196,0.0006828344776295125
1738772914278490400,4.670490478515625,0.0014884406700730324,0.004262921866029501,0.0008058725506998599
1738772914288481300,4.680481201171875,0.0017219999572262168,0.0037907434161752462,0.0006780407857149839
1738772914298472200,4.69047216796875,0.002100967802107334,0.002766757970675826,-0.0007627293234691024
1738772914308464400,4.70046435546875,0.0016817862633615732,0.004667189903557301,0.0008476841612718999
1738772914318455300,4.710455322265625,0.0014397049089893699,0.005300223361700773,-0.0005289037944748998
1738772914328446200,4.7204462890625,0.0018221348291262984,0.0034264230635017157,-0.001065264455974102
1738772914338437400,4.730437255859375,0.00101173494476825,0.004864530172199011,0.0006831008358858526
1738772914348428300,4.74042822265625,0.001660214620642364,0.0033811493776738644,0.0014761901693418622
1738772914358420200,4.750420166015625,0.00023568976030219346,0.0035814191214740276,-0.0002516687090974301
1738772914368411400,4.760411376953125,0.0006298375665210187,0.002406965009868145,0.00045060686534270644
1738772914378402300,4.77040234375,0.0012389025650918484,0.004446680191904306,-0.00007829693640815094
1738772914388393200,4.780393310546875,0.0008048072922974825,0.0043321643024683,0.000472977408207953
1738772914398384400,4.79038427734375,-0.00016218650853261352,0.0033577135764062405,0.000791491474956274
1738772914408375300,4.800375244140625,0.001264468883164227,0.0034027209039777517,-0.00034727618913166225
1738772914418367200,4.8103671875,0.0022117553744465113,0.003605653764680028,0.0010724549647420645
1738772914428358400,4.8203583984375,0.0018224010709673166,0.004640824627131224,-0.0009717874927446246
1738772914438349300,4.830349365234375,0.0024700819049030542,0.004294347018003464,-0.00024154871061909944
1738772914448340200,4.84034033203125,0.003099386813119054,0.003704190719872713,0.001437308033928275
1738772914458331400,4.850331298828125,0.00035739620216190815,0.0034410704392939806,0.0007499461644329131
1738772914468323300,4.8603232421875,0.0016367788193747401,0.0036160401068627834,-0.0004242415598127991
1738772914478314200,4.870314208984375,0.0016255935188382864,0.0034993935842067003,-0.00022849922243040055
1738772914488305400,4.880305419921875,0.0011526161106303334,0.002523345174267888,0.0015153386630117893
1738772914498296300,4.89029638671875,0.001591505017131567,0.005291168577969074,0.0004934837343171239
1738772914508287200,4.900287353515625,0.0020785972010344267,0.005228317808359861,-0.0008918926469050348
1738772914518279400,4.910279541015625,0.0016010924009606242,0.00447064870968461,0.000431432097684592
1738772914528270300,4.920270263671875,0.0007219829712994397,0.0028431906830519438,0.001216265605762601
1738772914538261200,4.93026123046875,-0.0009962886106222868,0.0038602519780397415,0.00007217166421469301
1738772914548252400,4.94025244140625,0.0012873720843344927,0.0041494714096188545,0.0017563547007739544
1738772914558243300,4.950243408203125,0.00023515711654908955,0.003835484618321061,0.0012101404136046767
1738772914568235300,4.9602353515625,-0.00018082863243762404,0.003947869874536991,0.00012357067316770554
1738772914578226400,4.970226318359375,0.0006801713607273996,0.0034439999144524336,-0.0009278453071601689
1738772914588217300,4.98021728515625,0.00006604639202123508,0.003341468283906579,-0.0006402239087037742
1738772914598208300,4.990208251953125,0.000835966260638088,0.003999002743512392,-0.00008948221511673182
1738772914608199200,5.00019921875,0.0013760552974417806,0.00506985979154706,-0.0005605954211205244
1738772914618191400,5.01019140625,0.0023377228062599897,0.00373028963804245,-0.001210406655445695
1738772914628182300,5.020182373046875,0.0008239820599555969,0.004095675423741341,-0.00028575718170031905
1738772914638173400,5.03017333984375,0.004515922162681818,0.0037268276792019606,0.0003890878288075328
1738772914648164400,5.040164306640625,0.0028570392169058323,0.0046605318784713745,0.0011829761788249016
1738772914658155300,5.0501552734375,0.0007797735743224621,0.005221659783273935,-0.000022370553779182956
1738772914668147200,5.060147216796875,0.0013235911028459668,0.003379285102710128,0.0009158611064776778
1738772914678138400,5.070138427734375,0.0016223976854234934,0.004815527703613043,0.00013555490295402706
1738772914688129300,5.08012939453125,0.0011725898366421461,0.00404640706256032,-0.0013928331900388002
1738772914698120400,5.090120361328125,0.0009171926649287343,0.004364654887467623,0.000565122754778713
1738772914708111400,5.100111328125,-0.00008921589324017987,0.003376621985808015,0.0014596786350011826
1738772914718103300,5.110103271484375,0.0014426343841478229,0.004039482679218054,-0.001216265605762601
1738772914728094500,5.120094482421875,0.0014495585346594453,0.004292749334126711,-0.00028522455249913037
1738772914738085400,5.13008544921875,0.0009334379574283957,0.0028570392169058323,0.00045540055725723505
1738772914748076300,5.140076171875,0.002650377806276083,0.004488491453230381,0.000014913702216290403
1738772914758067200,5.150067138671875,0.0010697918478399515,0.0019212043844163418,-0.0005350290448404849
1738772914768059100,5.16005908203125,0.00015339808305725455,0.004795554094016552,-0.000015978966985130683
1738772914778050300,5.17005029296875,0.001484445994719863,0.004009921569377184,0.000859934720210731
1738772914788041500,5.18004150390625,0.001472461735829711,0.003722566645592451,0.0011648666113615036
1738772914798032400,5.190032470703125,0.00028575718170031905,0.0036312201991677284,0.001067661214619875
1738772914808023300,5.200023193359375,0.0013315805699676275,0.0026181535795331,0.001032241270877421
1738772914818015200,5.21001513671875,0.0017366473330184817,0.004761199466884136,0.0006048039067536592
1738772914828006100,5.220006103515625,0.0009100021561607718,0.0036887445021420717,-0.0006415555253624916
1738772914837997300,5.229997314453125,0.002757969545200467,0.005558017175644636,-0.0006660565850324929
1738772914847988200,5.23998828125,-0.0004886900424025953,0.0032730249222368,-0.0001739044237183407
1738772914857979400,5.2499794921875,0.0008314388687722385,0.003281546989455819,0.0003810983616858721
1738772914867971000,5.25997119140625,0.0015536881983280182,0.004031226970255375,0.00014434332842938602
1738772914877962200,5.269962158203125,0.002799514913931489,0.0046416232362389565,0.00020532972121145576
1738772914887953400,5.279953369140625,0.0006599313346669078,0.004220843780785799,0.0010266485624015331
1738772914897944300,5.2899443359375,-0.000472977408207953,0.0032642364967614412,0.00016884441720321774
1738772914907935200,5.299935302734375,0.0003259709046687931,0.004384628497064114,-0.000300404557492584
1738772914917927200,5.30992724609375,0.0022176143247634172,0.00455879932269454,0.000016245283404714428
1738772914927918000,5.31991796875,0.0013222594279795885,0.003882356220856309,0.0002884203568100929
1738772914937909200,5.3299091796875,0.0007893609581515193,0.003796602366492152,0.00039521310827694833
1738772914947900400,5.339900390625,0.0006785734440200031,0.004972121678292751,-0.00048629322554916143
1738772914957891300,5.349891357421875,0.0016045545926317573,0.004030694253742695,-0.00032650353386998177
1738772914967882200,5.35988232421875,0.0024168186355382204,0.0033603766933083534,0.000990962260402739
1738772914977874200,5.369874267578125,0.0008676578872837126,0.004255731590092182,0.00148125016130507
1738772914987865000,5.379864990234375,0.0007805725326761603,0.0025414545089006424,0.00031372037483379245
1738772914997856300,5.389856201171875,0.0012844426091760397,0.003225088119506836,0.00041278995922766626
1738772915007847400,5.399847412109375,0.0020208065398037434,0.0033305492252111435,0.001520132296718657
1738772915017838300,5.40983837890625,0.0008876316132955253,0.004172640852630138,-0.0008423578692600131
1738772915027830000,5.419830078125,0.0020562265999615192,0.0021819279063493013,-0.00035926041891798377
1738772915037821200,5.4298212890625,0.0023097596131265163,0.002825880190357566,-0.0006735134520567954
1738772915047812000,5.43981201171875,-0.0001430117554264143,0.004552674014121294,-0.0003206445835530758
1738772915057803300,5.44980322265625,0.002255697501823306,0.004721251782029867,0.0008482168195769191
1738772915067794400,5.45979443359375,0.0025308020412921906,0.0015166702214628458,-0.0008902947301976383
1738772915077786000,5.4697861328125,0.0007118629291653633,0.0025651566684246063,-0.0007901599165052176
1738772915087777000,5.479777099609375,0.0015180017799139023,0.0031470574904233217,-0.00006604639202123508
1738772915097768000,5.489767822265625,0.0008303736103698611,0.0036690370179712772,0.0016114787431433797
1738772915107758800,5.4997587890625,0.0010162622202187777,0.0033153691329061985,0.0016069513512775302
1738772915117749800,5.509749755859375,0.0013627394801005721,0.0036184368655085564,0.0003312972257845104
1738772915127741700,5.51974169921875,0.0020967067684978247,0.0034645062405616045,-0.0010021475609391928
1738772915137732900,5.52973291015625,0.0008823052630759776,0.004552940372377634,0.00001704423084447626
1738772915147723800,5.539723876953125,0.0015371765475720167,0.003382480936124921,-0.0004522047529462725
1738772915157715000,5.54971484375,0.001985120354220271,0.00672341650351882,0.0010809770319610834
1738772915167705900,5.559705810546875,0.0020453077740967274,0.003969707991927862,0.00013022858183830976
1738772915177697500,5.569697509765625,0.001942776027135551,0.0037262949626892805,0.0011089402250945568
1738772915187688700,5.579688720703125,0.00011930961773032323,0.004082892090082169,0.00007430219557136297
1738772915197679900,5.589679931640625,0.001990180229768157,0.0034967304673045874,0.00022610237647313625
1738772915207670800,5.5996708984375,0.0016503608785569668,0.005249889567494392,-0.0007603325066156685
1738772915217661700,5.60966162109375,0.0016138756182044744,0.005201153457164764,0.0007728493656031787
1738772915227653600,5.619653564453125,0.001862614881247282,0.003195793367922306,0.0008516788948327303
1738772915237644800,5.629644775390625,0.001303351018577814,0.003564374754205346,0.0016791230300441384
1738772915247636000,5.639635986328125,0.0005763080553151667,0.005046690348535776,0.000013315805517777335
1738772915257627000,5.649626953125,0.0019262643763795495,0.0025395904667675495,-0.00005832322858623229
1738772915267617800,5.65961767578125,0.0028538433834910393,0.0038072550669312477,0.0008138620178215206
1738772915277609700,5.669609619140625,0.0009438242996111512,0.0046418895944952965,-0.000892691605258733
1738772915287600600,5.6796005859375,0.0015094797126948833,0.0043308325111866,-0.0002612560929264873
1738772915297591800,5.689591796875,0.00038003307417966425,0.0030514500103890896,-0.000147272803587839
1738772915307583000,5.6995830078125,0.0018815232906490564,0.004020041786134243,0.0007427555974572897
1738772915317574000,5.709573974609375,0.0016924388473853469,0.003495931625366211,-0.0003174488083459437
1738772915327564800,5.719564697265625,0.0010519486386328936,0.0034669029992073774,0.00021598236344289035
1738772915337556700,5.729556640625,0.001460743835195899,0.004636829718947411,-0.0014389059506356716
1738772915347547600,5.739547607421875,0.0005880259559489787,0.003207244910299778,0.00043063313933089375
1738772915357538800,5.749538818359375,0.0010120011866092682,0.0044168527238070965,-0.00023542344570159912
1738772915367529700,5.75952978515625,0.0005289037944748998,0.004573180340230465,-0.001573928166180849
1738772915377521000,5.76952099609375,0.00253399764187634,0.004281830508261919,0.0001270327775273472
1738772915387512600,5.7795126953125,0.0005856291390955448,0.00449807895347476,-0.0016972325975075364
1738772915397503700,5.789503662109375,0.002189651131629944,0.004765992984175682,0.0011241203173995018
1738772915407494700,5.79949462890625,0.0019238675013184547,0.004081827122718096,-0.0007539408979937434
1738772915417485800,5.80948583984375,0.0016298545524477959,0.0037356161046773195,0.00016351809608750045
1738772915427476700,5.819476806640625,0.0010373012628406286,0.004475175868719816,0.0009733853512443602
1738772915437468700,5.82946875,0.001389371114782989,0.003744937013834715,0.0006836334359832108
1738772915447459600,5.83945947265625,0.001389371114782989,0.002641855739057064,0.0007131945458240807
1738772915457450800,5.84945068359375,-0.00015659387281630188,0.0033270870335400105,0.0011835087789222598
1738772915467442000,5.85944189453125,0.0005960154230706394,0.003930026665329933,0.00025539714260958135
1738772915477432800,5.869432861328125,0.002032258315011859,0.00589517317712307,-0.00046312372433021665
1738772915487424800,5.8794248046875,0.0007273092633113265,0.0020684772171080112,0.0010998855577781796
1738772915497415700,5.889415771484375,0.0007976167253218591,0.004256530199199915,0.0006205165409483016
1738772915507406600,5.899406494140625,-0.0007861651247367263,0.0034786208998411894,0.0006298375665210187
1738772915517397800,5.909397705078125,-0.0011736550368368626,0.0027348001021891832,-0.00037044569035060704
1738772915527389000,5.919388916015625,0.00009108010999625549,0.004435760900378227,0.0011952266795560718
1738772915537380600,5.929380615234375,-0.00015819176041986793,0.0035750274546444416,0.0001424791116733104
1738772915547371500,5.93937158203125,0.001793905277736485,0.003753725439310074,-0.0008016114588826895
1738772915557362700,5.94936279296875,0.00008016114588826895,0.004219778813421726,-0.000916393706575036
1738772915567353600,5.959353515625,0.0025363946333527565,0.004344148561358452,0.0007414240390062332
1738772915577344800,5.9693447265625,0.0013201289111748338,0.005559082608669996,0.0004540689697023481
1738772915587336000,5.9793359375,0.0017832526937127113,0.003569967346265912,-0.0005262406193651259
1738772915597327600,5.98932763671875,0.0003328951424919069,0.003962783608585596,-0.0006325007416307926
1738772915607318500,5.999318603515625,0.0011044129496440291,0.005089567042887211,-0.00023435817274730653
1738772915617309700,6.009309814453125,0.002192846732214093,0.003263437654823065,0.0010660634143278003
1738772915627300900,6.01930078125,0.001618403010070324,0.003254116512835026,0.0015606123488396406
1738772915637291800,6.029291748046875,0.0021339908707886934,0.004606469534337521,0.0011134676169604063
1738772915647283700,6.03928369140625,0.0008000136003829539,0.002168345730751753,-0.0000857537888805382
1738772915657274600,6.049274658203125,0.0013140037190169096,0.0046730488538742065,0.00015712650201749057
1738772915667265500,6.059265625,0.002011485630646348,0.003319630166515708,0.0008210525847971439
1738772915677256700,6.069256591796875,0.0022072279825806618,0.002447977662086487,0.00028815402765758336
1738772915687248000,6.079247802734375,0.0021675468888133764,0.0032088428270071745,0.0006362291751429439
1738772915697239600,6.089239501953125,0.001222657272592187,0.004042412154376507,-0.00043276368523947895
1738772915707230700,6.099230712890625,0.0014998923288658261,0.0032751555554568768,-0.00043276368523947895
1738772915717221600,6.1092216796875,0.00003968110104324296,0.004378769546747208,-0.00040799626731313765
1738772915727212500,6.119212646484375,0.001784850494004786,0.0051622712053358555,0.0004593952908180654
1738772915737203700,6.12920361328125,0.0018319884547963738,0.002770220162346959,-0.0007166566210798919
1738772915747195600,6.139195556640625,0.0014737932942807674,0.003349457634612918,-0.00005273058923194185
1738772915757186600,6.1491865234375,0.0013171994360163808,0.005495432764291763,0.0006351639167405665
1738772915767177700,6.159177734375,0.0035356127191334963,0.0035582494456321,0.0010631339391693473
1738772915777168600,6.169168701171875,0.0014029532903805375,0.0035811527632176876,0.0014120079576969147
1738772915787159800,6.179159912109375,0.0020160130225121975,0.0043899547308683395,-0.000907338981050998
1738772915797151700,6.18915185546875,0.00035260253935121,0.004597148858010769,-0.0008884305134415627
1738772915807142700,6.199142578125,-0.001038632821291685,0.0031963258516043425,-0.0009651295840740204
1738772915817133600,6.209133544921875,0.0008841694798320532,0.003466636873781681,-0.0002146507758880034
1738772915827124700,6.219124755859375,-0.0002961435238830745,0.005076517816632986,-0.0010543455136939883
1738772915837115600,6.22911572265625,0.0018018947448581457,0.003944674041122198,-0.0016583503456786275
1738772915847107600,6.239107666015625,0.0017265273490920663,0.003479952458292246,0.001421861699782312
1738772915857098800,6.2490986328125,0.0020724718924611807,0.004796353168785572,0.0017843178939074278
1738772915867089700,6.259089599609375,0.0006913566030561924,0.003325755475088954,0.0012112056137993932
1738772915877080600,6.26908056640625,0.001939580193720758,0.0038285604678094387,0.00035420042695477605
1738772915887071700,6.27907177734375,0.0011102718999609351,0.0036637107841670513,-0.000010918960470007733
1738772915897063700,6.289063720703125,0.0020037624053657055,0.004061054438352585,0.00021598236344289035
1738772915907054600,6.2990546875,0.00011451592581579462,0.0020748688839375973,-0.00005459480235003866
1738772915917045800,6.309045654296875,0.001249555149115622,0.0034264230635017157,-0.0009323726990260184
1738772915927036700,6.31903662109375,0.0019291938515380025,0.0051841093227267265,-0.0001901497016660869
1738772915937027600,6.329027587890625,0.0017768610268831253,0.003919107839465141,-0.0007400924805551767
1738772915947019800,6.339019775390625,0.0013946974650025368,0.002445580903440714,0.00035686357296071947
1738772915957010700,6.3490107421875,0.0007709851488471031,0.0041430797427892685,0.0003832288784906268
1738772915967001600,6.359001708984375,0.002633866388350725,0.003337739733979106,-0.0004058657505083829
1738772915976992800,6.36899267578125,0.0016990967560559511,0.002546248259022832,-0.001970472978428006
1738772915986983700,6.378983642578125,0.0007877630414441228,0.0031899344176054,-0.00004846953015658073
1738772915996975600,6.3889755859375,0.00037284253630787134,0.004493019077926874,0.0007118629291653633
1738772916006966800,6.398966796875,0.0013036173768341541,0.0043798345141112804,0.00009906959166983142
1738772916016957700,6.408957763671875,0.004030960611999035,0.003907656297087669,-0.000075101139373146
1738772916026948600,6.418948486328125,0.0010546117555350065,0.003433347214013338,0.0015622102655470371
1738772916036939500,6.428939453125,0.0005291700945235789,0.0037987329997122288,0.00022264027211349458
1738772916046931700,6.438931640625,0.0013704627053812146,0.003312173532322049,0.0009054747642949224
1738772916056922600,6.448922607421875,0.0002711098059080541,0.004210724029690027,-0.00040187101694755256
1738772916066913800,6.458913818359375,0.0008146609761752188,0.003733485471457243,0.00003062635369133204
1738772916076904700,6.46890478515625,0.00007270430069183931,0.004594751633703709,0.0005960154230706394
1738772916086895600,6.4788955078125,0.0015899071004241705,0.00401684595271945,0.0009566074586473405
1738772916096887800,6.4888876953125,0.0010785802733153105,0.0047835698351264,-0.00007590009045088664
1738772916106878700,6.498878662109375,0.0006953513366170228,0.0032091091852635145,0.0008468852029182017
1738772916116870000,6.508869873046875,0.002482066163793206,0.003552923211827874,-0.0008343683439306915
1738772916126860800,6.51886083984375,0.0006631271098740399,0.005037369206547737,0.0004223773430567235
1738772916136851700,6.528851806640625,0.001365402713418007,0.003204315435141325,-0.00010812433902174234
1738772916146844000,6.538843994140625,0.0019236012594774365,0.0026873957831412554,-0.001112935016863048
1738772916156834800,6.548834716796875,0.0016247945604845881,0.004344148561358452,-0.0008082693675532937
1738772916166825700,6.55882568359375,0.0014016216155141592,0.004275705199688673,0.0011116034584119916
1738772916176817000,6.56881689453125,0.00022184131375979632,0.0025358619168400764,0.00008388957212446257
1738772916186807800,6.578807861328125,0.0011912320042029023,0.004757737275213003,0.0015723302494734526
1738772916196799700,6.5887998046875,0.002532133599743247,0.0035451999865472317,-0.00004420847471919842
1738772916206791000,6.598791015625,0.0009038768475875258,0.00498197553679347,0.0009712548344396055
1738772916216781800,6.60878173828125,0.001525991247035563,0.004608866758644581,0.0005286374944262207
1738772916226772700,6.618772705078125,0.00242107966914773,0.003737214021384716,0.0012623383663594723
1738772916236763600,6.628763671875,-0.0006535397260449827,0.003570766421034932,-0.0003097256412729621
1738772916246755800,6.638755859375,0.0005776396137662232,0.004789695143699646,-0.0007848335662856698
1738772916256746800,6.648746826171875,0.0012660667998716235,0.00436012726277113,0.0005067995516583323
1738772916266738000,6.658738037109375,0.00006684534309897572,0.004338023252785206,0.0004830974212381989
1738772916276728800,6.668728759765625,0.0015046859625726938,0.004295945167541504,0.0006732470938004553
1738772916286719700,6.6787197265625,0.0018932411912828684,0.003965979442000389,-0.00040027310024015605
1738772916296712000,6.6887119140625,0.0010311759542673826,0.004207261838018894,-0.000254331884207204
1738772916306702800,6.698702880859375,0.0013203952694311738,0.0033537186682224274,0.00021758026559837162
1738772916316693800,6.70869384765625,0.0018040252616629004,0.004764928016811609,-0.00002103897168126423
1738772916326684700,6.7186845703125,0.001113201375119388,0.004643754102289677,-0.0012679309584200382
1738772916336675800,6.72867578125,0.00005193164179218002,0.0044232443906366825,0.0009105347562581301
1738772916346667800,6.738667724609375,0.001832521171309054,0.004111388232558966,0.0008641957538202405
1738772916356659000,6.748658935546875,0.0012487561907619238,0.003090864745900035,0.00033582461765035987
1738772916366649900,6.75864990234375,0.003982490859925747,0.0031795480754226446,0.00024288028362207115
1738772916376640800,6.768640869140625,0.0007065366371534765,0.00461579067632556,0.000036485307646216825
1738772916386631700,6.778631591796875,0.0005451490869745612,0.003020557342097163,-0.0003043993201572448
1738772916396624000,6.788623779296875,0.0012093414552509785,0.0033718282356858253,-0.0002061286650132388
1738772916406614800,6.79861474609375,0.002267149044200778,0.003725496120750904,0.0010093380697071552
1738772916416605700,6.808605712890625,0.002111886627972126,0.0036847495939582586,0.0005757753970101476
1738772916426596900,6.818596923828125,0.0007981493836268783,0.0025928535033017397,-0.0009984191274270415
1738772916436587800,6.828587890625,0.0013667342718690634,0.0029585056472569704,0.000049801110435510054
1738772916446580000,6.838580078125,0.0030897995457053185,0.0018378474051132798,0.0004772384709212929
1738772916456571000,6.84857080078125,0.0009177253232337534,0.004776911810040474,-0.0010221211705356836
1738772916466561800,6.858561767578125,-0.0003062635369133204,0.0041063278913497925,-0.000648479734081775
1738772916476552700,6.868552734375,0.00035739620216190815,0.003099386813119054,0.0011459582019597292
1738772916486544000,6.8785439453125,0.0016724651213735342,0.00350418733432889,0.0005970807396806777
1738772916496535800,6.888535888671875,0.0005720470217056572,0.0043715788051486015,-0.0015773903578519821
1738772916506526700,6.898526611328125,0.001019990653730929,0.005502623505890369,0.0012695288751274347
1738772916516518000,6.908517822265625,0.002372077666223049,0.0029646309558302164,0.0016330503858625889
1738772916526508800,6.9185087890625,0.0007760451408103108,0.0038807583041489124,-0.0005773733137175441
1738772916536499700,6.928499755859375,0.0022421153262257576,0.004487692844122648,0.00010199906682828441
1738772916546492000,6.938491943359375,0.0015717976493760943,0.0014101437991485,0.0017893778858706355
1738772916556482800,6.94848291015625,0.0004655205411836505,0.004613127559423447,-0.0001675128296483308
1738772916566473700,6.9584736328125,0.0010546117555350065,0.003817641409114003,0.0011944277212023735
1738772916576465000,6.96846484375,0.0012932310346513987,0.004077565856277943,0.0010615360224619508
1738772916586455800,6.978455810546875,0.0021752698812633753,0.0029851372819393873,-0.0003049319493584335
1738772916596447700,6.98844775390625,0.0027353328187018633,0.0034059167373925447,-0.0006452839006669819
1738772916606439000,6.99843896484375,-0.00013315805699676275,0.004156128969043493,-0.0011536814272403717
1738772916616429800,7.008429931640625,0.002100967802107334,0.0035156388767063618,-0.000553404854144901
1738772916626420700,7.018420654296875,0.0019411781104281545,0.004630970768630505,0.0019917781464755535
1738772916636412000,7.028411865234375,0.0018338527297601104,0.0028011128306388855,0.0007424892974086106
1738772916646403800,7.03840380859375,0.0004799016169272363,0.002764094853773713,0.00005166532355360687
1738772916656394800,7.048394775390625,0.001525991247035563,0.0038477350026369095,0.00023169501218944788
1738772916666386000,7.058385986328125,0.0010729875648394227,0.004096474498510361,-0.00013555490295402706
1738772916676376800,7.068376953125,0.0011651329696178436,0.00284958234988153,0.00011904330312972888
1738772916686367700,7.07836767578125,0.0002609897928778082,0.005201419815421104,-0.0004820321628358215
1738772916696360000,7.08835986328125,-0.00014327807002700865,0.005012335255742073,0.0007211840129457414
1738772916706350800,7.098350830078125,0.0010165285784751177,0.002843457041308284,-0.0005840312223881483
1738772916716341800,7.108341796875,0.0026106967125087976,0.002957440447062254,-0.00026072346372529864
1738772916726333000,7.1183330078125,0.0008759136544540524,0.00341550400480628,0.0006072007236070931
1738772916736323800,7.12832373046875,0.00009880327706923708,0.002590989461168647,-0.000185888638952747
1738772916746315800,7.138315673828125,0.0012796488590538502,0.004308462142944336,0.0005677859298884869
1738772916756307000,7.148306884765625,0.0014737932942807674,0.003772101365029812,0.00020586235041264445
1738772916766297900,7.1582978515625,0.0025068335235118866,0.004355866461992264,-0.0004950816510245204
1738772916776288800,7.168288818359375,0.0017438378417864442,0.002784867538139224,0.0007643272401764989
1738772916786280000,7.178280029296875,0.0013781858142465353,0.003412840887904167,0.0000601874417043291
1738772916796270800,7.188270751953125,-0.001327053178101778,0.003204049076884985,0.0010719223646447062
1738772916806262800,7.1982626953125,0.0008673915872350335,0.0037087181117385626,0.0014287859667092562
1738772916816254000,7.20825390625,0.0005573995877057314,0.003031742526218295,-0.00010918960470007733
1738772916826244900,7.218244873046875,-0.0009451558580622077,0.002511893631890416,0.0008175904513336718
1738772916836235800,7.22823583984375,0.00130894361063838,0.004008590243756771,-0.0010002832859754562
1738772916846227000,7.23822705078125,0.0012937636347487569,0.0038195056840777397,0.0011624698527157307
1738772916856219000,7.248218994140625,0.00015419702685903758,0.002156627830117941,0.001797101111151278
1738772916866209800,7.258209716796875,0.0006319681415334344,0.0046578687615692616,0.0006543386843986809
1738772916876201000,7.268200927734375,0.002469549188390374,0.005781989078968763,0.000606934423558414
1738772916886191900,7.27819189453125,0.0019803266040980816,0.003565173828974366,0.0013827132061123848
1738772916896182800,7.288182861328125,0.0008807073463685811,0.003254116512835026,0.0007203850545920432
1738772916906175000,7.298175048828125,0.0013251889031380415,0.004122839774936438,-0.0008439557277597487
1738772916916166000,7.308165771484375,0.0007350324303843081,0.0041705104522407055,0.0012903015594929457
1738772916926156800,7.31815673828125,-0.0003046656202059239,0.004190217703580856,-0.0011478224769234657
1738772916936148000,7.32814794921875,0.0006346312584355474,0.0031872710678726435,0.002329200739040971
1738772916946139000,7.338138916015625,0.0012053466634824872,0.004156661685556173,0.0003020024741999805
1738772916956130800,7.348130859375,0.0012383698485791683,0.004210191313177347,0.00043888893560506403
1738772916966122000,7.3581220703125,0.0007843009079806507,0.004049869254231453,0.0008034756756387651
1738772916976113000,7.36811279296875,0.0018330537714064121,0.005593703594058752,-0.0003009371866937727
1738772916986103800,7.378103759765625,-0.0003094593121204525,0.0046996804885566235,-0.00012490226072259247
1738772916996094700,7.3880947265625,0.0007278419216163456,0.002898051869124174,0.000045540054998127744
1738772917006086000,7.3980859375,0.0019262643763795495,0.0032501218374818563,-0.00023302659974433482
1738772917016077800,7.408077880859375,0.0032107068691402674,0.0037318875547498465,0.001047421246767044
1738772917026069000,7.418069091796875,-0.00033635724685154855,0.00458596320822835,-0.00007163903501350433
1738772917036060000,7.428059814453125,-0.0010913633741438389,0.003710316028445959,-0.0007448861724697053
1738772917046050800,7.43805078125,0.0023393207229673862,0.003448260948061943,0.0024370586033910513
1738772917056041700,7.448041748046875,0.0011297129094600677,0.004068244714289904,0.0016170714516192675
1738772917066034000,7.458033935546875,-0.0004796353168785572,0.003771835006773472,0.0011179950088262558
1738772917076024800,7.46802490234375,0.0023177489638328552,0.0017310547409579158,-0.00006231796578504145
1738772917086016000,7.47801611328125,0.0003430151555221528,0.003306048223748803,0.00021971078240312636
1738772917096007000,7.4880068359375,0.001472461735829711,0.0036301547661423683,0.0004575310740619898
1738772917105997800,7.497997802734375,0.0017305220244452357,0.0035023230593651533,0.000597879639826715
1738772917115990000,7.507989990234375,0.0013880395563319325,0.0035246936604380608,0.0008111988427117467
1738772917125981000,7.51798095703125,0.003010703483596444,0.0034914042335003614,0.0002921487612184137
1738772917135971800,7.527971923828125,-0.0003121224872302264,0.003323891432955861,0.0018461032304912806
1738772917145962800,7.537962646484375,0.00250470289029181,0.004475175868719816,0.0012397015234455466
1738772917155954000,7.547953857421875,0.00023941817926242948,0.0030716899782419205,0.0012186624808236957
1738772917165945900,7.55794580078125,0.0017297230660915375,0.004954544827342033,0.00014620754518546164
1738772917175937000,7.56793701171875,0.0009092031978070736,0.0030011162161827087,0.0008303736103698611
1738772917185928000,7.577927978515625,0.002374208066612482,0.0022985744290053844,0.0006340986583381891
1738772917195918800,7.5879189453125,0.0028602350503206253,0.00381417921744287,0.0004316983977332711
1738772917205909800,7.59790966796875,0.0012056130217388272,0.0049281795509159565,-0.0007965514669194818
1738772917215901000,7.60790087890625,0.0013342436868697405,0.003674363251775503,0.0001179780374513939
1738772917225892900,7.617892822265625,0.001719603082165122,0.003885552054271102,-0.0008543420699425042
1738772917235883800,7.6278837890625,0.0017654094845056534,0.0038165762089192867,-0.00019520970818120986
1738772917245875000,7.637875,0.002113218419253826,0.004517253953963518,0.0001840244367485866
1738772917255865900,7.647865966796875,0.001615473534911871,0.0038831550627946854,-0.00045912896166555583
1738772917265856800,7.657856689453125,0.0006980145117267966,0.0032378712203353643,-0.0006982808117754757
1738772917275849000,7.667848876953125,0.0013254552613943815,0.003923634998500347,-0.00032330775866284966
1738772917285840000,7.67783984375,-0.0006641923682764173,0.0032256206031888723,0.0014596786350011826
1738772917295830800,7.687830810546875,0.0012202603975310922,0.003996073268353939,0.00021518341964110732
1738772917305822000,7.697822021484375,0.00022503710351884365,0.0018847191240638494,-0.00021944446780253202
1738772917315812900,7.707812744140625,0.0017536915838718414,0.0039007319137454033,-0.001895105466246605
1738772917325804800,7.7178046875,0.0014897723449394107,0.004772118292748928,0.00025779398856684566
1738772917335796000,7.7277958984375,0.0008261125767603517,0.002630936913192272,0.0009398295660503209
1738772917345787000,7.737786865234375,0.0006825681775808334,0.0037491980474442244,-0.0008258462767116725
1738772917355777800,7.74777783203125,0.0013097425689920783,0.0044043357484042645,0.001160072977654636
1738772917365769000,7.75776904296875,0.00033342777169309556,0.0043931505642831326,-0.0010727213229984045
1738772917375760000,7.767759765625,0.0008910936885513365,0.0036618465092033148,-0.0006910903030075133
1738772917385751800,7.777751708984375,-0.00033955302205868065,0.0041372207924723625,0.0002002697146963328
1738772917395743000,7.787742919921875,0.0020905814599245787,0.0039020637050271034,-0.0015169365797191858
1738772917405734000,7.79773388671875,0.002620816696435213,0.0032828785479068756,0.0015358449891209602
1738772917415724800,7.807724853515625,0.0029878003988415003,0.0038519962690770626,0.0009933591354638338
1738772917425716000,7.817716064453125,0.0001704423048067838,0.0026881948579102755,0.0007752461824566126
1738772917435708000,7.8277080078125,0.0014452975010499358,0.004048803821206093,-0.0003712446487043053
1738772917445698800,7.83769873046875,0.0001917476038215682,0.002930542454123497,-0.0010029464028775692
1738772917455690000,7.84768994140625,0.0011262508342042565,0.0044320328161120415,0.00003834952076431364
1738772917465681000,7.857680908203125,0.0008402272942475975,0.003308444982394576,-0.0015020228456705809
1738772917475671800,7.867671875,0.00155288923997432,0.003421362955123186,-0.0002545981842558831
1738772917485664000,7.8776640625,0.0016349145444110036,0.004759334959089756,-0.00008894957863958552
1738772917495655000,7.887655029296875,0.00011398329661460593,0.0041366880759596825,0.0018663433147594333
1738772917505645800,7.897645751953125,0.002547047333791852,0.004274107050150633,0.0011851066956296563
1738772917515637000,7.907636962890625,0.00041438787593506277,0.0018937737913802266,-0.0001994707708945498
1738772917525628000,7.9176279296875,-0.000045540054998127744,0.0038195056840777397,0.0006570018595084548
1738772917535618800,7.927618896484375,0.001722532557323575,0.00361790438182652,0.0016783240716904402
1738772917545611000,7.937611083984375,0.0007512777228839695,0.005152151454240084,0.0008713863207958639
1738772917556225800,7.948225830078125,0.0009536779834888875,0.0037111148703843355,-0.0003406183095648885
1738772917566216700,7.958216796875,0.0013004215434193611,0.004102599807083607,-0.0005507417372427881
1738772917576208000,7.968207763671875,0.00004367584188003093,0.0041281660087406635,0.0010950918076559901
1738772917586198800,7.97819873046875,0.0011627360945567489,0.00336144189350307,-0.000032490566809428856
1738772917596191000,7.98819091796875,-0.0001978728687390685,0.0031105722300708294,0.0013041499769315124
1738772917606182000,7.998181884765625,0.0014988270122557878,0.004199805203825235,0.0005898901727050543
1738772917616172800,8.0081728515625,0.001606685109436512,0.003979029133915901,0.0006535397260449827
1738772917626163700,8.018163818359374,0.00004021373388241045,0.0030218889005482197,0.002150502521544695
1738772917636155000,8.02815478515625,-0.00034647725988179445,0.002588326344266534,-0.00038828887045383453
1738772917646146800,8.038146728515626,0.0018570221727713943,0.00461712246760726,-0.0008609999786131084
1738772917656137700,8.0481376953125,0.0017390442080795765,0.0034961977507919073,-0.000037550569686573
1738772917666129000,8.05812890625,0.001100684516131878,0.0044349622912704945,0.0003685815026983619
1738772917676119800,8.068119873046875,0.000972852751147002,0.004336957819759846,0.0002210423699580133
1738772917686110700,8.07811083984375,0.001181644620373845,0.0038685076870024204,0.0013036173768341541
1738772917696102000,8.088101806640625,0.00020746025256812572,0.005073321983218193,-0.0004340952436905354
1738772917706093800,8.09809375,0.0010852381819859147,0.00606321869418025,-0.0007030745036900043
1738772917716084700,8.108084716796874,0.0009568737586960196,0.0033931334037333727,0.0008080030675046146
1738772917726076000,8.118075927734376,-0.0012170645641162992,0.0034168355632573366,0.0007475492893718183
1738772917736066800,8.12806689453125,0.0021204089280217886,0.0022690133191645145,0.0005917543894611299
1738772917746057700,8.1380576171875,0.0016831178218126297,0.0027481159195303917,-0.001097755040973425
1738772917756050000,8.1480498046875,0.0007211840129457414,0.002978213131427765,0.0013965616235509515
1738772917766040800,8.158040771484375,0.0012887036427855492,0.0039116512052714825,0.0007605988066643476
1738772917776031700,8.16803173828125,0.0011728560784831643,0.0032109732273966074,0.0004655205411836505
1738772917786023000,8.17802294921875,0.0005089300684630871,0.003941478207707405,0.0003158508916385472
1738772917796013800,8.188013916015626,0.0005278385360725224,0.0043960800394415855,-0.0008290420519188046
1738772917806004700,8.198004638671875,0.000963797967415303,0.003930026665329933,0.0014197311829775572
1738772917815997000,8.207996826171875,0.0014317154418677092,0.003876763628795743,0.0009084042394533753
1738772917825987800,8.21798779296875,0.0006311691831797361,0.0036991306114941835,0.00044048685231246054
1738772917835978800,8.227978759765625,0.0016588830621913075,0.003745469730347395,-0.0006964165950194001
1738772917845970000,8.237969970703125,0.0016218650853261352,0.0049372343346476555,-0.0008072041091509163
1738772917855960800,8.2479609375,0.0009704558760859072,0.0039175101555883884,-0.0006921555614098907
1738772917865952800,8.257952880859374,-0.00024714134633541107,0.003346528159454465,0.0004087952256668359
1738772917875944000,8.26794384765625,0.0009656621841713786,0.0034139060880988836,-0.000006924218723725062
1738772917885934800,8.277934814453126,0.0024535702541470528,0.002844256116077304,0.0006263754912652075
1738772917895925800,8.28792578125,0.002080195117741823,0.004313255660235882,0.0006711165769957006
1738772917906541800,8.298541748046874,-0.0014397049089893699,0.005130313336849213,-0.0006354302167892456
1738772917916532700,8.30853271484375,0.0023241406306624413,0.002427471335977316,-0.0006032059900462627
1738772917926524000,8.31852392578125,0.001404018490575254,0.0035401401109993458,-0.0006082659820094705
1738772917936515800,8.328515869140626,-0.0010900318156927824,0.0038008634001016617,-0.00018615495355334133
1738772917946506800,8.3385068359375,0.000720118754543364,0.0035830168053507805,-0.0005342300864867866
1738772917956498000,8.348497802734375,0.0016072177095338702,0.0023068301379680634,0.0008173241512849927
1738772917966488800,8.35848876953125,0.002055161399766803,0.0018168084789067507,-0.0010303769959136844
1738772917976479700,8.368479736328124,0.0006530070677399635,0.003926032222807407,0.00008335694292327389
1738772917986472000,8.378471923828124,0.0031795480754226446,0.002514556748792529,0.0005065332516096532
1738772917996462800,8.388462890625,0.0006793724023737013,0.004547613672912121,0.0005408879951573908
1738772918006453800,8.398453857421876,0.001773132593370974,0.002889796160161495,-0.0006652576266787946
1738772918016445000,8.40844482421875,-0.000523577444255352,0.004136155359447002,-0.0004876247840002179
1738772918026435800,8.418435791015625,-0.00044794369023293257,0.004698615055531263,-0.0007699198904447258
1738772918036427800,8.428427734375,0.0009664611425250769,0.0030210898257791996,-0.0014002900570631027
1738772918046419000,8.4384189453125,0.0009912285022437572,0.0033563817851245403,-0.000477504770969972
1738772918056409900,8.448409912109375,0.00042344260145910084,0.003026416292414069,0.0003712446487043053
1738772918066400800,8.45840087890625,0.0026554379146546125,0.002785133896395564,0.000022903184799361043
1738772918076392000,8.468391845703126,0.0009736517095007002,0.003653058083727956,-0.00005406216951087117
1738772918086382800,8.4783828125,0.0028415927663445473,0.004099403973668814,-0.00043755737715400755
1738772918096374500,8.48837451171875,0.000291616132017225,0.005036836490035057,0.00018109494703821838
1738772918106365400,8.498365478515625,0.0005430185701698065,0.0025952504947781563,0.0005091963685117662
1738772918116356400,8.5083564453125,-0.00017363809456583112,0.0038895467296242714,0.0009289105655625463
1738772918126347500,8.518347412109375,0.00032437301706522703,0.003410177771002054,0.0011211908422410488
1738772918136338400,8.52833837890625,0.00004234426160110161,0.003029612125828862,-0.0011467571603134274
1738772918146330600,8.53833056640625,0.001955292886123061,0.004918325692415237,-0.00033688987605273724
1738772918156321500,8.548321533203126,0.0024746092967689037,0.003970507066696882,-0.00035686357296071947
1738772918166312400,8.5583125,0.0011547466274350882,0.001845038030296564,0.001475391210988164
1738772918176303400,8.568303466796875,0.001050617080181837,0.003719370812177658,0.001478587044402957
1738772918186294500,8.57829443359375,0.0017659420846030116,0.003855191869661212,-0.0005677859298884869
1738772918196286500,8.588286376953125,0.000391218374716118,0.0026788737159222364,0.0001102548703784123
1738772918206277400,8.59827734375,0.0012130698887631297,0.003029079409316182,-0.00013182646944187582
1738772918216268500,8.6082685546875,0.0014234596164897084,0.004367051646113396,0.0007366303470917046
1738772918226259500,8.618259521484376,0.0005784385721199214,0.0046759783290326595,0.000538491178303957
1738772918236250400,8.62825048828125,0.0010660634143278003,0.005083708092570305,-0.00021784658019896597
1738772918246241500,8.638241455078125,0.0030306773260235786,0.004532699938863516,-0.00031638352083973587
1738772918256233500,8.6482333984375,0.0012362393317744136,0.005196892656385899,0.00003408846168895252
1738772918266224400,8.658224365234375,0.0015640745405107737,0.0036019254475831985,0.0006266417913138866
1738772918276215600,8.668215576171875,0.002748914761468768,0.003706587478518486,-0.000862864195369184
1738772918286206500,8.67820654296875,0.0012580773327499628,0.0023073628544807434,0.0011906992876902223
1738772918296197400,8.688197265625,0.0025387913919985294,0.0028868666850030422,0.0011669971281662583
1738772918306189600,8.698189453125,0.002007757080718875,0.0034642398823052645,0.002280997345224023
1738772918316180500,8.708180419921876,0.00033875409280881286,0.004228833597153425,-0.0002956108655780554
1738772918326171400,8.71817138671875,0.002776611829176545,0.003706853836774826,-0.0010154632618650794
1738772918336162600,8.72816259765625,0.002217081608250737,0.0049255164340138435,0.0004540689697023481
1738772918346153500,8.738153564453125,0.0010575412306934595,0.0031704932916909456,-0.0004516721237450838
1738772918356145400,8.7481455078125,0.0009504822082817554,0.004717523697763681,0.0005914880894124508
1738772918366136600,8.758136474609374,-0.0004569984448608011,0.0031582426745444536,0.00009906959166983142
1738772918376127500,8.76812744140625,0.0001054611784638837,0.005027781706303358,0.00005273058923194185
1738772918386118400,8.778118408203126,0.00007243797881528735,0.0037294907961040735,-0.0005584649043157697
1738772918396109600,8.788109619140625,0.0003968109958805144,0.003451723139733076,-0.00010066748654935509
1738772918406100500,8.7981005859375,0.002011219272390008,0.0030597057193517685,0.0014961638953536749
1738772918416092400,8.808092529296875,0.0030956584960222244,0.004311391618102789,0.0003454120014794171
1738772918426083600,8.81808349609375,-0.00023329291434492916,0.0029113676864653826,-0.00007110639853635803
1738772918436074500,8.828074462890624,0.0022245384752750397,0.0027800737880170345,0.0007640608819201589
1738772918446065400,8.8380654296875,0.002141447737812996,0.0034903388004750013,-0.0004753742541652173
1738772918456056600,8.848056640625,0.0002812298189383,0.0035542547702789307,0.001169394003227353
1738772918466048500,8.858048583984376,0.0020788635592907667,0.00375958438962698,0.00041971419705078006
1738772918476039400,8.868039306640625,0.0029406624380499125,0.0040914141573011875,0.000857005245052278
1738772918486030600,8.878030517578125,0.001466602785512805,0.0028338697738945484,0.0008996158139780164
1738772918496021500,8.888021484375,0.0009142631897702813,0.003718571737408638,0.0006111954571679235
1738772918506012400,8.898012451171875,0.0018807243322953582,0.003864513011649251,-0.0004655205411836505
1738772918516003300,8.90800341796875,0.0008386294357478619,0.002764627570286393,0.0006439523422159255
1738772918525995500,8.91799560546875,0.000999484327621758,0.004969458561390638,0.0018993664998561144
1738772918535986400,8.927986328125,0.0017869811272248626,0.002569950418546796,-0.0006295712664723396
1738772918545977600,8.9379775390625,-0.0001257012045243755,0.0025486452504992485,-0.0006325007416307926
1738772918555968500,8.947968505859375,0.0007408913807012141,0.003980626817792654,-0.00008948221511673182
1738772918565959400,8.95795947265625,0.00018988338706549257,0.004449876025319099,0.0010844392236322165
1738772918575951600,8.96795166015625,0.0018796591321006417,0.0026349315885454416,0.00035206988104619086
1738772918585942500,8.977942626953125,0.0000953411654336378,0.004681038204580545,0.00213638786226511
1738772918595933400,8.987933349609374,0.0011523497523739934,0.0029142971616238356,0.0008761800127103925
1738772918605924600,8.997924560546876,0.0004340952436905354,0.0029401297215372324,0.000368847802747041
1738772918615915500,9.00791552734375,0.002785400254651904,0.005516738165169954,-0.0005597964627668262
1738772918625906400,9.017906494140625,0.0009957558941096067,0.0034940673504024744,0.000755805114749819
1738772918635898600,9.027898681640625,0.0006215817993506789,0.004552141297608614,0.0012010856298729777
1738772918645889500,9.0378896484375,0.002067678142338991,0.0043678502552211285,0.002386192325502634
1738772918655880400,9.04788037109375,0.001907355966977775,0.004222441930323839,-0.0009241168736480176
1738772918665871400,9.057871337890624,0.0005131911602802575,0.0033459956757724285,0.00034967303508892655
1738772918675862500,9.067862548828124,0.0017560884589329362,0.002567287301644683,0.00017017599020618945
1738772918685854500,9.0778544921875,0.00010226538870483637,0.002088450826704502,0.0012958941515535116
1738772918695845600,9.087845703125,0.0028786107432097197,0.004391286056488752,0.0014261227333918214
1738772918705836500,9.09783642578125,0.0009267800487577915,0.0041007352992892265,-0.00013981595111545175
1738772918715827500,9.107827392578125,0.0011297129094600677,0.002846919232979417,0.0009384979493916035
1738772918725818400,9.117818359375,0.001976331928744912,0.003608583239838481,0.0011289139511063695
1738772918735810600,9.127810546875,0.0015129417879506946,0.003934021573513746,-0.0005701828049495816
1738772918745801500,9.137801513671874,0.0029678267892450094,0.003260241821408272,0.00027084347675554454
1738772918755792400,9.14779248046875,0.0014239922165870667,0.0035870117135345936,-0.0008125304593704641
1738772918765783600,9.157783447265626,0.0014572817599400878,0.0030802120454609394,-0.00033422670094296336
1738772918775774500,9.1677744140625,-0.000028762138754245825,0.004013916477560997,0.0006274407496675849
1738772918785765400,9.177765380859375,0.0004569984448608011,0.003456783015280962,0.0003304982965346426
1738772918795757600,9.187757568359375,0.0024740765802562237,0.002925216220319271,0.0002889529860112816
1738772918805748500,9.19774853515625,0.0014008227735757828,0.003929493948817253,0.0014293185668066144
1738772918815739400,9.207739501953125,0.002668487373739481,0.004596882499754429,-0.0007374293054454029
1738772918825730600,9.21773046875,0.0011627360945567489,0.0023582291323691607,0.0010040117194876075
1738772918835721500,9.227721435546876,0.0010817759903147817,0.0026788737159222364,-0.0008088020258583128
1738772918845713400,9.23771337890625,0.002856240142136812,0.005222725216299295,0.001112935016863048
1738772918855704600,9.24770458984375,0.0007576693315058947,0.005032841581851244,0.0009840379934757948
1738772918865695500,9.257695556640625,-0.00017869810108095407,0.002243713242933154,0.0008370315190404654
1738772918875686400,9.267686279296875,0.0003075950953643769,0.0028724854346364737,0.0009946906939148903
1738772918885677600,9.277677490234375,-0.0008663262706249952,0.0046634613536298275,-0.0008351673022843897
1738772918895668500,9.28766845703125,0.0011459582019597292,0.0036706349346786737,0.0008402272942475975
1738772918905660400,9.297660400390624,0.0009840379934757948,0.003631752682849765,0.00025592977181077003
1738772918915651600,9.307651611328126,0.0008988168556243181,0.004278101958334446,0.00047936898772604764
1738772918925642500,9.317642578125,0.00037470675306394696,0.004064250271767378,0.00006924218905624002
1738772918935633400,9.32763330078125,0.0014282532501965761,0.003148389048874378,0.0003270361921750009
1738772918945624600,9.33762451171875,0.002642122097313404,0.002785400254651904,-0.0006005428149364889
1738772918955616500,9.347616455078125,0.0023100259713828564,0.0047260457649827,0.00015632755821570754
1738772918965607400,9.357607421875,0.002237854292616248,0.004385427106171846,-0.0009038768475875258
1738772918975598600,9.3675986328125,0.001198955113068223,0.0049159289337694645,0.0004237089306116104
1738772918985589500,9.377589599609376,0.0021888520568609238,0.004667988512665033,0.00006764429417671636
1738772918995580400,9.387580322265626,-0.0014239922165870667,0.003912449814379215,-0.00029827404068782926
1738772919005571600,9.397571533203125,0.0014253237750381231,0.0046730488538742065,-0.00040426786290481687
1738772919015563500,9.4075634765625,0.002519616624340415,0.005429120268672705,-0.000517718493938446
1738772919025554400,9.417554443359375,0.0006886934279464185,0.001841575838625431,0.00004873584839515388
1738772919035545600,9.427545654296875,-0.0008892294717952609,0.003709516953676939,-0.0002234392159152776
1738772919045536500,9.43753662109375,-0.001201618229970336,0.0033007217571139336,0.000330231967382133
1738772919055527400,9.44752734375,0.0013920343481004238,0.002457298804074526,-0.0011102718999609351
1738772919065518300,9.457518310546876,0.0039049931801855564,0.0054336474277079105,-0.000018908443962573074
1738772919075510500,9.467510498046876,0.0007070692372508347,0.004406998865306377,0.0007171892793849111
1738772919085501400,9.47750146484375,0.0006886934279464185,0.003447994589805603,0.00030786142451688647
1738772919095493400,9.487493408203125,0.000028762138754245825,0.0037790255155414343,-0.0013315805699676275
1738772919105484300,9.497484375,0.0013409015955403447,0.005407015793025494,0.00017310546536464244
1738772919115475500,9.507475341796875,0.0015523566398769617,0.0035236284602433443,0.001785116852261126
1738772919125467400,9.51746728515625,0.0008916263468563557,0.00398728484287858,-0.0011715245200321078
1738772919135458300,9.527458251953124,0.0010330402292311192,0.0019169433508068323,0.0006231797160580754
1738772919145449500,9.537449462890624,0.0005067995516583323,0.002395513467490673,0.0003842941368930042
1738772919155440400,9.5474404296875,0.002246110001578927,0.0029739518649876118,0.00020453077740967274
1738772919165431300,9.557431396484375,0.00009933590627042577,0.004375307355076075,-0.0008575378451496363
1738772919175422500,9.56742236328125,0.0006474144756793976,0.004450408276170492,-0.0004993426846340299
1738772919185414400,9.577414306640625,0.0012721919920295477,0.004307396709918976,0.0009499495499767363
1738772919195405300,9.5874052734375,0.002380067016929388,0.0034437335561960936,0.0009693906176835299
1738772919205396500,9.597396484375,0.0014599448768422008,0.004713795147836208,-0.00037923414492979646
1738772919215387400,9.607387451171874,0.001261805766262114,0.004508199170231819,0.0001459412305848673
1738772919225378300,9.61737841796875,-0.0012434299569576979,0.00449781259521842,-0.0015534218400716782
1738772919235370500,9.62737060546875,0.002472745021805167,0.005857889074832201,0.00027084347675554454
1738772919245361400,9.637361328125,0.0018138790037482977,0.002444781828671694,-0.000011185276889591478
1738772919255352300,9.647352294921875,0.001386441639624536,0.001978462329134345,-0.00043755737715400755
1738772919265343500,9.657343505859375,0.0019089538836851716,0.00669225724413991,0.0001257012045243755
1738772919275334400,9.66733447265625,0.0009358347742818296,0.004581169690936804,-0.0007384945638477802
1738772919285325300,9.6773251953125,0.001755023142322898,0.0024549018125981092,0.0014112089993432164
1738772919295317500,9.6873173828125,0.001799764228053391,0.004732437431812286,0.0011036139912903309
1738772919305308400,9.697308349609376,0.0012562130577862263,0.0023062974214553833,0.00023196132679004222
1738772919315299300,9.70729931640625,0.0006372944335453212,0.002222407842054963,0.00022956448083277792
1738772919325290200,9.717290283203125,0.0002644518972374499,0.004333495628088713,0.0005603290628641844
1738772919335281400,9.727281494140625,0.0005986785981804132,0.004284227266907692,0.0006655239267274737
1738772919345272300,9.737272216796875,0.00046099317842163146,0.0038181741256266832,0.0013899037148803473
1738772919355264500,9.747264404296875,0.0011179950088262558,0.004668521229177713,0.0008586031035520136
1738772919365255400,9.75725537109375,0.00015206649550236762,0.004028031136840582,0.001005343277938664
1738772919375246300,9.767246337890626,0.0005906891310587525,0.006376939360052347,0.0007720504072494805
1738772919385237200,9.7772373046875,-0.001100950757972896,0.004265052266418934,0.0015869776252657175
1738772919395228400,9.787228515625,0.0011776498286053538,0.0034373418893665075,-0.00009108010999625549
1738772919405220400,9.797220458984375,0.0005113269435241818,0.0037880802992731333,0.0005555353709496558
1738772919415211500,9.80721142578125,0.0017158746486529708,0.004340952727943659,-0.0010237190872430801
1738772919425202400,9.817202392578125,0.0005025385180488229,0.004885036498308182,0.0017528926255181432
1738772919435193300,9.827193359375,0.0009062737226486206,0.00469435378909111,0.0008210525847971439
1738772919445184300,9.837184326171876,0.00018642126815393567,0.002546248259022832,0.0010988202411681414
1738772919455175400,9.847175537109376,0.0023547669406980276,0.005723133217543364,0.0011883024126291275
1738772919465167400,9.85716748046875,0.00014274542627390474,0.004223241005092859,0.0011968245962634683
1738772919475158300,9.867158203125,0.0008522115531377494,0.0022208099253475666,-0.0005816344055347145
1738772919485149400,9.8771494140625,0.000693220819812268,0.003486077766865492,0.0008503473363816738
1738772919495140400,9.887140380859375,0.00130947632715106,0.005017661955207586,0.0005928196478635073
1738772919505131300,9.89713134765625,0.0009177253232337534,0.003963049966841936,0.001258609932847321
1738772919515123500,9.90712353515625,0.0006183860241435468,0.0034671693574637175,0.0001131843455368653
1738772919525114400,9.9171142578125,0.001698564155958593,0.004816326778382063,-0.00012596751912496984
1738772919535105300,9.927105224609376,0.0022186795249581337,0.0037649108562618494,-0.0004897553008049726
1738772919545096400,9.937096435546875,0.0008910936885513365,0.002939597237855196,0.0013225257862359285
1738772919555087400,9.94708740234375,0.0020868529099971056,0.004543352872133255,0.000004261057711119065
1738772919565078300,9.957078369140625,0.0018998990999534726,0.005387841258198023,-0.00015046859334688634
1738772919575070500,9.967070556640625,-0.00044528054422698915,0.002537992550060153,0.000544350128620863
1738772919585061400,9.977061279296874,0.001281779375858605,0.0037473340053111315,-0.0010990865994244814
1738772919595052300,9.98705224609375,0.00006231796578504145,0.00424188282340765,-0.0011400992516428232
1738772919605043500,9.99704345703125,0.002201635157689452,0.003287938656285405,0.0010695254895836115
1738772919615034400,10.007034423828125,0.001374457380734384,0.003026149934157729,0.00044554684427566826
1738772919625025300,10.017025390625,0.001285241567529738,0.003695668652653694,-0.0004516721237450838
1738772919635017500,10.027017578125,0.001142229768447578,0.004287955816835165,-0.0006165218073874712
1738772919645008400,10.03700830078125,0.0004878911131527275,0.003245860803872347,0.0006815029191784561
1738772919654999300,10.046999267578125,0.002098038326948881,0.00264744833111763,0.0002436792419757694
1738772919664990500,10.056990478515624,0.0013227921444922686,0.004406998865306377,0.00009800432599149644
1738772919674981400,10.0669814453125,0.0012578109744936228,0.00444002216681838,-0.0004676510870922357
1738772919684973300,10.076973388671876,0.00045540055725723505,0.0035960664972662926,0.0008186557097360492
1738772919694964500,10.086964599609376,0.001228782464750111,0.004061587154865265,0.0005456816870719194
1738772919704955400,10.096955322265625,0.0009057410643436015,0.0030834078788757324,0.00032623723382130265
1738772919714946300,10.1069462890625,0.0006993460701778531,0.0036674391012638807,0.00034914040588773787
1738772919724937500,10.1169375,0.0009890979854390025,0.004199006129056215,-0.00029534456552937627
1738772919734928400,10.126928466796874,0.00019494339358061552,0.002772350562736392,-0.0013411679537966847
1738772919744920300,10.13692041015625,0.00042344260145910084,0.003912449814379215,0.0007366303470917046
1738772919754911500,10.146911376953126,0.0009267800487577915,0.004707403481006622,-0.0014966964954510331
1738772919764902400,10.15690234375,0.0016943031223490834,0.00293320557102561,0.000284159294096753
1738772919774893300,10.166893310546875,0.0010157296201214194,0.0025622271932661533,-0.0004655205411836505
1738772919784884200,10.17688427734375,0.002108957152813673,0.004857339430600405,-0.00007057376933516935
1738772919794875400,10.18687548828125,0.0016282566357403994,0.002945722546428442,0.00014034859486855567
1738772919804867300,10.196867431640625,0.000978711643256247,0.0033481260761618614,0.00022290658671408892
1738772919814858500,10.2068583984375,0.0019265307346358895,0.004809668753296137,0.0008466189028695226
1738772919824849400,10.216849365234374,0.0022927154786884785,0.004000067710876465,0.0002998719282913953
1738772919834840300,10.22684033203125,0.0020783308427780867,0.003620567498728633,-0.0002146507758880034
1738772919844831200,10.236831298828125,0.0025012409314513206,0.004727110732346773,0.0016759273130446672
1738772919854823400,10.246823486328125,0.0013701963471248746,0.005560946650803089,0.0013518205378204584
1738772919864814300,10.256814453125,0.0014538196846842766,0.0024927188642323017,-0.0002884203568100929
1738772919874805200,10.26680517578125,0.0015358449891209602,0.0019803266040980816,-0.000601075473241508
1738772919884796400,10.27679638671875,-0.0004830974212381989,0.00427091121673584,0.0007890945998951793
1738772919894787300,10.286787353515624,0.001020257011987269,0.0038477350026369095,0.0010900318156927824
1738772919904778200,10.2967783203125,0.003942809998989105,0.004857339430600405,0.00032676986302249134
1738772919914770400,10.3067705078125,0.001657018787227571,0.0037358824629336596,-0.0005262406193651259
1738772919924761300,10.31676123046875,0.00046152580762282014,0.003355316584929824,0.0017118799732998013
1738772919934752300,10.326752197265625,0.0011416971683502197,0.0035571842454373837,-0.000014381069377122913
1738772919944743400,10.336743408203125,-0.0002335592289455235,0.003820837242528796,-0.0013638047967106104
1738772919954734300,10.346734375,0.0026636936236172915,0.003751861397176981,-0.0006860303110443056
1738772919964725200,10.356725341796874,0.0009241168736480176,0.004600610584020615,0.000010652644050423987
1738772919974717400,10.366717529296874,0.0010373012628406286,0.0029377329628914595,0.0008940231637097895
1738772919984708400,10.376708251953126,-0.0010128001449629664,0.002793389605358243,0.0010631339391693473
1738772919994699300,10.38669921875,0.0007917577750049531,0.0031843415927141905,0.0005704491049982607
1738772920004690400,10.3966904296875,0.0001893507578643039,0.0033537186682224274,-0.0006844323943369091
1738772920014681300,10.406681396484375,0.0027656927704811096,0.0041276332922279835,0.00041492050513625145
1738772920024673300,10.41667333984375,0.000731836655177176,0.002912699244916439,-0.0008796420879662037
1738772920034664400,10.42666455078125,0.0009616674506105483,0.005021922755986452,-0.0002162486780434847
1738772920044655400,10.4366552734375,0.00009693906031316146,0.0022178804501891136,-0.0004916195175610483
1738772920054646300,10.446646240234376,0.00037230990710668266,0.004234958905726671,-0.001094559207558632
1738772920064637400,10.456637451171876,0.0011653993278741837,0.003123355330899358,0.0011137339752167463
1738772920074628400,10.46662841796875,0.0005555353709496558,0.005758286919444799,0.0011587414192035794
1738772920084620300,10.476620361328125,0.0023939155507832766,0.002703641075640917,0.00017363809456583112
1738772920094610200,10.486610107421875,0.0014290522085502744,0.002150768879801035,0.0003576625313144177
1738772920104601300,10.496601318359374,0.0008074704091995955,0.003525492735207081,-0.000606668065302074
1738772920114592300,10.50659228515625,0.0025925873778760433,0.005061071366071701,-0.00009081379539566115
1738772920124583200,10.516583251953126,0.0017134778900071979,0.0051843756809830666,-0.0003968109958805144
1738772920134574300,10.52657421875,0.0015369103057309985,0.003228017594665289,-0.0002532666258048266
1738772920144566300,10.536566162109375,0.0006625944515690207,0.004733502399176359,-0.00014913702034391463
1738772920154557200,10.54655712890625,0.0023694143164902925,0.0025984463281929493,0.0005675196298398077
1738772920164548400,10.55654833984375,0.00063383235828951,0.0035020567011088133,-0.00021198761533014476
1738772920174539300,10.566539306640625,0.0025326660834252834,0.004303401801735163,0.00042450788896530867
1738772920184530200,10.5765302734375,0.0009054747642949224,0.0029699571896344423,-0.0005872269975952804
1738772920194521300,10.586521240234376,0.0000958738019107841,0.003743072971701622,-0.0014152037911117077
1738772920204513300,10.59651318359375,0.000630636524874717,0.004290885291993618,0.00011185276525793597
1738772920214504200,10.606504150390625,0.0015568839153274894,0.00455773388966918,0.00006364954606397077
1738772920224495400,10.616495361328125,0.0026589001063257456,0.003102049930021167,-0.00008468852320220321
1738772920234486300,10.626486328125,0.0019198728259652853,0.0037864823825657368,-0.0006495449924841523
1738772920244477200,10.636477294921875,-0.00018615495355334133,0.005123921670019627,0.0011014834744855762
1738772920254469400,10.646469482421875,0.0017033577896654606,0.003991545643657446,0.0007952199084684253
1738772920264460300,10.656460205078124,0.0009017463307827711,0.004288222175091505,-0.00040320257539860904
1738772920274451200,10.666451171875,0.002046639332547784,0.0034346787724643946,-0.0005845638806931674
1738772920284442400,10.6764423828125,0.0010032127611339092,0.004046939779073,-0.0000021305288555595325
1738772920294433300,10.686433349609375,0.0019094864837825298,0.00481313094496727,0.0012756541837006807
1738772920304424200,10.696424072265625,0.001856489572674036,0.004055461846292019,-0.0000958738019107841
1738772920314416400,10.70641650390625,0.0024586303625255823,0.004280765075236559,0.00041678472189232707
1738772920324407300,10.7164072265625,0.0010785802733153105,0.003525492735207081,0.000859934720210731
1738772920334398200,10.726398193359374,0.0029025792609900236,0.003492469433695078,-0.0006183860241435468
1738772920344389400,10.736389404296874,0.0014423680258914828,0.0021172130946069956,0.0021198762115091085
1738772920354380300,10.74638037109375,-0.0003528688393998891,0.002686596941202879,-0.0006237123161554337
1738772920364371200,10.75637109375,0.0015949672088027,0.004746019374579191,-0.001508680754341185
1738772920374363400,10.76636328125,0.000609863898716867,0.0029201561119407415,0.0004034689045511186
1738772920384354300,10.776354248046875,0.0003608583356253803,0.004486094694584608,-0.00025726135936565697
1738772920394345200,10.78634521484375,0.0008186557097360492,0.004800081718713045,0.0006410228670574725
1738772920404336000,10.796336181640624,0.0004463458026293665,0.003344397759065032,0.00019654128118418157
1738772920414327300,10.806327392578124,0.0012420982820913196,0.0047058057971298695,0.00007590009045088664
1738772920424319200,10.8163193359375,0.0013401026371866465,0.0038842204958200455,0.00020879182557109743
1738772920434310400,10.826310302734376,0.0022442457266151905,0.0034314829390496016,-0.001050617080181837
1738772920444301300,10.83630126953125,0.0008074704091995955,0.0034285534638911486,0.0013028184184804559
1738772920454292200,10.846292236328125,0.0008311725687235594,0.005388640332967043,-0.0002772350562736392
1738772920464283100,10.856283203125,0.0012681973166763783,0.0046152579598128796,-0.000022903184799361043
1738772920474274300,10.8662744140625,0.0014735270524397492,0.002939863596111536,0.0006865629111416638
1738772920484266200,10.876266357421875,0.002394980750977993,0.0037228327710181475,-0.00014514227223116904
1738772920494257200,10.886257080078124,0.002033855998888612,0.003980094101279974,0.0009329052991233766
1738772920504248300,10.896248291015626,0.0005736448802053928,0.003069559345021844,0.00039015308720991015
1738772920514239200,10.9062392578125,0.0025832662358880043,0.004576642066240311,0.001198688754811883
1738772920524230100,10.916230224609375,0.0007592672482132912,0.0033563817851245403,0.0004886900424025953
1738772920534221300,10.92622119140625,0.0012567456578835845,0.0029670277144759893,-0.0017427726415917277
1738772920544213200,10.936213134765625,0.0005555353709496558,0.0031963258516043425,0.0011515507940202951
1738772920554204200,10.9462041015625,-0.0006900250446051359,0.0043992758728563786,-0.0007651261985301971
1738772920564195300,10.9561953125,0.001995772821828723,0.0037497307639569044,0.0003246393462177366
1738772920574186200,10.966186279296876,0.0020967067684978247,0.0035364115610718727,0.0011576761025935411
1738772920584177200,10.97617724609375,0.002752643311396241,0.004070641472935677,0.0006245112745091319
1738772920594168300,10.986168212890625,0.000011451592399680521,0.004057059530168772,0.0015821839915588498
1738772920604160300,10.99616015625,0.0011398328933864832,0.002636529505252838,0.0007771103992126882
1738772920614151200,11.006151123046875,-0.0006213154993019998,0.004535895772278309,-0.00030786142451688647
1738772920624142300,11.016142333984375,0.0018101505702361465,0.002813629573211074,0.00003328951424919069
1738772920634133200,11.02613330078125,0.0016319850692525506,0.00421391986310482,0.0003834952076431364
1738772920644124200,11.036124267578124,0.0021696772892028093,0.004257595632225275,0.0012900352012366056
1738772920654115300,11.046115234375,0.0016290555940940976,0.002692722249776125,0.00011105381418019533
1738772920664107300,11.056107177734376,0.0003174488083459437,0.004593420308083296,0.0000900148443179205
1738772920674098200,11.06609814453125,0.000859934720210731,0.004369182046502829,0.0011347729014232755
1738772920684089300,11.07608935546875,0.004041613079607487,0.004228567238897085,-0.0008008125587366521
1738772920694080300,11.086080322265625,-0.0005467469454742968,0.004604871850460768,-0.00016644757124595344
1738772920704071200,11.0960712890625,0.0012660667998716235,0.003564374754205346,-0.001172323478385806
1738772920714062300,11.106062255859374,0.0010578075889497995,0.003288471372798085,0.00038509309524670243
1738772920724054300,11.11605419921875,0.001418665866367519,0.0031095067970454693,0.00045593318645842373
1738772920734045200,11.126045166015626,0.0020413128659129143,0.0034551850985735655,-0.0003483414766378701
1738772920744036400,11.136036376953125,0.0018809906905516982,0.0029883331153541803,0.0008857673965394497
1738772920754027300,11.14602734375,0.0004743089957628399,0.004791559185832739,0.0009238505735993385
1738772920764018200,11.15601806640625,0.0017835189355537295,0.004761998075991869,0.0014346449170261621
1738772920774009300,11.16600927734375,0.0006058691651560366,0.004517253953963518,0.0010998855577781796
1738772920784001300,11.176001220703125,0.002665025182068348,0.003421629313379526,0.0013630058383569121
1738772920793992200,11.1859921875,0.0001496696495451033,0.003238936420530081,0.0010138654615730047
1738772920803983000,11.195983154296876,0.0017696705181151628,0.0031675638165324926,0.00020719393796753138
1738772920813974300,11.205974365234376,0.001978728687390685,0.004187554586678743,0.00021491710504051298
1738772920823965200,11.215965087890625,0.0007408913807012141,0.0030658310279250145,0.00006338323146337643
1738772920833957400,11.225957275390625,0.002008556155487895,0.0036730316933244467,0.0008375641773454845
1738772920843948300,11.2359482421875,0.0028855351265519857,0.0033076461404561996,-0.00004340952364145778
1738772920853939200,11.245939208984375,0.0012804478174075484,0.004210990387946367,0.000031158982892520726
1738772920863930000,11.25593017578125,0.0011446266435086727,0.00401498144492507,0.0003920173039659858
1738772920873921300,11.26592138671875,0.0005776396137662232,0.004241084214299917,0.0003350256592966616
1738772920883912400,11.275912353515626,-0.0006095975404605269,0.0036943370942026377,0.0009715211344882846
1738772920893904100,11.285904052734375,0.0018306568963453174,0.004080495331436396,-0.00011265171633567661
1738772920903895300,11.295895263671875,0.0004239752306602895,0.0018335863715037704,0.0020639498252421618
1738772920913886200,11.30588623046875,0.0014152037911117077,0.0046421559527516365,0.0003635214816313237
1738772920923877000,11.315877197265625,0.0001203748834086582,0.004290618933737278,-0.0011494202772155404
1738772920933868300,11.325868408203124,0.001761148450896144,0.004759334959089756,-0.0005539375124499202
1738772920943859500,11.335859375,0.0014101437991485,0.003123621689155698,0.00034194986801594496
1738772920953851100,11.34585107421875,0.0012418320402503014,0.0029997846577316523,0.0012884372845292091
1738772920963842300,11.35584228515625,0.0017843178939074278,0.00430153775960207,0.0002980077115353197
1738772920973833200,11.365833251953125,0.0023811322171241045,0.004372644238173962,-0.0003249056462664157
1738772920983824100,11.37582421875,0.0011627360945567489,0.0024144218768924475,-0.0010950918076559901
1738772920993815300,11.385815185546875,0.0023132218047976494,0.004270112607628107,0.00034408041392453015
1738772921003806500,11.395806396484375,0.0016666061710566282,0.004799815360456705,-0.0003028014034498483
1738772921013798100,11.405798095703124,0.00047377636656165123,0.0024080302100628614,-0.0006905576447024941
1738772921023789300,11.415789306640624,0.0024578312877565622,0.003965446725487709,0.00009134642459684983
1738772921033780200,11.4257802734375,0.0025300029665231705,0.0026644926983863115,-0.0012535499408841133
1738772921043771400,11.435771484375,0.001278849900700152,0.004078098572790623,0.00123783724848181
1738772921053762600,11.445762451171875,0.0016889767721295357,0.002787797013297677,-0.000966727442573756
1738772921063753500,11.45575341796875,0.0020503676496446133,0.004048271104693413,-0.0008868326549418271
1738772921073745200,11.4657451171875,0.0008207862265408039,0.004089283756911755,-0.0009627327090129256
1738772921083736300,11.475736328125,0.0008580705034546554,0.003381948219612241,0.000841825210954994
1738772921093727500,11.4857275390625,0.0001901497016660869,0.0058080879971385,0.0004697816038969904
1738772921103718700,11.49571875,-0.0004247741890139878,0.004917527083307505,0.0021015002857893705
1738772921113709600,11.50570947265625,-0.00025300029665231705,0.004460528492927551,-0.0005281048361212015
1738772921123700700,11.51570068359375,0.0007073355955071747,0.003462375607341528,0.0006282397080212831
1738772921133692700,11.525692626953125,0.0007329019135795534,0.004092213232070208,-0.0004801679460797459
1738772921143683600,11.53568359375,0.0006503439508378506,0.004233094397932291,0.0012114719720557332
1738772921153674500,11.545674560546875,0.002502838848158717,0.004229099955409765,0.00018269284919369966
1738772921163665700,11.555665771484374,0.0011704593198373914,0.004624845460057259,-0.0008764463127590716
1738772921173656600,11.565656494140624,0.0014969628537073731,0.004323908127844334,0.0009536779834888875
1738772921183647700,11.575647705078126,0.00014381069922819734,0.0027811392210423946,0.00023702133330516517
1738772921193639700,11.5856396484375,0.0016170714516192675,0.006865363102406263,-0.001169127761386335
1738772921203630600,11.595630615234375,0.00221921200864017,0.004396879114210606,0.00027856664382852614
1738772921213621500,11.60562158203125,0.0010426276130601764,0.00452897185459733,0.001377653214149177
1738772921223612700,11.61561279296875,0.0017840516520664096,0.0029089709278196096,0.0002695118892006576
1738772921233603800,11.625603759765625,0.001585912425071001,0.005532450973987579,0.0012319782981649041
1738772921243594800,11.6355947265625,0.0015038870042189956,0.006376406643539667,0.00012516857532318681
1738772921253586700,11.645586669921874,0.0009843043517321348,0.0016847157385200262,0.000150202278746292
1738772921263577600,11.65557763671875,0.0015462313313037157,0.0017446368001401424,0.0008815063047222793
1738772921273568500,11.665568603515625,0.00020506340661086142,0.004429901950061321,-0.0002961435238830745
