time,seconds_elapsed,z,y,x
1738772909643831300,0.035831298828125,-0.0005327537655830383,-0.003188803791999817,0.0013885254738852382
1738772909653822200,0.045822265625,-0.0010619238018989563,0.002456299029290676,-0.0018703847890719771
1738772909663813400,0.0558134765625,0.0004012926947325468,0.00021020788699388504,0.0010288736084476113
1738772909673804300,0.06580419921875,-0.0012780966935679317,-0.002390901558101177,-0.0005181566812098026
1738772909683796200,0.075796142578125,-0.0011533518554642797,0.000907061155885458,-0.00019352893286850303
1738772909693787400,0.085787353515625,-0.0006548080709762871,0.0017795125022530556,0.0010307261254638433
1738772909703778300,0.0957783203125,-0.0002772432053461671,-0.0017604497261345387,0.0003320825344417244
1738772909713769200,0.105769287109375,0.0006154484581202269,0.0005831322632730007,0.00046044689952395856
1738772909723760000,0.115760009765625,0.0003877290291711688,-0.00032714265398681164,-0.0011138878762722015
1738772909733751300,0.125751220703125,0.0007539135403931141,-0.0007617706432938576,0.000389732769690454
1738772909743743200,0.1357431640625,-0.0010538114001974463,0.0009617242030799389,0.0007235665107145905
1738772909753734400,0.145734375,0.0007701877038925886,0.0002266918309032917,0.00029426495893858373
1738772909763725300,0.155725341796875,-0.00045458850217983127,-0.0005325144156813622,-0.000684289843775332
1738772909773716200,0.16571630859375,-0.0002881409600377083,-0.0016947179101407528,-0.0014483507256954908
1738772909783707100,0.17570703125,-0.00064343202393502,-0.0009166814852505922,-0.000881427840795368
1738772909793698300,0.1856982421875,0.0004322186578065157,0.0007262225262820721,-0.00009206688264384866
1738772909803690200,0.195690185546875,-0.00044322683243080974,-0.0008031160105019808,-0.0009258987265639007
1738772909813681200,0.20568115234375,0.0010606602299958467,-0.0009418667759746313,-0.00026170635828748345
1738772909823672300,0.21567236328125,0.00020607514306902885,-0.0019608617294579744,0.00016038413741625845
1738772909833663200,0.225663330078125,0.00023403833620250225,0.0007819277234375477,-0.0006742505356669426
1738772909843654100,0.235654052734375,0.0016723987646400928,0.0005642585456371307,0.00005267761298455298
1738772909853645300,0.245645263671875,0.0001703760353848338,-0.0005372250452637672,-0.00012602050264831632
1738772909863637200,0.25563720703125,0.0015902259619906545,0.0009515993297100067,-0.00022542857914231718
1738772909873628200,0.265628173828125,0.0010799641022458673,0.0003718291409313679,-0.0013303740415722132
1738772909883619300,0.275619384765625,0.001568690873682499,0.0004681609570980072,-0.000472364597953856
1738772909893610200,0.2856103515625,0.0002866452559828758,-0.00040162750519812107,-0.0004012582066934556
1738772909903601200,0.29560107421875,-0.0001226469175890088,0.0011039706878364086,-0.001312177861109376
1738772909913592300,0.30559228515625,-0.00014794687740504742,0.00032925745472311974,-0.00001601732219569385
1738772909923584300,0.315584228515625,0.0004159761592745781,-0.0006009091157466173,-0.00042198688606731594
1738772909933575200,0.3255751953125,-0.0016628874000161886,-0.0001068927813321352,-0.0005325080710463226
1738772909943566300,0.33556640625,0.0012770056491717696,-0.00031042611226439476,-0.00004878046456724405
1738772909953557200,0.34555712890625,-0.0011688416125252843,-0.00042174640111625195,0.00034643267281353474
1738772909963548200,0.355548095703125,0.0017838070634752512,0.0006084442138671875,0.0012814465444535017
1738772909973539300,0.365539306640625,0.0005198707804083824,-0.0009002361912280321,-0.0005979461711831391
1738772909983531300,0.37553125,0.0010364302434027195,-0.00010028830729424953,-0.0015403312863782048
1738772909993522200,0.385522216796875,-0.0005050074541941285,0.0008027895819395781,0.0011313519207760692
1738772910003513300,0.395513427734375,-0.0003493667463771999,-0.0005958289839327335,0.0018272643210366368
1738772910013504300,0.405504150390625,0.000008828355930745602,-0.0003702593967318535,-0.00017250336532015353
1738772910023495200,0.4154951171875,-0.00007879314944148064,-0.002067719819024205,-0.0006631057476624846
1738772910033486000,0.425486083984375,0.00037873792462050915,0.0011911902111023664,0.0007731369696557522
1738772910043478300,0.435478271484375,0.00005442544352263212,0.002212631981819868,-0.00013981158554088324
1738772910053469200,0.44546923828125,-0.0001610242761671543,-0.0013115291949361563,-0.0005326278624124825
1738772910063460400,0.45546044921875,-0.0001254791859537363,0.0009134814608842134,0.0005667173536494374
1738772910073451300,0.465451171875,0.0005973026854917407,0.000474059721454978,0.00005272726411931217
1738772910083442000,0.47544189453125,0.0005170650547370315,0.0005926031153649092,0.00031062151538208127
1738772910093434000,0.48543408203125,0.0017349285772070289,-0.0021637682802975178,-0.0010654337238520384
1738772910103425000,0.495425048828125,0.0002829203149303794,-0.0018445777241140604,0.0012933388352394104
1738772910113416000,0.505416015625,-0.0007487882394343615,0.00157252443023026,0.0010336806299164891
1738772910123406800,0.51540673828125,0.0006599674234166741,-0.0008971740026026964,0.0012759965611621737
1738772910133398000,0.52539794921875,-0.0005496403318829834,-0.0005251304246485233,-0.00028594734612852335
1738772910143389000,0.535388916015625,-0.0004961398080922663,0.0001314980909228325,-0.0013637024676427245
1738772910153380900,0.545380859375,-0.0013872334966436028,0.0025126300752162933,-0.0007144238334149122
1738772910163372000,0.5553720703125,-0.0002697668969631195,0.00027013011276721954,-0.0001594360510352999
1738772910173363000,0.565363037109375,-0.0010522035881876945,0.0003846460022032261,-0.0005242890911176801
1738772910183353900,0.575353759765625,0.0013353516114875674,0.0007950323633849621,0.0002739539777394384
1738772910193345000,0.585344970703125,0.0012930074008181691,0.001044037751853466,-0.0016381957102566957
1738772910203336000,0.5953359375,-0.0007843868806958199,0.000899037579074502,0.0012975400313735008
1738772910213328000,0.605327880859375,0.00030591117683798075,0.0010630886536091566,0.000560643442440778
1738772910223319000,0.615319091796875,-0.0009847762994468212,0.0005049626342952251,-0.0010070549324154854
1738772910233310000,0.62531005859375,0.0011955536901950836,-0.0015046587213873863,-0.0003130350960418582
1738772910243300900,0.63530078125,-0.0002681377809494734,0.0003377562388777733,-0.0004348609072621912
1738772910253292000,0.6452919921875,-0.0005823907558806241,0.0003500068560242653,-0.0003022354794666171
1738772910263283000,0.655282958984375,0.000502951443195343,-0.0008797678165137768,-0.002147367689758539
1738772910273275000,0.66527490234375,0.00033570488449186087,0.0009833797812461853,0.00047158478992059827
1738772910283266000,0.67526611328125,0.0015990828396752477,-0.0018081546295434237,0.0008267979137599468
1738772910293257000,0.685257080078125,-0.0005863071419298649,-0.00019055046141147614,-0.0010467360261827707
1738772910303248000,0.695247802734375,0.0008951257914304733,-0.001564177218824625,-0.00033634487772360444
1738772910313239000,0.705239013671875,0.0005012443289160728,0.001405247487127781,-0.00027482587029226124
1738772910323230000,0.71522998046875,-0.000963906932156533,-0.0019050128757953644,-0.0009442738373763859
1738772910333222000,0.725221923828125,-0.0002882629632949829,0.00027984450571238995,-0.002295295475050807
1738772910343213000,0.735213134765625,0.0004799187881872058,0.0002940273843705654,-0.00046841040602885187
1738772910353204000,0.745203857421875,-0.00036456953966990113,-0.0009464733302593231,0.0006559761823154986
1738772910363195000,0.75519482421875,-0.0009192914003506303,0.00030911760404706,-0.00017046424909494817
1738772910373185800,0.765185791015625,-0.00024151685647666454,-0.0018831964116543531,-0.0006293269107118249
1738772910383177000,0.775177001953125,-0.00037737510865554214,0.0017897128127515316,-0.00108667544554919
1738772910393169000,0.7851689453125,-0.0004732489469461143,-0.0003227067645639181,0.00014397126506082714
1738772910403160000,0.79516015625,0.00125028972979635,0.00016017956659197807,-0.000456130423117429
1738772910413151000,0.80515087890625,-0.0003111216356046498,-0.0005213231779634953,0.0008695911965332925
1738772910423142000,0.815141845703125,-0.00031097664032131433,0.0009936806745827198,0.00016274626250378788
1738772910433132800,0.8251328125,0.0010280606802552938,-0.0008676024153828621,-0.0010540520306676626
1738772910443125000,0.835125,-0.0019550356082618237,0.0001442781649529934,-0.00019474007422104478
1738772910453116000,0.845115966796875,-0.00025513977743685246,0.000521115493029356,0.0005607987404800951
1738772910463106800,0.85510693359375,0.00043875700794160366,-0.00036627985537052155,-0.00022593123139813542
1738772910473098000,0.865097900390625,-0.0007157232612371445,0.0023525413125753403,0.0006995172007009387
1738772910483089000,0.8750888671875,0.0010682974243536592,-0.0004043160006403923,0.0003506119828671217
1738772910493079800,0.885079833984375,0.0005002452526241541,-0.001298871822655201,-0.00026058347430080175
1738772910503072000,0.895072021484375,-0.0004754108958877623,0.0008054040372371674,0.00029628665652126074
1738772910513063000,0.90506298828125,0.00024151208344846964,-0.0008374997414648533,0.0010387760121375322
1738772910523053800,0.9150537109375,-0.001598921837285161,-0.0009134015999734402,-0.0009061190648935735
1738772910533045000,0.925044921875,0.00004131905734539032,-0.00023855664767324924,-0.0007686999160796404
1738772910543036000,0.935035888671875,-0.0015567624941468239,-0.0005991214420646429,-0.0004918594495393336
1738772910553028000,0.945028076171875,-0.000789505778811872,-0.00017647771164774895,-0.0011427360586822033
1738772910563019000,0.95501904296875,0.0005438769003376365,0.0006270250305533409,-0.00016802141908556223
1738772910573010000,0.965010009765625,0.0021212671417742968,-0.000479784794151783,-0.000696658855304122
1738772910583000800,0.975000732421875,-0.00012350035831332207,-0.000060703838244080544,-0.00025522225769236684
1738772910592992000,0.984991943359375,-0.0007879589684307575,0.00045195454731583595,-0.0003785266017075628
1738772910602983000,0.99498291015625,0.000020117382518947124,-0.0002523725852370262,0.0006180073251016438
1738772910612974800,1.004974853515625,-0.00007522373925894499,0.00021181628108024597,-0.0008667050278745592
1738772910622966000,1.014966064453125,0.001203850144520402,0.0004824744537472725,-0.00044160662218928337
1738772910632957000,1.02495703125,0.00015216786414384842,0.00029578711837530136,-0.0003305527789052576
1738772910642947800,1.03494775390625,-0.00004970224108546972,-0.0004097353667020798,-0.0020741841290146112
1738772910652939000,1.04493896484375,-0.00047367752995342016,-0.0004289101343601942,0.00023610820062458515
1738772910662930000,1.054929931640625,-0.0004113009781576693,-0.0005752760916948318,0.000003220920916646719
1738772910672921900,1.064921875,-0.0003860009601339698,0.0009946571663022041,0.0009284029947593808
1738772910682913000,1.0749130859375,-0.00005567469634115696,-0.00044212769716978073,-0.0019342389423400164
1738772910692904000,1.084904052734375,-0.000543565780390054,-0.0008336124010384083,-0.0015648584812879562
1738772910702894800,1.094894775390625,0.0008593392558395863,0.0003490219824016094,-0.0016760918078944087
1738772910712886000,1.104885986328125,-0.0003017988638021052,0.00012851227074861526,0.0006560384063050151
1738772910722878000,1.1148779296875,-0.000900329789146781,0.0009515699930489063,0.00024419015971943736
1738772910732868900,1.124868896484375,-0.0007900749333202839,0.0012008417397737503,0.0008665708592161536
1738772910742860000,1.134860107421875,0.00018987758085131645,-0.0006471520755439997,-0.001033141161315143
1738772910752851000,1.144850830078125,0.0006356907542794943,-0.00011904723942279816,0.0015194987645372748
1738772910762841900,1.154841796875,0.0007243149448186159,0.000951861497014761,-0.0008658473379909992
1738772910772832800,1.164832763671875,0.0003408197080716491,-0.000505686504766345,-0.0004418721073307097
1738772910782825000,1.174824951171875,0.000016695470549166203,-0.0011762785725295544,0.0003663673414848745
1738772910792815900,1.18481591796875,-0.0007657412788830698,0.0013364139012992382,-0.00017132486391346902
1738772910802807000,1.19480712890625,-0.0005061054835096002,0.0001855180598795414,0.000467548961751163
1738772910812798000,1.2047978515625,0.0003668786957859993,-0.0015183724462985992,-0.0007591030444018543
1738772910822788900,1.214788818359375,-0.0003200072096660733,-0.0002886068541556597,0.0001194740179926157
1738772910832779800,1.22477978515625,0.001692010904662311,-0.0004209659527987242,0.0000318560196319595
1738772910842772000,1.23477197265625,-0.000675874762237072,-0.0006698805373162031,0.00021353668125811964
1738772910852763000,1.244762939453125,0.0010176292853429914,-0.0006515048444271088,-0.0012227060506120324
1738772910862754000,1.254754150390625,-0.0019063162617385387,-0.0016427107620984316,-0.00043242634274065495
1738772910872745000,1.264744873046875,-0.0005342556396499276,0.0010627945885062218,-0.0002707724634092301
1738772910882735900,1.27473583984375,-0.001694421167485416,-0.00033786287531256676,0.0009385902667418122
1738772910892728000,1.28472802734375,0.0006337142549455166,-0.00018073641695082188,-0.0006811443017795682
1738772910902719000,1.294718994140625,-0.0006151318666525185,0.00011949799954891205,-0.000040727449231781065
1738772910912710000,1.3047099609375,0.0005705074872821569,-0.0020829360000789165,-0.0006141060148365796
1738772910922700800,1.31470068359375,0.001315348781645298,0.0007807535585016012,0.0001469871203880757
1738772910932692000,1.32469189453125,-0.0005627124919556081,0.0010100516956299543,0.0010900124907493591
1738772910942683000,1.334682861328125,-0.0015983544290065765,0.00006370013579726219,0.0005103065632283688
1738772910952675000,1.344675048828125,-0.00046651088632643223,-0.0008244640193879604,0.0006727594300173223
1738772910962666000,1.354666015625,-0.0007458043983206153,-0.0008757133036851883,0.0008902461850084364
1738772910972657000,1.364656982421875,-0.0012073301477357745,-0.0001971398014575243,-0.0005020544049330056
1738772910982647800,1.374647705078125,-0.00046463077887892723,0.00029313424602150917,-0.00041995150968432426
1738772910992639000,1.384638916015625,-0.0013099181232973933,-0.0012190085835754871,0.0010778103023767471
1738772911002631000,1.394630859375,-0.0013931365683674812,0.00039876019582152367,0.0009396580862812698
1738772911012621800,1.404621826171875,0.00039704027585685253,-0.0010233677458018064,-0.0012196330353617668
1738772911022613000,1.414613037109375,0.00026581226848065853,0.00012878794223070145,0.0007221759296953678
1738772911032604000,1.42460400390625,-0.00020902929827570915,0.0016193590126931667,0.00017116792150773108
1738772911042594800,1.4345947265625,0.00044097122736275196,0.0001003460492938757,0.000784286530688405
1738772911052586000,1.4445859375,-0.000249320175498724,0.00048091192729771137,0.0007709707133471966
1738772911062578000,1.454577880859375,-0.0005959602422080934,0.0005828819703310728,0.0007100278744474053
1738772911072568800,1.46456884765625,-0.0002955556847155094,-0.0013154190964996815,-0.00033126812195405364
1738772911082560000,1.47456005859375,-0.0010078956838697195,-0.000007695751264691353,0.001132490229792893
1738772911092550400,1.48455029296875,0.00015776988584548235,-0.0009107736404985189,0.000005440451786853373
1738772911102541600,1.49454150390625,0.001049779704771936,-0.0009285528212785721,-0.0007089221035130322
1738772911112532500,1.504532470703125,0.0012423262232914567,-0.0010816846042871475,-0.0004820207832381129
1738772911122524400,1.5145244140625,-0.0011652770917862654,0.0005452812183648348,0.001430718693882227
1738772911132515300,1.524515380859375,0.00234929658472538,0.0014046828728169203,-0.00015226428513415158
1738772911142506200,1.53450634765625,-0.0000708848237991333,-0.0005335465539246798,-0.00009743595728650689
1738772911152497400,1.544497314453125,0.0013744127936661243,0.0005437021609395742,-0.000013013748684898019
1738772911162488600,1.554488525390625,0.001078068744391203,-0.00021186517551541328,0.0001293992972932756
1738772911172480300,1.564480224609375,0.0011047003790736198,-0.0010691366624087095,0.00016801513265818357
1738772911182471400,1.574471435546875,-0.0006761305849067867,0.0011842590756714344,0.00033281551441177726
1738772911192462300,1.58446240234375,-0.0006226010737009346,-0.000736412825062871,0.0006111158872954547
1738772911202453200,1.594453369140625,-0.0017422226956114173,-0.00028662686236202717,-0.000421701290179044
1738772911212444400,1.6044443359375,0.0005305189406499267,0.00039993622340261936,0.0003277122159488499
1738772911222435600,1.614435546875,0.0004316039849072695,0.0005803296808153391,0.00023315593716688454
1738772911232427300,1.62442724609375,0.0009408002952113748,-0.0008990562055259943,0.0006403533043339849
1738772911242418400,1.63441845703125,0.0003144630463793874,-0.0001611080951988697,0.00043297442607581615
1738772911252409300,1.644409423828125,0.0001339007867500186,-0.00280962185934186,-0.00036597391590476036
1738772911262400500,1.654400390625,0.00040827866178005934,-0.0013023109640926123,0.0006265160627663136
1738772911272391700,1.6643916015625,0.001169676543213427,0.0008290167897939682,-0.0004949410213157535
1738772911282382600,1.674382568359375,-0.0007656026864424348,-0.001100241905078292,0.0007126806303858757
1738772911292374300,1.684374267578125,0.00041497661732137203,-0.001755113247781992,-0.000005307578248903155
1738772911302365400,1.694365478515625,0.000012658885680139065,0.0007453074213117361,-0.00022202913532964885
1738772911312356400,1.7043564453125,0.0002805729163810611,0.0014198862481862307,-0.0005227000219747424
1738772911322347500,1.714347412109375,-0.0013975010951980948,-0.0018279894720762968,0.00042388454312458634
1738772911332338400,1.72433837890625,-0.00019348599016666412,-0.000956603093072772,0.0001895263558253646
1738772911342330400,1.734330322265625,0.00017687969375401735,0.0006430801004171371,-0.0003790050686802715
1738772911352321300,1.7443212890625,0.0007790203671902418,-0.00003868923522531986,-0.0008144319290295243
1738772911362312400,1.7543125,0.0009549617534503341,-0.001523253507912159,-0.0009482926689088345
1738772911372303400,1.764303466796875,-0.0014328284887596965,-0.0016614715568721294,0.0005787638947367668
1738772911382294500,1.77429443359375,0.000920973252505064,-0.00021231151185929775,-0.00032766556250862777
1738772911392285400,1.784285400390625,-0.0004944967804476619,-0.0013516116887331009,-0.0004267351469025016
1738772911402277400,1.79427734375,0.0007898010080680251,-0.0014489355962723494,-0.0013799291336908937
1738772911412268300,1.804268310546875,0.0006225545657798648,0.0002016918733716011,-0.0001024107332341373
1738772911422259500,1.814259521484375,-0.0004660384147427976,0.0003439001739025116,-0.0013460793998092413
1738772911432250600,1.824250732421875,-0.0006956028519198298,0.000722068827599287,-0.0003742919070646167
1738772911442241500,1.834241455078125,-0.00023966567823663354,-0.000777099747210741,0.0005932386266067624
1738772911452232400,1.844232421875,0.00033610977698117495,-0.0007712407968938351,-0.000978559022769332
1738772911462224400,1.854224365234375,-0.0003853884991258383,0.0020455324556678534,-0.00017051932809408754
1738772911472215300,1.86421533203125,-0.0018924714531749487,-0.0004381313920021057,-0.0011457689106464386
1738772911482206500,1.87420654296875,0.0008262457558885217,-0.0008185678161680698,-0.00016657727246638387
1738772911492197600,1.88419775390625,-0.00007523433305323124,0.0007471046410501003,0.0007583386031910777
1738772911502188500,1.8941884765625,-0.00012357707601040602,0.00007418962195515633,0.00023624039022251964
1738772911512180200,1.90418017578125,0.0005640510935336351,-0.0007378081791102886,-0.0016942850779742002
1738772911522171400,1.91417138671875,-0.00012553727719932795,0.0008712464477866888,0.000003474822733551264
1738772911532162300,1.924162353515625,-0.0011114395456388593,0.0007194464560598135,-0.0008945430745370686
1738772911542153500,1.934153564453125,-0.00022347818594425917,-0.0011012614704668522,0.000036817335058003664
1738772911552144600,1.94414453125,-0.0008242873009294271,0.0025406114291399717,0.0004863588837906718
1738772911562135600,1.954135498046875,0.0015397188253700733,0.000003332505002617836,-0.0016497273463755846
1738772911572127200,1.964127197265625,-0.00036550662480294704,-0.0009103980846703053,-0.000910433940589428
1738772911582118400,1.974118408203125,-0.0010529141873121262,0.0015320267993956804,-0.0013928323751315475
1738772911592109600,1.984109619140625,-0.000045706634409725666,0.0009839481208473444,-0.0009113328997045755
1738772911602100500,1.9941005859375,-0.00020169303752481937,0.0004365046042948961,0.0007519155042245984
1738772911612091600,2.004091552734375,-0.0004277953994460404,-0.001129434211179614,-0.0010172224137932062
1738772911622082600,2.01408251953125,0.001211140537634492,0.0007519118953496218,-0.00010486019891686738
1738772911632074200,2.02407421875,0.0017775946762412786,0.00034737796522676945,0.00020459911320358515
1738772911642065400,2.0340654296875,0.0011035591596737504,0.0002788796555250883,0.00043022094178013504
1738772911652056600,2.044056640625,-0.0008032642654143274,0.0003297457005828619,-0.0004672643553931266
1738772911662047500,2.054047607421875,0.0008127288892865181,0.00028359820134937763,0.00042509130435064435
1738772911672038700,2.06403857421875,0.001515004551038146,0.0007203563582152128,-0.0008724007639102638
1738772911682029600,2.074029541015625,0.0007288036867976189,0.0012319746892899275,-0.0013098004274070263
1738772911692021200,2.084021240234375,0.0007940512150526047,-0.0005451526958495378,-0.0011462824186310172
1738772911702012400,2.094012451171875,0.00018566881772130728,-0.000490645645186305,-0.0008428208529949188
1738772911712003600,2.104003662109375,-0.0007978365174494684,-0.0009543020278215408,-0.00025772437220439315
1738772911721994500,2.113994384765625,0.0006334380013868213,0.00024009612388908863,-0.001445671310648322
1738772911731985400,2.1239853515625,0.0003415554529055953,0.0005117387045174837,-0.0015474040992558002
1738772911741977300,2.133977294921875,0.0003207294503226876,-0.0003437947016209364,0.001461370731703937
1738772911751968300,2.14396826171875,-0.0007993960753083229,-0.0006897393614053726,0.0007516383193433285
1738772911761959700,2.153959716796875,0.0012495494447648525,0.0004017248284071684,-0.0020082066766917706
1738772911771950600,2.16395068359375,0.001393093727529049,-0.0005985586903989315,-0.0020699920132756233
1738772911781941500,2.17394140625,0.00007270975038409233,-0.0006051086820662022,-0.00015310476010199636
1738772911791932400,2.183932373046875,-0.00014194101095199585,-0.0008141668513417244,-0.0007674960070289671
1738772911801924400,2.19392431640625,-0.00039897928945720196,-0.0001985600683838129,-0.00016105137183330953
1738772911811915500,2.20391552734375,0.0004537649219855666,0.0015143852215260267,0.000484498857986182
1738772911821906400,2.213906494140625,0.0001146246213465929,-0.001214682124555111,-0.0007415066938847303
1738772911831897600,2.223897705078125,0.00006615510210394859,0.0005904084537178278,-0.0008818552596494555
1738772911841888500,2.233888427734375,-0.00008516944944858551,0.000991735141724348,0.0011082002893090248
1738772911851879400,2.24387939453125,0.00008527294266968966,-0.0002202691975980997,0.00009247056732419878
1738772911861871400,2.253871337890625,-0.0004982463433407247,-0.0003506750799715519,-0.0003642656374722719
1738772911871862500,2.263862548828125,-0.001162971369922161,0.00003228732384741306,0.0008719736943021417
1738772911881853400,2.273853515625,0.0009846423054113984,0.0004142248071730137,-0.00025412216200493276
1738772911891844600,2.2838447265625,0.000451477593742311,-0.00013864762149751186,0.00015041200094856322
1738772911901835500,2.29383544921875,-0.00048100744606927037,-0.0001319416332989931,0.0000960700708674267
1738772911911827500,2.303827392578125,0.0008074298966675997,0.0007642118725925684,0.0003943440970033407
1738772911921818400,2.313818359375,-0.0003435289836488664,-0.00047839689068496227,0.0008962116553448141
1738772911931809500,2.3238095703125,0.0012421171413734555,0.0004140282981097698,-0.0003347013844177127
1738772911941800400,2.333800537109375,-0.0006637125043198466,-0.0014699057210236788,-0.00023459712974727154
1738772911951791600,2.34379150390625,0.001866823178716004,0.0002094837836921215,0.0008541031274944544
1738772911961782500,2.353782470703125,-0.00040010438533499837,0.0017820324283093214,0.0005937290843576193
1738772911971774500,2.3637744140625,0.0001647520111873746,-0.000978067982941866,-0.00008883910049917176
1738772911981765600,2.373765625,0.0004628351889550686,-0.0011758701875805855,-0.00010823514458024874
1738772911991756500,2.383756591796875,-0.001886072801426053,-0.00021100696176290512,-0.0011521943379193544
1738772912001747500,2.39374755859375,-0.0007415211293846369,-0.001041505252942443,0.00032164360163733363
1738772912011738600,2.403738525390625,0.0004832666600123048,-0.0010348472278565168,0.00025000458117574453
1738772912021730300,2.413730224609375,-0.001617478090338409,-0.001072524581104517,-0.0015720408409833908
1738772912031721500,2.423721435546875,-0.0009889721404761076,0.0010585370473563671,0.0003140097251161933
1738772912041712600,2.433712646484375,0.0013675772352144122,0.00009653205052018166,-0.0004408534150570631
1738772912051703600,2.44370361328125,-0.001167485723271966,0.0010635259095579386,0.00045556662371382117
1738772912061694500,2.453694580078125,0.0013315564719960093,-0.00024369009770452976,-0.00007975741755217314
1738772912071685600,2.463685546875,0.0006383357103914022,-0.0007241242565214634,-0.0018598141614347696
1738772912081677300,2.47367724609375,-0.0000022032763808965683,-0.001134935300797224,-0.0012154660653322935
1738772912091668500,2.48366845703125,0.001043886411935091,-0.00030855624936521053,0.00027989892987534404
1738772912101659600,2.49365966796875,-0.00014984526205807924,0.0012643532827496529,-0.00028595770709216595
1738772912111650800,2.50365087890625,0.00007226236630231142,0.00032851891592144966,0.0009771796176210046
1738772912121641700,2.513641845703125,0.0006732749752700329,0.0009214619640260935,-0.00002393790055066347
1738772912131633700,2.523633544921875,-0.0010468608234077692,0.0005233192350715399,0.0011606360785663128
1738772912141624600,2.53362451171875,0.0018326231511309743,0.0006775280926376581,0.00010312788072042167
1738772912151615700,2.54361572265625,0.0011849425500258803,-0.0007230283226817846,0.0008011424215510488
1738772912161607000,2.55360693359375,-0.0006662884261459112,0.0013463215436786413,-9.292416507378221e-7
1738772912171597800,2.563597900390625,0.0017569218762218952,0.0013031780254095793,-0.0004600582178682089
1738772912181589500,2.573589599609375,-0.0066987196914851665,0.0019870582036674023,-0.0010933191515505314
1738772912191580700,2.58358056640625,0.10606351494789124,-0.03923334926366806,-0.011858881451189518
1738772912201571600,2.593571533203125,0.0009249032009392977,-0.008703319355845451,-0.024937007576227188
1738772912211562800,2.603562744140625,-0.0007355777779594064,0.012826206162571907,0.0145235825330019
1738772912221554000,2.613553955078125,-0.00020723522175103426,0.0035697484854608774,0.008906278759241104
1738772912231545600,2.623545654296875,0.0017400681972503662,0.001891424646601081,0.0034816854167729616
1738772912241536500,2.63353662109375,-0.06155150383710861,0.017245260998606682,0.012935912236571312
1738772912251527700,2.643527587890625,0.04962269216775894,-0.011666548438370228,-0.006442046724259853
1738772912261518600,2.6535185546875,-0.05182638391852379,0.018755745142698288,0.0009818208636716008
1738772912271509800,2.663509765625,0.05498741194605827,-0.00695894006639719,-0.005057695787400007
1738772912281500700,2.673500732421875,-0.05564483255147934,0.010974652133882046,0.005222438368946314
1738772912291492600,2.68349267578125,0.054975420236587524,-0.00948241911828518,-0.006451528053730726
1738772912301483500,2.6934833984375,-0.055354710668325424,0.015450747683644295,0.0036831784527748823
1738772912311474700,2.703474609375,0.057272233068943024,-0.011279665865004063,-0.006918599363416433
1738772912321465900,2.7134658203125,-0.05403416231274605,0.009401146322488785,0.004590836353600025
1738772912331456800,2.723456787109375,0.05815975368022919,-0.011003727093338966,-0.006014936603605747
1738772912341448700,2.73344873046875,-0.016575263813138008,0.00882958248257637,-0.0070649622939527035
1738772912351439600,2.743439697265625,0.004580887965857983,-0.0036499910056591034,0.00008748953405302018
1738772912361430500,2.753430419921875,0.0005718253087252378,0.000703528756275773,-0.0003035213449038565
1738772912371421700,2.763421630859375,0.000980354263447225,0.0010494731832295656,-0.00007662001007702202
1738772912381412900,2.773412841796875,0.0015476003754884005,0.0008192386012524366,-0.0007024004007689655
1738772912391403800,2.78340380859375,-0.00020795536693185568,-0.00049156928434968,-0.0006131844711489975
1738772912401395700,2.793395751953125,-0.00023901235545054078,-0.001416096230968833,0.0006417461554519832
1738772912411386600,2.80338671875,-0.0003719040541909635,0.00006515393033623695,0.00019460139446891844
1738772912421377500,2.81337744140625,-0.0012894580140709877,0.0012854293454438448,0.001012879190966487
1738772912431368700,2.82336865234375,-0.0002761251525953412,-0.0004959593061357737,0.0007159367087297142
1738772912441360000,2.83335986328125,-0.0007900034543126822,-0.0008315525483340025,-0.0009770873002707958
1738772912451351600,2.8433515625,0.0011096294037997723,0.0005266598891466856,-0.0003243464743718505
1738772912461342700,2.8533427734375,-0.00228924211114645,0.0004058270715177059,0.00044968159636482596
1738772912471333600,2.863333740234375,-0.00037283141864463687,-0.0003017750568687916,0.0003253119648434222
1738772912481324800,2.87332470703125,-0.00037103629438206553,0.0018999665044248104,0.0006080319872125983
1738772912491315700,2.883315673828125,0.0007432303391396999,0.0003113909624516964,0.00042853489867411554
1738772912501307600,2.8933076171875,0.00047558266669511795,0.00039261719211935997,0.0012892686063423753
1738772912511298600,2.903298583984375,0.00008622847963124514,-0.0012638689950108528,0.0009228176204487681
1738772912521289500,2.91328955078125,0.0005886919097974896,-0.00046149385161697865,0.0003227577544748783
1738772912531280600,2.92328076171875,0.0010014820145443082,0.00151537056080997,-0.000984055339358747
1738772912541271800,2.933271728515625,-0.000777924433350563,0.00020413566380739212,0.0006339701940305531
1738772912551263700,2.943263671875,-0.0011920459801331162,0.0018896502442657948,0.0008334409794770181
1738772912561254700,2.953254638671875,0.00003386673051863909,-0.00017558084800839424,-0.0003661056107375771
1738772912571245600,2.96324560546875,0.0006346759619191289,0.0005144441965967417,0.00029595624073408544
1738772912581236500,2.973236572265625,-0.0004465745878405869,-0.0006273905746638775,0.0014816580805927515
1738772912591227600,2.9832275390625,-0.0004609556635841727,0.0003625063691288233,-0.00038148945895954967
1738772912601218800,2.99321875,0.00022716110106557608,-0.0005571288056671619,0.0007886323146522045
1738772912611210500,3.00321044921875,0.0015105382772162557,0.0003771083429455757,0.00141181203071028
1738772912621201700,3.01320166015625,-0.0004889288102276623,-0.00014786352403461933,0.00019465408695396036
1738772912631192600,3.023192626953125,0.0014692936092615128,0.001076125307008624,-0.0010788695653900504
1738772912641183500,3.03318359375,0.0004525939002633095,-0.0005066075827926397,0.0008629512740299106
1738772912651174700,3.043174560546875,0.0005143792368471622,-0.0014030274469405413,0.0013100960059091449
1738772912661166600,3.05316650390625,-0.0004214450600557029,0.001258642179891467,0.0009419426787644625
1738772912671157500,3.063157470703125,0.0008552743820473552,0.0013270850758999586,0.0011238366132602096
1738772912681148700,3.073148681640625,-0.0004976570489816368,-0.0008098760154098272,0.0012667833361774683
1738772912691139600,3.0831396484375,0.000715412781573832,0.0002543230075389147,0.0000609040871495381
1738772912701130800,3.093130859375,-0.00031712872441858053,0.0011675618588924408,0.00019785236509051174
1738772912711122700,3.103122802734375,0.00080246408469975,0.00015982147306203842,0.00048254424473270774
1738772912721113600,3.113113525390625,-0.0008294869330711663,-0.00032118591479957104,0.0003700970846693963
1738772912731104500,3.1231044921875,-0.00011895550414919853,-0.0010066835675388575,-0.00015268143033608794
1738772912741095700,3.133095703125,-0.00018507859203964472,-0.0002306685782968998,0.00002064634463749826
1738772912751086600,3.143086669921875,-0.00010917847976088524,0.0007770713418722153,0.00046006793854758143
1738772912761077800,3.153077880859375,0.0012177368625998497,-0.0005151489749550819,-0.0005987542681396008
1738772912771069700,3.163069580078125,0.00006378907710313797,0.0001349286176264286,0.0013184553245082498
1738772912781060600,3.173060546875,0.0018053516978397965,0.00009345635771751404,0.00007407127122860402
1738772912791051500,3.183051513671875,-0.0002783055533654988,0.0005800158251076937,-0.000491850427351892
1738772912801042700,3.193042724609375,0.0007966316770762205,0.0005788265261799097,-0.00010095258767250925
1738772912811033600,3.20303369140625,0.001074932049959898,-0.000578050734475255,-0.0010101557709276676
1738772912821025500,3.213025634765625,-0.0009111344115808606,0.0012572344858199358,0.0002134507376467809
1738772912831016700,3.2230166015625,0.0006015411345288157,0.00005641533061861992,0.00014101275883149356
1738772912841007600,3.233007568359375,-0.00042356940684840083,-0.0003652130253612995,0.0006199082126840949
1738772912850998500,3.24299853515625,-0.0015077423304319382,0.0002798044588416815,0.0010806351201608777
1738772912860989700,3.25298974609375,-0.000750004081055522,0.00014201365411281586,-0.001073754276148975
1738772912870980900,3.26298095703125,0.0022311382927000523,0.0009034113027155399,0.0005736772436648607
1738772912880972500,3.27297265625,0.0009311211761087179,0.0004802893381565809,-0.0019345390610396862
1738772912890963700,3.282963623046875,-0.0006691722082905471,0.0006595200393348932,0.00007428340904880315
1738772912900954600,3.29295458984375,-0.0005438587395474315,-0.00010328320786356926,-0.001521328929811716
1738772912910945500,3.302945556640625,-0.0006160304183140397,0.0006996600423008204,0.0005426209536381066
1738772912920936700,3.312936767578125,0.0005899951793253422,0.0005557714030146599,-0.0002586887567304075
1738772912930928600,3.3229287109375,0.0010046493262052536,-0.00027060764841735363,-0.0007902557263150811
1738772912940919600,3.33291943359375,0.0014062710106372833,-0.0003462722525000572,0.000043706357246264815
1738772912950910700,3.34291064453125,-0.00008323497604578733,0.0014750638511031866,-0.000052966388466302305
1738772912960901600,3.352901611328125,0.00023703626357018948,-0.00007066759280860424,-0.0010423128260299563
1738772912970892500,3.362892578125,0.0008844507392495871,-0.0004416459705680609,0.00007701371214352548
1738772912980883700,3.3728837890625,0.0006698756478726864,0.001547974068671465,-0.00028803577879443765
1738772912990875600,3.382875732421875,-0.0008507892489433289,0.0015162825584411621,6.508780643343925e-7
1738772913000866600,3.392866455078125,-0.00022610154701396823,-0.00016274303197860718,-0.0009996937587857246
1738772913010857500,3.402857421875,0.000029561924748122692,-0.00017818924970924854,0.001207267865538597
1738772913020848600,3.4128486328125,0.0008478907402604818,0.0002835141494870186,0.0011403848184272647
1738772913030839800,3.42283984375,-0.0010488126426935196,-0.000577219296246767,-0.0017068006563931704
1738772913040831700,3.432831787109375,0.0007992963073775172,-0.0005046192090958357,-0.0002990668872371316
1738772913050822700,3.44282275390625,0.00004056165926158428,-0.0003166000824421644,-0.0021441050339490175
1738772913060813600,3.4528134765625,0.0011655448470264673,0.0005776425823569298,0.0004572116304188967
1738772913070804500,3.462804443359375,-0.00005258503369987011,-0.00021438137628138065,0.0016574983019381762
1738772913080795600,3.472795654296875,-0.00020313780987635255,-0.000951326685026288,-0.0017787152901291847
1738772913090786800,3.482786865234375,0.00038675242103636265,0.00024043815210461617,-0.0011560684069991112
1738772913100778500,3.492778564453125,-0.0001234638039022684,0.0005349870771169662,-0.0003918210859410465
1738772913110769700,3.502769775390625,0.0001399228349328041,0.0006614872254431248,0.00027982814935967326
1738772913120760600,3.512760498046875,0.0007061829091981053,-0.0010436461307108402,0.0006242633098736405
1738772913130751500,3.52275146484375,0.00027554971165955067,0.0012432103976607323,-0.0005834802286699414
1738772913140742700,3.53274267578125,-0.0005392588791437447,0.000027401139959692955,-0.001907462370581925
1738772913150734600,3.542734619140625,-0.00032673863461241126,0.0002540361601859331,0.00008325045928359032
1738772913160725500,3.5527255859375,0.0003173010190948844,-0.0007853270508348942,0.0005139376735314727
1738772913170716700,3.562716552734375,-0.00025953963631764054,0.0009886045008897781,-0.00020271894754841924
1738772913180707600,3.57270751953125,-0.000023300410248339176,0.0007153104525059462,-0.00015379986143670976
1738772913190698500,3.582698486328125,0.00047337915748357773,0.000556053826585412,-0.0013716634130105376
1738772913200690700,3.592690673828125,0.0010938862105831504,-0.001764372456818819,-0.0000790384947322309
1738772913210681600,3.602681640625,0.0013990845764055848,0.00019305082969367504,-0.00018716283375397325
1738772913220672500,3.612672607421875,-0.00043368979822844267,0.0010964411776512861,0.0006171248387545347
1738772913230663700,3.62266357421875,0.0008805801626294851,0.00005487911403179169,0.0011015537893399596
1738772913240654600,3.632654541015625,0.0012005148455500603,-0.0011845931876450777,0.0004350160015746951
1738772913250645800,3.642645751953125,-0.0020181816071271896,0.0027060185093432665,0.00043554860167205334
1738772913260637700,3.6526376953125,0.0004580222303047776,0.0009617926552891731,-0.0006931326352059841
1738772913270628600,3.662628662109375,0.0015690929722040892,-0.0013961703516542912,0.0001391052210237831
1738772913280619500,3.67261962890625,0.0006412520306184888,-0.00021421932615339756,0.00008579727727919817
1738772913290610700,3.682610595703125,0.00024630525149405,-0.0003361920826137066,-0.0015746837016195059
1738772913300601600,3.6926015625,-0.0009686905541457236,-0.0008569036144763231,-0.000026585941668599844
1738772913310593500,3.702593505859375,0.00007766543421894312,-0.00077008455991745,-0.001017548143863678
1738772913320584700,3.712584716796875,-0.0011989782797172666,-0.0006961328908801079,-0.001669866032898426
1738772913330575600,3.72257568359375,-0.0007773999241180718,-0.0012926808558404446,-0.001044822158291936
1738772913340566500,3.73256640625,-0.0010432060807943344,0.00013053137809038162,-0.0009681627270765603
1738772913350557700,3.7425576171875,-0.0008988627814687788,-0.00023192493245005608,-0.00006109007517807186
1738772913360549600,3.752549560546875,0.0001929175341501832,-0.000059124547988176346,0.0002647446235641837
1738772913370540500,3.76254052734375,0.001204119878821075,-0.0006562052294611931,0.0004016311140730977
1738772913380531700,3.77253173828125,-0.0003115162253379822,0.00021331384778022766,-0.00031961346394382417
1738772913390522600,3.782522705078125,-0.0012345678405836225,0.0015432965010404587,0.0003565631341189146
1738772913400513500,3.792513427734375,-0.00007396447472274303,-0.00027558067813515663,0.0007637154776602983
1738772913410504700,3.802504638671875,-0.0006641210056841373,0.0000546514056622982,-0.0007702653529122472
1738772913420496600,3.81249658203125,0.0014013235922902822,0.0016504062805324793,-0.002610014285892248
1738772913430487600,3.822487548828125,0.0005610963562503457,0.00019072764553129673,-0.00039586235652677715
1738772913440478700,3.832478759765625,0.0003654289757832885,-0.0005553869996219873,0.00038427943945862353
1738772913450469600,3.8424697265625,0.001071965554729104,0.0018419907428324223,0.00038001840584911406
1738772913460460500,3.85246044921875,-0.0007687843753956258,-0.00040307827293872833,0.0005572126246988773
1738772913470452700,3.86245263671875,-0.00015838781837373972,-0.0005117352120578289,-0.001353871775791049
1738772913480443600,3.872443603515625,-0.0005005997372791171,0.00043004145845770836,0.0014474752824753523
1738772913490434600,3.8824345703125,0.001014206325635314,0.0010638739913702011,0.0015593280550092459
1738772913500425700,3.89242578125,0.0005813007010146976,-0.0012116485740989447,-0.00005270427209325135
1738772913510416600,3.902416748046875,0.0004337616264820099,-0.0014284299686551094,0.0005813943571411073
1738772913520407600,3.912407470703125,-0.0011384810786694288,-0.0009640841744840145,0.00002996646799147129
1738772913530399700,3.922399658203125,-0.0009272923925891519,-0.00006713136099278927,0.00033622997580096126
1738772913540390700,3.932390625,0.0009002853184938431,-0.0008216588757932186,-0.0009268323774449527
1738772913550381600,3.942381591796875,-0.0015831125201657414,0.00005931477062404156,0.0016638906672596931
1738772913562245600,3.95424560546875,-0.000002316432073712349,-0.00009149662218987942,0.0005624780897051096
1738772913572236800,3.96423681640625,0.0006000905996188521,0.0006922718603163958,-0.00010171422036364675
1738772913582228700,3.974228759765625,0.0003559186588972807,-0.0005557974800467491,-0.00030473637161776423
1738772913592219600,3.9842197265625,0.0007476696046069264,0.0010578115470707417,0.001284371828660369
1738772913602210800,3.9942109375,-0.00020157377002760768,0.00015937024727463722,0.0005523182917386293
1738772913612201700,4.00420166015625,0.001921498216688633,0.0005386047996580601,-0.00008763925870880485
1738772913622192600,4.014192626953125,-0.00011785724200308323,0.00041451817378401756,-0.0013325874460861087
1738772913632184800,4.024184814453125,-0.000005738227628171444,-0.0008685931097716093,-0.000675851886626333
1738772913642175700,4.03417578125,0.00017025345005095005,-0.0008661092724651098,0.0007727538468316197
1738772913652166700,4.044166748046875,-0.0005099179106764495,-0.0005294857546687126,0.0001399867469444871
1738772913662157800,4.05415771484375,-0.0013312777737155557,-0.0004569839220494032,-0.00006655463948845863
1738772913672148700,4.064148681640625,0.000619221362285316,0.0005805834662169218,-0.00003539564204402268
1738772913682139600,4.0741396484375,0.00020175264216959476,-0.002546971896663308,0.0006986374501138926
1738772913692131800,4.0841318359375,0.0009666124824434519,0.000621657120063901,-0.00015570459072478116
1738772913702122800,4.094122802734375,-0.00023197394330054522,0.0008930647745728493,-0.00005029881140217185
1738772913712113700,4.10411376953125,-0.000047416891902685165,-0.0003887144848704338,-0.0008764113299548626
1738772913722104800,4.114104736328125,-0.0012311587342992425,-0.00026656570844352245,0.0003782883286476135
1738772913732095700,4.124095703125,0.0005845844279974699,-0.0005762914661318064,0.0005386106204241514
1738772913742087700,4.134087646484375,-0.0005109901539981365,-0.001064814394339919,-0.0005151607329025865
1738772913752078800,4.144078857421875,0.000796089181676507,-0.0020323407370597124,0.000610823801252991
1738772913762069800,4.15406982421875,0.0010995460906997323,-0.0010562108363956213,0.0003176337922923267
1738772913772060700,4.164060791015625,0.001869998755864799,0.00104315928183496,0.0003613096196204424
1738772913782051800,4.1740517578125,-0.00031560868956148624,-0.0005932222120463848,0.00008977961260825396
1738772913792042800,4.184042724609375,-0.00042826036224141717,0.00022783060558140278,-0.000855908845551312
1738772913802034700,4.19403466796875,0.0010351277887821198,0.0006755092181265354,0.001138562336564064
1738772913812025900,4.20402587890625,0.0013238145038485527,0.00015672529116272926,-0.0004087343404535204
1738772913822016800,4.214016845703125,0.0007609740132465959,-0.00032931030727922916,0.00038973212940618396
1738772913832007700,4.224007568359375,-0.0002630113740451634,0.00008214800618588924,-0.00010827896767295897
1738772913841998600,4.23399853515625,0.0007862137863412499,-0.000597445759922266,0.00007094675675034523
1738772913851990800,4.24399072265625,0.0005441324319690466,-0.001380415167659521,-0.0007770037045702338
1738772913861981700,4.253981689453125,-0.000636792101431638,0.0007657264359295368,-0.00032982754055410624
1738772913871972900,4.263972900390625,0.0013528554700314999,0.0023862598463892937,-0.0010574031621217728
1738772913881963800,4.2739638671875,-0.00024200615007430315,0.0009318238589912653,0.0004189902392681688
1738772913891954700,4.28395458984375,0.0011260595638304949,0.000210906146094203,-0.0011988801416009665
1738772913902570800,4.29457080078125,0.00007833808194845915,0.00032496172934770584,0.00007728056516498327
1738772913912561700,4.304561767578125,0.00010763283353298903,0.0003265594132244587,-0.0005115443491376936
1738772913922553900,4.314553955078125,-0.00041257060365751386,-0.0008258277084678411,-0.0005470564938150346
1738772913932544800,4.324544677734375,-0.0005816813791170716,0.0006985659711062908,0.0016047775279730558
1738772913942535700,4.33453564453125,-0.00004959979560226202,0.00033826963044703007,-0.0007489568088203669
1738772913952526800,4.34452685546875,-0.00018062733579427004,0.00009885127656161785,0.0004044582601636648
1738772913962517800,4.354517822265625,0.0008386009139940143,0.001666957512497902,-0.00005129238707013428
1738772913972509700,4.364509765625,-0.00041974266059696674,0.0015361965633928776,-0.00003930815728381276
1738772913982500900,4.3745009765625,-0.0013724443269893527,0.0007126128766685724,0.00001935139880515635
1738772913992491800,4.38449169921875,-0.0007396772271022201,-0.0007907415274530649,-0.00006720135570503771
1738772914002482700,4.394482666015625,-0.00015631923452019691,-0.0008380613289773464,-0.0011774926679208875
1738772914012473600,4.4044736328125,-0.001388297532685101,0.0009606375824660063,-0.0018779040547087789
1738772914022465800,4.4144658203125,-0.00011725863441824913,0.0013553784228861332,-0.0003569853724911809
1738772914032456700,4.424456787109375,-0.0008134089293889701,-0.0005122963339090347,-0.0009210428688675165
1738772914042448000,4.43444775390625,0.001213385839946568,0.0003142869099974632,0.0006598854088224471
1738772914052438800,4.444438720703125,-0.0010452410206198692,-0.000003960682079195976,0.00011873111361637712
1738772914062429700,4.4544296875,0.0003886582562699914,-0.0001056380569934845,-0.00174923415761441
1738772914072422000,4.464421875,-0.0013168301666155457,0.000270133838057518,-0.00024481440777890384
1738772914082412800,4.474412841796875,-0.0011250595562160015,-0.0009219562634825706,0.0005673866253346205
1738772914092404200,4.484404296875,0.0004984034458175302,-0.00030889641493558884,-0.00007310361252166331
1738772914102395400,4.4943955078125,0.00037083798088133335,0.000924000283703208,0.0002561565488576889
1738772914112386300,4.50438623046875,0.0020297211594879627,-0.00003420514985918999,-0.00013985548866912723
1738772914122377200,4.514377197265625,0.0027043905574828386,-0.0007865771185606718,-0.0001499924110248685
1738772914132369200,4.524369140625,-0.0005268227541819215,-0.00038230931386351585,0.00045028410386294127
1738772914142360300,4.5343603515625,-0.0005306428647600114,-0.000005436595529317856,-0.0011254504788666964
1738772914152351200,4.544351318359375,0.0007359564770013094,-0.0002584368921816349,-0.0011704578064382076
1738772914162342400,4.55434228515625,-0.000632942421361804,0.0006309030577540398,0.0009168816031888127
1738772914172333300,4.564333251953125,0.0007937130285426974,-0.0008745817467570305,0.00036187886144034564
1738772914182325200,4.5743251953125,-0.001158938161097467,0.00017836550250649452,-0.00047170754987746477
1738772914192316400,4.58431640625,-0.0011624002363532782,0.0009413610678166151,0.0007397643639706075
1738772914202307300,4.594307373046875,-0.00020990159828215837,0.0002335419412702322,0.00017599351122044027
1738772914212298200,4.60429833984375,0.0012234117602929473,-0.0002026837319135666,-0.0007649012841284275
1738772914222289400,4.614289306640625,-0.00004998268559575081,-0.0012609944678843021,-0.0008556250249966979
1738772914232281000,4.624281005859375,-0.000907520588953048,0.0019076343160122633,-0.0006463006138801575
1738772914242272300,4.634272216796875,-0.0008188167121261358,0.0000014740508049726486,0.0004700747085735202
1738772914252263400,4.644263427734375,0.0011399382492527366,-0.0016262501012533903,-0.0012154399883002043
1738772914262254300,4.65425439453125,-0.0015062640886753798,0.0006850892677903175,-0.000903070205822587
1738772914272245200,4.664245361328125,0.0005411740858107805,0.0019418350420892239,0.000909210997633636
1738772914282237200,4.6742373046875,-0.00031297223176807165,0.0013715873938053846,-0.0008994743111543357
1738772914292228000,4.68422802734375,-0.00028847111389040947,-0.00027371360920369625,0.0005269147222861648
1738772914302219300,4.69421923828125,-0.000858073472045362,0.00048467586748301983,0.000005149151547811925
1738772914312210400,4.70421044921875,0.0005086607998237014,0.0013826938811689615,0.0010256724199280143
1738772914322201300,4.714201416015625,-0.001437495113350451,0.0004067872650921345,-0.00047343329060822725
1738772914332193000,4.724193115234375,0.0017745434306561947,-0.0016377214342355728,0.00026612653164193034
1738772914342184200,4.73418408203125,0.00014615932013839483,0.00006207963451743126,-0.0003280943201389164
1738772914352175400,4.74417529296875,0.0017347349785268307,0.0007742086891084909,0.000989904161542654
1738772914362166300,4.754166259765625,-0.0001555546186864376,-0.0005525615997612476,-0.0007348746294155717
1738772914372157400,4.764157470703125,-0.00005675142165273428,0.00018167169764637947,0.0008209440857172012
1738772914382149000,4.774149169921875,-0.0008082595886662602,-0.00025891559198498726,-0.0006169546977616847
1738772914392140000,4.78414013671875,-0.0008593923412263393,0.0014116852544248104,0.0004139549273531884
1738772914402131200,4.794131103515625,-0.00016311579383909702,-0.000587893184274435,0.0005308256368152797
1738772914412122400,4.804122314453125,-0.001379381399601698,0.00030186912044882774,-0.0012300563976168633
1738772914422113300,4.81411328125,-0.0003914230619557202,-0.0003653201274573803,0.0005244298372417688
1738772914432104400,4.8241044921875,0.0005976749816909432,0.00021072151139378548,-0.0002614690165501088
1738772914442096000,4.83409619140625,0.0005355041939765215,0.0000837189145386219,-0.0013091140426695347
1738772914452087000,4.844087158203125,-0.001093018800020218,0.00036707939580082893,-0.0001580958196427673
1738772914462078200,4.854078125,-0.0002474752254784107,0.0004673141520470381,-0.00102491513825953
1738772914472069400,4.8640693359375,0.0006284384289756417,0.0014689292293041945,0.0012606095988303423
1738772914482060300,4.874060302734375,0.0009074333356693387,-0.0004036736208945513,0.001959757413715124
1738772914492052200,4.88405224609375,-0.0004132282338105142,-0.00009181746281683445,-0.000628302397672087
1738772914502043100,4.894043212890625,0.00029792566783726215,-0.0005981193389743567,-0.00040999040356837213
1738772914512034300,4.904034423828125,-0.0011881182435899973,0.0006967098452150822,-0.0009130615508183837
1738772914522025500,4.914025390625,-0.00045058707473799586,0.000009153038263320923,-0.0008175070397555828
1738772914532016400,4.924016357421875,-0.0005576461553573608,-0.0008366669062525034,-0.0008433397160843015
1738772914542008000,4.934008056640625,-0.0008262492483481765,-0.0010732582304626703,0.0006828461191616952
1738772914551999200,4.943999267578125,0.00013914669398218393,0.00033981516025960445,-0.00016750121721997857
1738772914561990100,4.953990234375,0.0005219070008024573,-0.000443001976236701,-0.0006893489044159651
1738772914571981300,4.963981201171875,0.00009819807019084692,-0.000318099744617939,-0.0010840294416993856
1738772914581972200,4.97397216796875,-0.0015719966031610966,0.0011269606184214354,0.00016912404680624604
1738772914591964200,4.983964111328125,-0.00001884100493043661,-0.000805162824690342,-0.000472165149403736
1738772914601955000,4.993955078125,-0.0005933773936703801,0.001619377639144659,-0.00018417485989630222
1738772914611946200,5.0039462890625,-0.0018293503671884537,0.0017187134362757206,0.001226235181093216
1738772914621937200,5.013937255859375,0.00045452883932739496,0.00008733081631362438,-0.0003828829503618181
1738772914631928300,5.02392822265625,-0.0006565419607795775,0.0002572406083345413,0.0010328534990549088
1738772914641920300,5.033920166015625,-0.00016714236699044704,-0.0017825205577537417,0.00020591687643900514
1738772914651911200,5.0439111328125,0.0007766819326207042,0.0019775964319705963,-0.0008707991219125688
1738772914661902000,5.053902099609375,-0.0008250616956502199,0.0004059982020407915,-0.00002568202035035938
1738772914671893000,5.06389306640625,0.0002623070031404495,-0.0007096000481396914,-0.0008866819553077221
1738772914681884400,5.073884521484375,0.0008833253523334861,-0.0005652171093970537,-0.0007144793635234237
1738772914691876000,5.0838759765625,0.0011243416229262948,0.00010190485045313835,-0.0016740162391215563
1738772914701867300,5.0938671875,0.0015164233045652509,0.0003416566178202629,-0.00046962936175987124
1738772914711858200,5.103858154296875,-0.0007901404169388115,-0.0005366539116948843,0.0007951058796606958
1738772914721849000,5.11384912109375,-0.0002300889464095235,0.0015547815710306168,0.0008316094754263759
1738772914731840300,5.12384033203125,0.0005392982857301831,0.0012972541153430939,-0.0004512353043537587
1738772914741832200,5.133832275390625,-0.0007437075255438685,-0.0007050170097500086,0.0008712820126675069
1738772914751823000,5.143822998046875,0.0011154452804476023,-0.0008315171580761671,-0.0002610941301099956
1738772914761814300,5.153814208984375,0.001200862810947001,0.00016126991249620914,0.000976921059191227
1738772914771805200,5.16380517578125,-0.000628728826995939,-0.00025684619322419167,0.0002647917717695236
1738772914781796000,5.173796142578125,-0.00012140569742769003,-0.0005523269064724445,0.0008383712265640497
1738772914791788300,5.183788330078125,0.0008916606893762946,-0.000003982102498412132,0.0003366316668689251
1738772914801779200,5.193779296875,-0.00008052773773670197,-0.0003982896450906992,0.0010082102380692959
1738772914811770000,5.20377001953125,-0.0015290210722014308,0.0007639138493686914,0.0011355093447491527
1738772914821761000,5.213760986328125,0.000560956890694797,0.00015950016677379608,0.00004222120332997292
1738772914831752200,5.223752197265625,-0.0016590540762990713,-0.00075742625631392,-0.00048375310143455863
1738772914841744100,5.233744140625,-0.0006135952426120639,0.0004205529112368822,-0.0018814927898347378
1738772914851735300,5.2437353515625,-0.001170462230220437,0.0003662246745079756,-0.0001435138692613691
1738772914861726200,5.253726318359375,-0.0006283794646151364,-0.0002783099189400673,0.0003131459525320679
1738772914871717000,5.263717041015625,-0.0004169244784861803,0.0004055898170918226,0.00029370488482527435
1738772914881708000,5.2737080078125,0.0013292094226926565,0.000040703220292925835,0.0000014452234609052539
1738772914891700200,5.2837001953125,0.0022181724198162556,-0.00002774014137685299,-0.0004638090031221509
1738772914901691100,5.293691162109375,-0.00043886329513043165,-0.0015907492488622665,-0.0015431882347911596
1738772914911682000,5.30368212890625,-0.00027340935776010156,0.0014456675853580236,-0.0003269549342803657
1738772914921673200,5.313673095703125,-0.0008498436654917896,0.0008151738438755274,0.0008595015970058739
1738772914931664100,5.3236640625,0.0016785615589469671,-0.0011643534526228905,0.000541253830306232
1738772914941656300,5.33365625,0.0017711876425892115,-0.00021128752268850803,0.001292515080422163
1738772914951647200,5.343647216796875,0.0005171051016077399,0.0003104258794337511,0.0002671981055755168
1738772914961638100,5.35363818359375,0.00031518563628196716,-0.000651598209515214,0.0006045540794730186
1738772914971629000,5.363629150390625,0.0005388911813497543,-0.001064920797944069,-0.0002806806587614119
1738772914981620200,5.3736201171875,0.0001770886592566967,0.0005954927764832973,0.0007868945249356329
1738772914991612200,5.383612060546875,-0.0013683437136933208,-0.000332884956151247,-0.0002986099570989609
1738772915001603000,5.39360302734375,-0.001192064257338643,-0.0006933435797691345,0.0007214390207082033
1738772915011594200,5.40359423828125,0.00003139197360724211,-0.0006592553108930588,0.00006417089025489986
1738772915021585200,5.413585205078125,0.0011694649001583457,0.0009226403199136257,0.001689966768026352
1738772915031576000,5.423576171875,-0.0006276362109929323,-0.0005466255825012922,0.00008807540871202946
1738772915041567200,5.433567138671875,-0.00023503875127062201,-0.00020041316747665405,0.0008872417383827269
1738772915051559200,5.44355908203125,-0.000654486590065062,-0.00045767449773848057,0.00047178869135677814
1738772915061550000,5.453550048828125,-0.0009313435293734074,0.00021247565746307373,0.000837798579595983
1738772915071541200,5.463541259765625,-0.0002080289414152503,-0.0004924628883600235,-0.0004490408464334905
1738772915081532200,5.4735322265625,-0.0003879645373672247,-0.00009625381790101528,0.001327754813246429
1738772915091522800,5.483522705078125,-0.00007344514597207308,0.001351174432784319,-0.00029197969706729054
1738772915101514800,5.4935146484375,0.0015050137881189585,-0.0003059776499867439,0.0011436305940151215
1738772915111505700,5.503505615234375,-0.0011930346954613924,-0.00011209957301616669,0.0009026145562529564
1738772915121496600,5.51349658203125,-0.00004691642243415117,0.0001935965847223997,0.0012106102658435702
1738772915131487700,5.52348779296875,-0.00001176272053271532,-0.0012889851350337267,0.0008159297285601497
1738772915141478700,5.533478759765625,0.0012899353168904781,0.00028826179914176464,0.0002203190088039264
1738772915151470600,5.543470703125,-0.00032101082615554333,-0.00033092289231717587,0.002494125859811902
1738772915161461800,5.553461669921875,0.00041320896707475185,-0.0006679745856672525,0.00021017562539782375
1738772915171452700,5.56345263671875,0.0000962928170338273,0.00032937899231910706,0.00121285580098629
1738772915181443600,5.573443603515625,-0.00014800694771111012,0.0005467857699841261,-0.00036991428351029754
1738772915191434500,5.5834345703125,-0.0012151355622336268,0.0005963204894214869,-0.00017763405048754066
1738772915201426700,5.5934267578125,-0.0014759544283151627,0.0001276994589716196,0.001906576449982822
1738772915211417600,5.60341748046875,-0.0012969899689778686,0.0007516781333833933,-0.0003041134332306683
1738772915221408800,5.61340869140625,-0.0017621956067159772,-0.0009627244435250759,0.00015335707576014102
1738772915231399700,5.623399658203125,0.0007038915064185858,0.000908146146684885,-0.000013356810086406767
1738772915241390600,5.633390625,0.0003091477556154132,0.0004987306892871857,0.0006840109708718956
1738772915251382800,5.6433828125,-0.00031749403569847345,-0.0007028877735137939,0.000634742493275553
1738772915261373700,5.653373779296875,0.0009076198330149055,-0.0006855654064565897,-0.0004096347838640213
1738772915271364600,5.663364501953125,-0.00003194331657141447,-0.00042031449265778065,0.0000026225316105410457
1738772915281355500,5.67335546875,0.0004335334524512291,-0.0017486985307186842,-0.0012812205823138356
1738772915291346700,5.6833466796875,-0.0002825905685313046,0.0006699841469526291,-0.0004146279825363308
1738772915301337600,5.693337646484375,0.0007199696265161037,-0.0005424409173429012,-0.0006962398765608668
1738772915311329800,5.703329833984375,0.00020278373267501593,-0.0010529689025133848,-0.0005945070879533887
1738772915321320700,5.71332080078125,-0.0008191934321075678,-0.0007363734766840935,0.0004327635688241571
1738772915331311600,5.7233115234375,-0.00040746876038610935,-0.0004934931639581919,-0.0002751046558842063
1738772915341302500,5.733302490234375,0.0011040816316381097,0.0006595407612621784,-0.0013966733822599053
1738772915351293700,5.743293701171875,0.0007067379774525762,-0.00020385626703500748,-0.00035724163171835244
1738772915361285600,5.75328564453125,0.0005618927534669638,-0.00046442635357379913,-0.0009896380361169577
1738772915371276800,5.76327685546875,-0.0009462554007768631,0.0001467689871788025,-0.001588316634297371
1738772915381267700,5.773267822265625,0.001970830373466015,-0.0005595895927399397,-0.00031607900746166706
1738772915391258600,5.783258544921875,-0.0005439926753751934,0.000955748837441206,0.0005249472451396286
1738772915401249500,5.79324951171875,-0.0005859663942828774,-0.0006119732279330492,0.0004816934815607965
1738772915411241700,5.80324169921875,0.0011501482222229242,0.0003861794248223305,0.0016098085325211287
1738772915421232600,5.813232666015625,0.0006493806140497327,-0.0006161730270832777,0.0013938694028183818
1738772915431223600,5.8232236328125,0.0014398068888112903,0.00013324059545993805,-0.001920434646308422
1738772915441214700,5.833214599609375,0.001107921707443893,0.0012818817049264908,-0.0011798907071352005
1738772915451205600,5.84320556640625,-0.0015712183667346835,0.00018865428864955902,-0.00009731575846672058
1738772915461197800,5.85319775390625,0.0018961759051308036,-0.0016664902213960886,0.0008559866691939533
1738772915471188700,5.863188720703125,0.000015451456420123577,0.0011008004657924175,0.0001406615338055417
1738772915481179600,5.8731796875,-0.00028971355641260743,0.0007093078456819057,0.0008939203689806163
1738772915491170600,5.883170654296875,-0.0009776081424206495,0.000011293217539787292,0.0005221430328674614
1738772915501161700,5.89316162109375,0.0005189377116039395,-0.001152294920757413,0.00006231485167518258
1738772915511153700,5.903153564453125,-0.000565501453820616,-0.00009741680696606636,0.0005685817450284958
1738772915521144600,5.91314453125,-0.0015770767349749804,-0.0011194732505828142,0.0005322056822478771
1738772915531135700,5.9231357421875,0.00022588332649320364,-0.00010400987230241299,0.0010528536513447762
1738772915541126700,5.933126708984375,-0.0006311230827122927,-0.0005752097349613905,-0.0008219059673137963
1738772915551117600,5.94311767578125,-0.0016364663606509566,-0.0009983859490603209,-0.0004147086583543569
1738772915561109800,5.95310986328125,-0.0015464621828868985,0.0007743686437606812,0.000928329536691308
1738772915571100700,5.9631005859375,0.001224556821398437,-0.0015503047034144402,0.00009396119276061654
1738772915581091600,5.973091552734375,0.0005081971175968647,-0.0000779964029788971,-0.0015678933123126626
1738772915591082800,5.983082763671875,-0.00011604779865592718,-0.0014897382352501154,0.00003373180516064167
1738772915601073700,5.99307373046875,0.0014118192484602332,-0.00005672965198755264,0.0004930694703944027
1738772915611064600,6.003064697265625,0.0006964941276237369,-0.001004282385110855,-0.0001024133525788784
1738772915621056800,6.013056884765625,-0.0001828072126954794,-0.001839575357735157,-0.0000323955318890512
1738772915631047700,6.023047607421875,0.0014678200241178274,0.0003601955249905586,-0.0002273389109177515
1738772915641038600,6.03303857421875,0.00015123689081519842,-0.001163653563708067,0.0004224888398312032
1738772915651029800,6.04302978515625,-0.0008093653013929725,-0.0012302326504141092,-0.0006371829658746719
1738772915661020700,6.053020751953125,0.0007244040025398135,0.0008469438180327415,-0.0005296840681694448
1738772915671012600,6.0630126953125,-0.0005374015890993178,0.0011827684938907623,0.0008833892643451691
1738772915681003800,6.073003662109375,0.00041970470920205116,-0.0010169204324483871,-0.0005193350953049958
1738772915690994700,6.08299462890625,-0.00007244746666401625,0.00005233846604824066,0.000548059877473861
1738772915700985600,6.092985595703125,0.0004495390458032489,0.0003658989444375038,-0.001191942486912012
1738772915710976800,6.102976806640625,0.0008346320828422904,-0.0007108170539140701,-0.0014643837930634618
1738772915720968700,6.11296875,0.0010210772743448615,-0.0016355928964912891,0.00023928337031975389
1738772915730959600,6.122959716796875,0.0002050846815109253,0.000203586183488369,0.00013648535241372883
1738772915740950800,6.13295068359375,-0.000022507389076054096,-0.0007424147333949804,-0.000292519194772467
1738772915750941700,6.142941650390625,0.00041105528362095356,-0.0007749053183943033,0.0010225498117506504
1738772915760932600,6.1529326171875,-0.0009379619732499123,0.0013304175809025764,-0.0006575529114343226
1738772915770924800,6.1629248046875,0.0007592705078423023,-0.0006493763066828251,0.0002836081839632243
1738772915780915700,6.172915771484375,0.0005553840892389417,-0.0007155770435929298,-0.0009879458229988813
1738772915790906600,6.18290673828125,-0.0016379953594878316,0.0005430327728390694,0.0004006262752227485
1738772915800897800,6.192897705078125,-0.001285418402403593,-0.00021328777074813843,0.00046796712558716536
1738772915810888700,6.202888671875,0.001047510770149529,-0.001086538191884756,-0.00032938329968601465
1738772915820880600,6.212880615234375,-0.0008444509003311396,0.0004937015473842621,0.0005389098078012466
1738772915830871800,6.222871826171875,0.000207497738301754,-0.0007880779448896646,0.0003804517618846148
1738772915840862700,6.23286279296875,-0.0014086455339565873,-0.0006003296002745628,0.0007682897849008441
1738772915850853600,6.242853515625,0.000299772247672081,-0.00036384095437824726,-0.00016434914141427726
1738772915860844800,6.2528447265625,0.0004003240028396249,-0.00019276724196970463,0.00016702484572306275
1738772915870836700,6.262836669921875,-0.0015871931100264192,0.00044399453327059746,-0.0005962371360510588
1738772915880827600,6.27282763671875,0.0009762948611751199,0.0012014550156891346,0.0000235619954764843
1738772915890818800,6.28281884765625,0.00027987826615571976,0.000539126805961132,0.00047523409011773765
1738772915900809700,6.292809814453125,0.00043587142135947943,-0.0014799789059907198,-0.0005916160298511386
1738772915910800600,6.302800537109375,0.00013093941379338503,-0.0014853053726255894,-0.0005111885839141905
1738772915920792800,6.312792724609375,-0.00015578139573335648,-0.00014558527618646622,-0.001436751801520586
1738772915930783700,6.32278369140625,0.00129803828895092,-0.0015413479413837194,0.0005014968919567764
1738772915940774700,6.332774658203125,-0.0016679145628586411,-0.0021111462265253067,0.00005860702367499471
1738772915950765800,6.342765869140625,0.001992334146052599,-0.00007835542783141136,0.00138672546017915
1738772915960756700,6.3527568359375,-0.00023456010967493057,-0.0002576985862106085,-0.0001595774810994044
1738772915970748700,6.362748779296875,0.0014525522710755467,0.0009905248880386353,0.0001365660282317549
1738772915980739800,6.37273974609375,0.00038875360041856766,-0.0013305123429745436,0.000198332651052624
1738772915990730800,6.382730712890625,-0.0005939528346061707,0.0003587305545806885,-0.000697288429364562
1738772916000721700,6.3927216796875,0.0003819389967247844,0.00023570656776428223,-0.0013235204387456179
1738772916010712600,6.402712646484375,-0.0005381832015700638,0.0006503607146441936,-0.0008196503622457385
1738772916020704800,6.412704833984375,-0.0003116810694336891,0.0006441441364586353,0.0010909001575782895
1738772916030695700,6.42269580078125,-0.0002291230484843254,0.0003139120526611805,-0.00008701595652382821
1738772916040686800,6.432686767578125,-0.0015181269263848662,-0.00080315419472754,0.0010714454110711813
1738772916050677800,6.442677734375,0.000045681255869567394,0.0010256385430693626,0.0020600107964128256
1738772916060668700,6.452668701171875,-0.00009291304741054773,0.000691357534378767,0.00017761105846147984
1738772916070660900,6.462660888671875,-0.0004026386886835098,-0.0008836358319967985,-0.0008335912134498358
1738772916080651800,6.47265185546875,0.0005294291768223047,-0.00040429248474538326,-0.001050745602697134
1738772916090643000,6.482642822265625,0.001321186893619597,-0.00003997189924120903,-0.00039294478483498096
1738772916100633900,6.4926337890625,-0.00011338037438690662,0.0012704506516456604,0.0002571841760072857
1738772916110624800,6.502624755859375,0.00020806316751986742,0.0004051895812153816,0.0015011467039585114
1738772916120617000,6.512616943359375,0.00038722564931958914,-0.0014086312148720026,-0.0010979766957461834
1738772916130607900,6.52260791015625,-0.0013499544002115726,0.0018116631545126438,0.0002399954537395388
1738772916140598800,6.532598876953125,0.0007595877395942807,-0.002066379878669977,-0.000619912869296968
1738772916150589700,6.542589599609375,-0.000040958402678370476,-0.00031907972879707813,-0.0008476131479255855
1738772916160580900,6.552580810546875,-0.000921977567486465,0.0013229022733867168,-0.0007674946682527661
1738772916170572800,6.56257275390625,-0.0011358294868841767,0.0012331539765000343,-0.0002537709369789809
1738772916180564000,6.57256396484375,-0.00004780944436788559,0.0003386707976460457,-0.0012539839372038841
1738772916190555000,6.582554931640625,-0.000623318599537015,-0.0011114203371107578,0.0005351276486180723
1738772916200545800,6.5925458984375,-0.0005305878003127873,0.0008565527386963367,0.00029574474319815636
1738772916210536700,6.60253662109375,-0.00038970657624304295,0.00021419813856482506,0.00013036243035458028
1738772916220529000,6.61252880859375,-0.00011005264241248369,-0.00006236927583813667,0.00005370192229747772
1738772916230519800,6.622519775390625,0.0006713188486173749,0.0002609384246170521,0.0006430594949051738
1738772916240511000,6.632510986328125,-0.0003744150744751096,0.0002579553984105587,-0.00047349181841127574
1738772916250502000,6.642501953125,-0.0007272838847711682,-0.0005604340694844723,0.00042745558312162757
1738772916260492800,6.652492919921875,-0.00046145491069182754,0.0008146902546286583,-0.00015440440620295703
1738772916270485000,6.662485107421875,-0.0006785025470890105,0.0017036530189216137,-0.00018263391393702477
1738772916280476000,6.672475830078125,-0.0006245970726013184,-0.0005117561668157578,-0.0004331613308750093
1738772916290466800,6.682466796875,0.001039612339809537,-0.0001543599646538496,-0.00018788421584758908
1738772916300457700,6.692457763671875,-0.00011969567276537418,-0.0001732679083943367,0.00033729500137269497
1738772916310449000,6.702448974609375,0.0008702013874426484,-0.0007525053806602955,0.0007844397332519293
1738772916320440800,6.71244091796875,0.0010280120186507702,0.0005050478503108025,-0.00036097888369113207
1738772916330432000,6.722431884765625,0.0008788749109953642,0.0007540532387793064,-0.0006382139399647713
1738772916340423000,6.7324228515625,-0.0018280541989952326,-0.0014528261963278055,0.0013610267778858542
1738772916350413800,6.742413818359375,-0.0006378874531947076,-0.0001263055019080639,-0.00004458962212083861
1738772916360404700,6.75240478515625,0.00024868082255125046,-0.0015349288005381823,-0.000511960475705564
1738772916370397000,6.76239697265625,0.0005030127940699458,0.0000911974348127842,-0.00063073739875108
1738772916380387800,6.772387939453125,0.0007656748639419675,-0.000020794104784727097,0.0012265925761312246
1738772916390378800,6.782378662109375,-0.0005278223543427885,-0.0012610284611582756,-0.001295154565013945
1738772916400370000,6.792369873046875,-0.0007912277360446751,-0.0007052484434098005,0.0011560547864064574
1738772916410360800,6.80236083984375,-0.0009060099255293608,-0.0004634333308786154,-0.0005915115470997989
1738772916420353000,6.81235302734375,-0.00022996310144662857,-0.00045686704106628895,0.00017830458818934858
1738772916430344000,6.822343994140625,0.0011841754894703627,-0.0011780508793890476,0.0005279776523821056
1738772916440334800,6.8323349609375,0.00038536381907761097,0.0003390735946595669,-0.0013755295658484101
1738772916450325800,6.84232568359375,0.0002751089632511139,-0.0015166171360760927,-0.0005539444391615689
1738772916460317000,6.85231689453125,0.00019262242130935192,0.0005672234110534191,0.00034452581894584
1738772916470308900,6.862308837890625,0.0014016975183039904,0.0001943809911608696,0.0004878038598690182
1738772916480299800,6.8722998046875,-0.0004346603527665138,0.0004934077151119709,0.000711481727194041
1738772916490291000,6.882291015625,0.0010913308942690492,-0.0004165943246334791,0.0013525047106668353
1738772916500281900,6.89228173828125,-0.0006166735547594726,0.0006449897773563862,0.000745513360016048
1738772916510272800,6.902272705078125,-0.0017011127201840281,-0.0005920485127717257,0.0014789479319006205
1738772916520265000,6.912264892578125,-0.00003672926686704159,-0.0008424967527389526,-0.0011410333681851625
1738772916530256000,6.922255859375,0.0015571726253256202,-0.00031146244145929813,0.0005793686141259968
1738772916540246800,6.932246826171875,-0.00019737111870199442,-0.00167815200984478,0.00021848882897756994
1738772916550238000,6.942238037109375,-0.000031722476705908775,-0.0006357908714562654,0.00007734129030723125
1738772916560228900,6.952228759765625,0.00012316263746470213,0.00031127664260566235,-0.0021484072785824537
1738772916570220800,6.962220703125,0.0005644484190270305,-0.0016469457186758518,0.0010447229724377394
1738772916580212000,6.9722119140625,0.0013022671919316053,-0.0014063017442822456,0.00009736852371133864
1738772916590203000,6.982202880859375,-0.00031187484273687005,-0.0003796531818807125,-0.00015110439562704414
1738772916600193800,6.99219384765625,0.0004799750167876482,0.0005165520124137402,0.0008574922103434801
1738772916610185000,7.00218505859375,0.0008690629620105028,-0.0001468411646783352,-0.0010133784962818027
1738772916620177000,7.012177001953125,0.0006748283049091697,-0.0004474164452403784,-0.000034587792470119894
1738772916630167800,7.022167724609375,0.000669768312945962,0.00017389911226928234,-0.0014372747391462326
1738772916640159000,7.032158935546875,-0.0003561252378858626,-0.001048812409862876,0.00027778209187090397
1738772916650150000,7.04214990234375,-0.0008349616546183825,-0.0010117944329977036,0.0005547508480958641
1738772916660140800,7.052140869140625,-0.00009594170842319727,0.0008352282457053661,-0.0012496020644903183
1738772916670133000,7.062133056640625,0.00042923365253955126,0.00034973397850990295,0.00012059431173838675
1738772916680124000,7.0721240234375,0.00034189841244369745,-0.00042281881906092167,-0.0005949226906523108
1738772916690114800,7.08211474609375,-0.00012681784573942423,0.002222499344497919,-0.0002015738282352686
1738772916700106000,7.09210595703125,0.000624324195086956,0.0007627992890775204,-0.00027721963124349713
1738772916710097000,7.102096923828125,0.000981187797151506,-0.00016664364375174046,-0.0021342418622225523
1738772916720088800,7.1120888671875,-0.0008276711450889707,-0.0008827291894704103,-0.0010853171115741134
1738772916730080000,7.122080078125,-0.0005285981460474432,-0.0005216046702116728,0.0014406911795958877
1738772916740071000,7.13207080078125,0.00014073727652430534,-0.0008613464888185263,-0.0005483702989295125
1738772916750061800,7.142061767578125,-0.0003255822230130434,0.0009661149233579636,-0.0000849803036544472
1738772916760053000,7.152052978515625,0.0019541322253644466,0.00018277508206665516,-0.0009193600853905082
1738772916770045000,7.162044921875,0.0009447941556572914,-0.0011978077236562967,-0.00001734745455905795
1738772916780035800,7.172035888671875,0.00037464825436472893,0.0005265404470264912,0.00031109468545764685
1738772916790027000,7.182027099609375,0.00034828297793865204,0.00025942549109458923,0.0005134949460625648
1738772916800018000,7.192017822265625,-0.0014680562308058143,0.0008472860790789127,-0.00002778353518806398
1738772916810008800,7.2020087890625,0.0013301270082592964,-0.0003277005162090063,0.0010428072419017553
1738772916820000000,7.212,0.00051924679428339,-0.0008594985119998455,0.001005508122034371
1738772916829992000,7.221991943359375,0.0007325659971684217,-0.0009260773658752441,0.00048592532402835786
1738772916839982800,7.23198291015625,-0.0010532846208661795,0.0007237948011606932,0.00037105922820046544
1738772916849974000,7.24197412109375,-0.0001928173005580902,0.00017704791389405727,0.001056823180988431
1738772916859965000,7.25196484375,0.00015792343765497208,-0.0003302004188299179,0.0019507820252329111
1738772916869955800,7.261955810546875,-0.00047297944547608495,0.00027540232986211777,0.000055942946346476674
1738772916879947800,7.27194775390625,0.00030403921846300364,-0.0004892146680504084,-0.00004835076106246561
1738772916889939000,7.28193896484375,-0.0005971744540147483,-0.0019867101218551397,-0.00026886051637120545
1738772916899929900,7.291929931640625,-0.0002828828291967511,0.00012208335101604462,0.00023281201720237732
1738772916909921000,7.301921142578125,-0.001645089709199965,0.0004376680590212345,0.001362524926662445
1738772916919912000,7.311911865234375,0.0014204704202711582,0.0006800189148634672,0.0013022493803873658
1738772916929903900,7.32190380859375,0.0008132695220410824,-0.0007474352605640888,-0.000003232154995203018
1738772916939895000,7.33189501953125,-0.0005696042790077627,0.0015368429012596607,-0.0007423722418025136
1738772916949886000,7.341885986328125,-0.0002399049699306488,0.0010422938503324986,-0.00002837873762473464
1738772916959876900,7.351876953125,0.0004661853890866041,-0.0007609545718878508,0.0005552474176511168
1738772916969867800,7.36186767578125,0.00016924284864217043,-0.0009415168315172195,-0.0007246677996590734
1738772916979859700,7.371859619140625,0.0005271097179502249,0.00003652484156191349,-0.0019554472528398037
1738772916989851000,7.381850830078125,0.0007899637566879392,0.0011169691570103168,-0.00026034523034468293
1738772916999842000,7.391842041015625,0.0007388211088255048,0.00048374105244874954,-0.0008634163532406092
1738772917009833000,7.4018330078125,0.00032549852039664984,0.0003194240853190422,0.00011156697291880846
1738772917019823900,7.411823974609375,-0.00009854603558778763,0.0003559852484613657,-0.0001454601442674175
1738772917029815800,7.42181591796875,0.000007980386726558208,0.001013253116980195,-0.001260792021639645
1738772917039806700,7.431806640625,-0.0003511527902446687,-0.0010417813900858164,0.0009407246252521873
1738772917049798000,7.4417978515625,0.002121326047927141,0.0011369509156793356,-0.0003256084746681154
1738772917059788800,7.451788818359375,0.00006338371895253658,-0.0005727112293243408,0.0004550609737634659
1738772917069780000,7.461780029296875,-0.0013837780570611358,0.00030213710851967335,0.0015408317558467388
1738772917079771000,7.47177099609375,0.00011387467384338379,-0.0009062427561730146,-0.0007474727462977171
1738772917089762800,7.4817626953125,0.0007727408083155751,0.00005835411138832569,-0.000017234007827937603
1738772917099754000,7.49175390625,-0.00047584110870957375,0.0008187771309167147,-0.0003706874849740416
1738772917109745000,7.501744873046875,-0.0009568079840391874,0.001522117992863059,0.00014889525482431054
1738772917119735800,7.51173583984375,-0.0007991095189936459,0.0009515434503555298,-0.0005441738176159561
1738772917129727000,7.52172705078125,0.00008479366078972816,0.00034034810960292816,-0.0020083796698600054
1738772917139718700,7.53171875,-0.000553836056496948,0.0004326263442635536,-0.0003710277669597417
1738772917149709800,7.541709716796875,-0.0020753000862896442,-0.00009388080798089504,0.0018436569953337312
1738772917159701000,7.551700927734375,0.001116022001951933,-0.00017848401330411434,0.0008523948490619659
1738772917169692000,7.56169189453125,0.00013784307520836592,-0.0008189741056412458,-0.0004102098464500159
1738772917179682800,7.571682861328125,0.001126350020058453,-0.00036317366175353527,-0.0009332422632724047
1738772917189674800,7.5816748046875,-0.0009256155462935567,-0.0008808921556919813,-0.001266936305910349
1738772917199665700,7.591665771484375,-0.0007175419596023858,0.0007094652391970158,-0.0008716868469491601
1738772917209656800,7.60165673828125,0.000015626312233507633,-0.00034567900002002716,0.0006170201231725514
1738772917219648000,7.61164794921875,0.001720636268146336,-0.000058093806728720665,0.0004305359907448292
1738772917229639000,7.621638916015625,0.0006804055301472545,-0.0006786102894693613,0.00035543483681976795
1738772917239629800,7.6316298828125,0.0006486339261755347,-0.000020039966329932213,-0.002550088334828615
1738772917249621800,7.641621826171875,0.000304020824842155,0.0009072727989405394,0.0009402504656463861
1738772917259612700,7.65161279296875,0.001167178968898952,0.00019808253273367882,0.00046010594815015793
1738772917269603800,7.661603759765625,-0.0000861047301441431,-0.0012884940952062607,0.0000017759448383003473
1738772917279595000,7.671594970703125,0.0012398441322147846,0.0008851231541484594,-0.0006898407591506839
1738772917289586000,7.6815859375,0.00022011972032487392,0.0005690061952918768,0.0017027432331815362
1738772917299577600,7.69157763671875,-0.00019531603902578354,0.0003502857871353626,-0.0006854033563286066
1738772917309568800,7.70156884765625,0.0003394467057660222,-0.002533917548134923,-0.00041296202107332647
1738772917319560000,7.711559814453125,-0.000042430590838193893,0.00042602536268532276,-0.0013064243830740452
1738772917329550800,7.72155078125,0.000519762746989727,0.0005788907874375582,-0.00010134396143257618
1738772917339542000,7.7315419921875,0.0006661837687715888,0.000005783047527074814,0.0005193878896534443
1738772917349533700,7.74153369140625,0.00018255366012454033,0.0014846364501863718,-0.0007653209613636136
1738772917359524600,7.751524658203125,-0.0005554888630285859,0.0015032172668725252,-0.0007600086973980069
1738772917369515800,7.761515869140625,-0.0010340588632971048,0.0016805839259177446,-0.0014130158815532923
1738772917379507000,7.7715068359375,-0.0007073059678077698,0.0008743847720324993,-0.0012626536190509796
1738772917389497900,7.781497802734375,-0.0014836173504590988,-0.00027263886295259,-0.00014013127656653523
1738772917399489000,7.791489013671875,0.0013414788991212845,0.0001167692244052887,-0.0015286265406757593
1738772917409480700,7.801480712890625,0.0002080375561490655,0.0012992126867175102,-0.00007214370998553932
1738772917419471600,7.8114716796875,0.0002179697621613741,0.0003250977024435997,0.0002555316314101219
1738772917429462800,7.821462890625,-0.0009524894412606955,0.001337365247309208,0.0007338353316299617
1738772917439454000,7.831453857421875,-0.0013071659486740828,-0.0005970846395939589,-0.00032404763624072075
1738772917449444900,7.84144482421875,-0.0009809286566451192,-0.00027883704751729965,-0.0001099294750019908
1738772917459436800,7.851436767578125,-0.00012485613115131855,0.0008698590099811554,0.0004892275901511312
1738772917469427700,7.861427734375,-0.00045056070666760206,0.0007055415771901608,-0.0004969409201294184
1738772917479419000,7.8714189453125,0.00003335543442517519,-0.0008386899717152119,0.0008734039729461074
1738772917489410000,7.88141015625,-0.000008189934305846691,0.0020063649863004684,-0.0003782817511819303
1738772917499401000,7.89140087890625,-0.0002175095141865313,0.00039680185727775097,0.00025685009313747287
1738772917509392000,7.901391845703125,-0.00045053608482703567,-0.00022424757480621338,0.000030481431167572737
1738772917519383800,7.9113837890625,0.0004630421753972769,0.0006856967229396105,0.001547614810988307
1738772917529374700,7.921374755859375,-0.0003303135163150728,-0.0010157970245927572,0.00026796592283062637
1738772917539366000,7.931365966796875,0.001071828999556601,-0.0005644760094583035,-0.00011231718235649168
1738772917549357000,7.941357177734375,-0.0014121013227850199,0.0008762944489717484,0.0010048788972198963
1738772917561220900,7.953220947265625,-0.0016108384588733315,-0.0001886165700852871,0.0001816497533582151
1738772917571212800,7.963212890625,0.0009841457940638065,0.0009783804416656494,-0.0010814876295626163
1738772917581204000,7.973203857421875,0.0006833773804828525,0.0012406157329678535,-0.0006974302814342082
1738772917591195000,7.98319482421875,0.0014365193201228976,0.0006046527996659279,0.0001348075456917286
1738772917601185800,7.993185791015625,-0.0011309100082144141,0.000297771068289876,-0.0004908880800940096
1738772917611176700,8.0031767578125,0.0008249154780060053,-0.0002441820688545704,-0.00031565208337269723
1738772917621169000,8.0131689453125,-0.0010238311951979995,-0.0002289984840899706,-0.00020000420045107603
1738772917631159800,8.023159912109374,-0.00004405423533171415,-0.000008222414180636406,0.0004980103112757206
1738772917641150700,8.033150634765626,-0.0009502150933258235,-0.0005000464152544737,-0.0012809449108317494
1738772917651142000,8.043141845703126,0.00016058934852480888,0.0009151576086878777,-0.000785596901550889
1738772917661132800,8.0531328125,0.002658993471413851,0.0019596926867961884,0.000988665735349059
1738772917671123700,8.063123779296875,-0.0014145777095109224,-0.00009520258754491806,0.0010291457874700427
1738772917681116000,8.073115966796875,0.0001720222644507885,0.000562057364732027,-0.00020574922382365912
1738772917691106800,8.08310693359375,-0.0000412969384342432,-0.0007926926482468843,0.0012507335050031543
1738772917701097700,8.09309765625,0.0006689070723950863,0.0007625806611031294,0.0001485022366978228
1738772917711089000,8.1030888671875,0.0006883481983095407,-0.0010052258148789406,0.0005234753480181098
1738772917721079800,8.113079833984376,-0.00019222137052565813,0.0003941040486097336,0.00008714455179870129
1738772917731071700,8.12307177734375,-0.0008244557539001107,-0.0016927489778026938,-0.00010620093962643296
1738772917741063000,8.13306298828125,0.00005545944441109896,0.0004196686204522848,-0.0011741603957489133
1738772917751053800,8.1430537109375,0.0006272401660680771,0.00022525782696902752,0.0008695494034327567
1738772917761044700,8.153044677734375,-0.0006839423440396786,0.0008544698357582092,0.00003438146086409688
1738772917771036000,8.163035888671875,0.0001890418352559209,0.0005593919195234776,0.001385669456794858
1738772917781027800,8.17302783203125,0.0004602243425324559,0.001295420341193676,0.0003045405319426209
1738772917791018800,8.183018798828124,-0.00005509739276021719,0.00010445457883179188,0.0001540719240438193
1738772917801010000,8.193010009765626,0.0011004955740645528,-0.00006484333425760269,-0.001597148715518415
1738772917811000800,8.203000732421875,0.0008269889513030648,0.00022757169790565968,0.0007142088143154979
1738772917820991700,8.21299169921875,0.0003131512785330415,0.0004091518931090832,0.0014502627309411764
1738772917830983000,8.22298291015625,0.0012473881943151355,0.000027254456654191017,0.0007413292769342661
1738772917840974800,8.232974853515625,0.000757711473852396,-0.00026520644314587116,-0.000890440191142261
1738772917850965800,8.2429658203125,0.000030402210541069508,0.0006320124957710505,-0.00046699761878699064
1738772917860957000,8.25295703125,0.0007642965065315366,0.00009973370470106602,0.0004918143968097866
1738772917870947800,8.26294775390625,0.0009933284018188715,0.00036764773540198803,-0.00047810887917876244
1738772917880938800,8.272938720703126,-0.0005225237691774964,0.0006838042754679918,-0.00052310258615762
1738772917890931000,8.282930908203125,0.0007432766724377871,-0.000744715565815568,-0.0007995387422852218
1738772917900921900,8.292921875,-0.0001084033865481615,0.000282578868791461,0.0002923327556345612
1738772917911538000,8.303537841796874,-0.00021759298397228122,-0.001451405230909586,0.0009796946542337537
1738772917921528800,8.31352880859375,-0.000050750444643199444,0.0003754079807549715,-0.0006033332902006805
1738772917931519700,8.323519775390626,-0.000968209351412952,0.0006577030289918184,-0.00009253899042960256
1738772917941511000,8.333510986328125,0.0000811869977042079,-0.0004666796885430813,-0.0007866693194955587
1738772917951501800,8.343501708984375,-0.0009108404628932476,-0.0005596238188445568,0.00031854247208684683
1738772917961493800,8.35349365234375,-0.0002788027632050216,-0.00012764637358486652,0.0011427418794482946
1738772917971485000,8.36348486328125,-0.0006106326472945511,-0.00035774335265159607,0.00033660291228443384
1738772917981475800,8.373475830078124,0.0005575533723458648,0.00017826678231358528,-0.000648492481559515
1738772917991466800,8.383466796875,-0.0005740237538702786,-0.00037274137139320374,0.0017960231052711606
1738772918001458000,8.3934580078125,-0.00000796094536781311,-0.000016490928828716278,-0.00032678130082786083
1738772918011449900,8.403449951171876,-0.0005328700062818825,0.00039629917591810226,-0.0010639443062245846
1738772918021440800,8.413440673828125,-0.0005314124864526093,0.00009869318455457687,0.000024209119146689773
1738772918031432000,8.423431884765625,-0.0028491616249084473,-0.0003042430616915226,-0.0010317342821508646
1738772918041422800,8.4334228515625,-0.00004844926297664642,-0.0014113574288785458,-0.00007222819840535522
1738772918051413800,8.443413818359375,-0.0007587143336422741,-0.00005607493221759796,-0.000015502882888540626
1738772918061406000,8.453406005859375,-0.00006922450847923756,-0.0005333595909178257,-0.000160344410687685
1738772918071396900,8.46339697265625,-0.00026363524375483394,0.0002908885944634676,0.0006063796463422477
1738772918081387800,8.4733876953125,0.00006404297892004251,0.0003729902673512697,-0.0001544365513836965
1738772918091378400,8.48337841796875,0.0009719146182760596,0.001597777707502246,0.00040376203833147883
1738772918101369300,8.493369384765625,-0.0010278335539624095,-0.0006343941204249859,0.0004869435797445476
1738772918111360500,8.503360595703125,0.0007101454539224505,-0.00018831458874046803,-0.0008350496063940227
1738772918121352400,8.5133525390625,-0.0002418477670289576,-0.00020133634097874165,0.0017434869660064578
1738772918131343600,8.523343505859375,0.0009592378046363592,-0.000365919666364789,-0.0005990294739603996
1738772918141334500,8.53333447265625,0.00047641631681472063,0.000546193914487958,-0.00008082945714704692
1738772918151325400,8.543325439453126,0.0002327371621504426,0.0001887977123260498,-0.00030639918986707926
1738772918161316400,8.55331640625,0.00017664057668298483,-0.0003419136628508568,0.0001305056648561731
1738772918171308500,8.56330859375,0.0004552071914076805,-0.00039650825783610344,-0.00036324438406154513
1738772918181299500,8.573299560546875,0.0003241996746510267,-0.00014002644456923008,0.0008686318760737777
1738772918191290400,8.583290283203125,0.0010051699355244637,-0.000452681677415967,0.0019354942487552762
1738772918201281500,8.593281494140625,-0.00014266697689890862,-0.0003218704368919134,-0.0002884028945118189
1738772918211272400,8.6032724609375,-0.0005778275080956519,0.0012312850449234247,0.0006636772304773331
1738772918221263400,8.613263427734376,-0.0002454143250361085,0.0014218806754797697,-0.0013249970506876707
1738772918231255600,8.623255615234376,-0.0007948244456201792,-0.0010964041575789452,0.0010484120575711131
1738772918241246500,8.63324658203125,0.00034483615309000015,-0.0003215458709746599,-0.000053742347517982125
1738772918251237400,8.6432373046875,0.0015171596314758062,0.00116050336509943,-0.00003589916741475463
1738772918261228500,8.653228515625,-0.0003771952469833195,0.0004937769845128059,0.00007663897122256458
1738772918271219500,8.663219482421875,-0.00021900347201153636,-0.00007400917820632458,0.0012385761365294456
1738772918281211400,8.67321142578125,0.0002458764938637614,0.001461210660636425,0.0007782970787957311
1738772918291202600,8.68320263671875,-0.0004630569601431489,-0.00023761950433254242,0.0003527239023242146
1738772918301193500,8.693193359375,0.000513379811309278,-0.00037346757017076015,0.002122103236615658
1738772918311184400,8.703184326171876,0.0006302925758063793,0.000799388624727726,0.0006070308154448867
1738772918321175600,8.713175537109375,-0.0008401857921853662,0.00034741684794425964,0.0006389460759237409
1738772918331167500,8.72316748046875,0.0004157610237598419,0.0011647408828139305,0.0015393608482554555
1738772918341158400,8.733158447265625,0.00003030267544090748,-0.00027099018916487694,0.0006766144651919603
1738772918351149600,8.743149658203125,0.00024255667813122272,-0.0015796676743775606,-0.0004874532751273364
1738772918361140500,8.753140380859374,0.00017005903646349907,0.0008847361896187067,-0.0006370828486979008
1738772918371131400,8.76313134765625,0.0015373260248452425,0.0001928471028804779,0.0009941032622009516
1738772918381122600,8.77312255859375,-0.0005923970602452755,-0.00034635094925761223,-0.0008152041118592024
1738772918391114500,8.783114501953126,-0.0012294251937419176,-0.0005093363579362631,-0.0008503578137606382
1738772918401105400,8.79310546875,0.00045190530363470316,0.0008106185123324394,-0.00022447957599069923
1738772918411096600,8.8030966796875,-0.0002951113856397569,0.0003437665291130543,-0.0008497898234054446
1738772918421087500,8.81308740234375,-0.00022890325635671616,-0.0005167538765817881,-0.000503795687109232
1738772918431078400,8.823078369140624,-0.0007351702079176903,0.0011120352428406477,0.00006372392817866057
1738772918441070600,8.833070556640624,-0.0002140383585356176,0.0020267548970878124,0.00015861981955822557
1738772918451061500,8.8430615234375,0.0008240618044510484,0.0012184856459498405,-0.000019013023120351136
1738772918461052400,8.853052490234376,-0.0013309363275766373,-0.00007014628499746323,-0.0025717164389789104
1738772918471043600,8.863043701171875,0.0013050604611635208,0.00008884444832801819,-0.001049719867296517
1738772918481034500,8.873034423828125,0.0019764862954616547,-0.000051777809858322144,0.0017611720832064748
1738772918491026400,8.8830263671875,0.0003450339427217841,-0.0009298219811171293,0.0009840617422014475
1738772918501017600,8.893017578125,-0.0009622146608307958,-0.00047195632942020893,0.00021729386935476214
1738772918511008500,8.903008544921875,-0.0015571648254990578,0.0005813238676637411,0.0006910702213644981
1738772918520999400,8.91299951171875,0.0016377947758883238,0.0011512539349496365,0.001352197490632534
1738772918530990600,8.922990478515626,-0.0010075230384245515,0.00026921508833765984,-0.0012294708285480738
1738772918540981500,8.9329814453125,0.0007245963206514716,-0.00022755260579288006,0.001337727066129446
1738772918550973400,8.942973388671875,-0.0006916726706549525,-0.0007761637680232525,0.0015276104677468538
1738772918560964600,8.952964599609375,0.0010186061263084412,0.0007783202454447746,-0.0007108980207704008
1738772918570955500,8.96295556640625,0.00023830006830394268,0.0002526124007999897,0.0002507694880478084
1738772918580946400,8.972946533203125,-0.0016970857977867126,-0.0009658795315772295,0.0004276798281352967
1738772918590937300,8.982937255859374,0.001223070314154029,-0.0004894400481134653,-0.00021201146591920406
1738772918600929500,8.992929443359374,-0.0007221677806228399,-0.0003639357164502144,-0.0009857224067673087
1738772918610920400,9.00292041015625,0.001026463694870472,-0.00032931449823081493,0.0008529239566996694
1738772918620911600,9.01291162109375,-0.00001037342008203268,-0.00030674575828015804,0.000494822976179421
1738772918630902500,9.022902587890625,0.00041067227721214294,-0.0010606865398585796,-0.00003328191814944148
1738772918640893400,9.0328935546875,0.0016747916815802455,0.00022673257626593113,0.001381929381750524
1738772918650884400,9.04288427734375,0.001113130827434361,0.000252831494435668,0.0016253422945737839
1738772918660876500,9.05287646484375,0.0009541907347738743,-0.0001638552639633417,0.0017321986379101872
1738772918670867500,9.062867431640624,0.000825027353130281,0.0008257750887423754,-0.0010553320171311498
1738772918680858400,9.0728583984375,-0.0008385922992601991,0.0005404429975897074,-0.00016188854351639748
1738772918690849500,9.082849609375,0.001723102293908596,0.0002972965594381094,-0.0005067678866907954
1738772918700840400,9.09284033203125,-0.0003598292241804302,-0.001084114657714963,-0.0013876121956855059
1738772918710832600,9.10283251953125,0.0011432587634772062,0.0008605257607996464,-0.00015057393466122448
1738772918720823600,9.112823486328125,0.001311714295297861,0.000020284904167056084,-0.0008714829455129802
1738772918730814500,9.122814453125,0.0002384604886174202,0.00005117757245898247,0.0011567805195227265
1738772918740805400,9.132805419921874,-0.0017937520751729608,0.000558322761207819,0.0003848375636152923
1738772918750796500,9.142796630859374,-0.0006709633744321764,0.0009980103932321072,-0.0004716350231319666
1738772918760787500,9.152787353515626,-0.0008238368318416178,-0.0008049749303609133,-0.000373165967175737
1738772918770779400,9.162779296875,0.00159457977861166,0.00022460310719907284,0.002047114772722125
1738772918780770600,9.1727705078125,0.00011383986566215754,0.002245831536129117,0.000866038491949439
1738772918790761500,9.182761474609375,-0.0005026818835176528,0.000885488698258996,-0.0008602224988862872
1738772918800752400,9.19275244140625,-0.00016549776773899794,-0.0007750573568046093,0.0004216238739900291
1738772918810743600,9.20274365234375,0.0002651353133842349,0.0010689154732972383,-0.0010798664297908545
1738772918820735500,9.212735595703125,-0.00006879772990942001,0.0007838523015379906,0.001202407293021679
1738772918830726400,9.222726318359374,0.00046916084829717875,-0.0018923585303127766,0.00002422490797471255
1738772918840717600,9.232717529296876,-0.0012251315638422966,0.0001868908293545246,0.0003619056660681963
1738772918850708500,9.24270849609375,0.0002806197153404355,0.0011581452563405037,-0.0013116247719153762
1738772918860699400,9.252699462890625,-0.0008461934048682451,-0.0000858907587826252,-0.0008717484306544065
1738772918870690600,9.262690673828125,-0.0007468574913218617,-0.0025301401037722826,0.001110708573833108
1738772918880682500,9.2726826171875,0.00007271161302924156,0.000503090675920248,0.0003154303994961083
1738772918890673400,9.28267333984375,0.0012122782645747066,0.000773135107010603,0.00041023895028047264
1738772918900664600,9.29266455078125,0.0008094004588201642,-0.0009431818034499884,0.0010225435253232718
1738772918910655500,9.302655517578126,0.0003377546090632677,-0.0006270646117627621,0.0005588872008956969
1738772918920646400,9.312646484375,0.0003718301886692643,-0.0006375208031386137,0.0002950787602458149
1738772918930638600,9.322638671875,0.0005918073002249002,-0.0007648200262337923,-0.0005291695706546307
1738772918940629500,9.33262939453125,-0.0005671842372976243,0.0010929226409643888,0.000375168863683939
1738772918950620400,9.342620361328125,0.001123124035075307,0.0010015761945396662,0.0004521341761574149
1738772918960611600,9.352611572265625,-0.0005657389992848039,0.0003379771951586008,0.00016572509775869548
1738772918970602500,9.3626025390625,-0.001866426900960505,-0.002272187266498804,0.00014761558850295842
1738772918980593400,9.372593505859374,0.0001342586474493146,0.00013338378630578518,0.00011153263039886951
1738772918990585600,9.382585693359376,0.0013899391051381826,0.00021540909074246883,0.00008623261237516999
1738772919000576500,9.392576416015626,-0.00047086988342925906,-0.0004928705748170614,0.0010888983961194754
1738772919010567400,9.4025673828125,0.0003299426753073931,0.00046506826765835285,-0.0004091296868864447
1738772919020558600,9.41255859375,0.0005690206307917833,-0.0004812427796423435,-0.000371046073269099
1738772919030549500,9.422549560546875,0.0010819454910233617,0.0012543394695967436,-0.00034068606328219175
1738772919040541400,9.43254150390625,-0.0007078399648889899,0.001857358030974865,-0.000037052028346806765
1738772919050532600,9.44253271484375,-0.001442872453480959,-0.002421010285615921,0.0025158540811389685
1738772919060523500,9.4525234375,-0.001080745947547257,-0.00008049630559980869,-0.00024627038510516286
1738772919070514400,9.462514404296876,0.0005499075632542372,0.000031889183446764946,0.00017877010395750403
1738772919080505300,9.47250537109375,-0.0013371399836614728,-0.0010497865732759237,0.001708029885776341
1738772919090496500,9.48249658203125,0.0006098970770835876,-0.0016359484288841486,0.0007655371446162462
1738772919100489500,9.492489501953125,0.001097046653740108,-0.0001648254692554474,-0.001414968864992261
1738772919110480400,9.50248046875,-0.000908313668332994,0.0011611625086516142,-0.0010605021379888058
1738772919120471300,9.51247119140625,0.0006088211666792631,-0.0020435734186321497,-0.0003856868133880198
1738772919130462500,9.52246240234375,-0.00009718281216919422,-0.000607330584898591,0.00007344214827753603
1738772919140453400,9.532453369140624,0.00012931099627166986,0.00027906615287065506,-0.0005901939584873617
1738772919150445300,9.5424453125,-0.002261142246425152,-0.00030922587029635906,0.0005091589409857988
1738772919160436500,9.5524365234375,-0.0008278681198135018,0.0005155117250978947,0.0005869987071491778
1738772919170427400,9.562427490234375,0.00012687512207776308,-0.00004188809543848038,-0.0006558985915035009
1738772919180418300,9.572418212890625,-0.0010251179337501526,0.0003565405495464802,-0.0009160613408312201
1738772919190409500,9.582409423828125,0.0011253845877945423,-0.00011563766747713089,0.0017644102917984128
1738772919200400400,9.592400390625,0.000748954014852643,0.0002696625888347626,-0.0007890220149420202
1738772919210392300,9.602392333984374,-0.00016078189946711063,-0.00011596293188631535,0.0009540169266983867
1738772919220383500,9.612383544921874,0.0005796635523438454,0.0005788623820990324,-0.0006455674883909523
1738772919230374400,9.62237451171875,0.0013304087333381176,-0.0005987875629216433,0.00082210055552423
1738772919240365300,9.632365234375,0.0018874681554734707,-0.0007798506412655115,-0.0016971598379313946
1738772919250356500,9.6423564453125,-0.0010758311254903674,-0.0003044763579964638,0.0008245874778367579
1738772919260347400,9.652347412109375,0.0005760849453508854,0.0007362514734268188,0.0016886151861399412
1738772919270339300,9.66233935546875,0.0007955294568091631,0.0006438395939767361,0.0008755521266721189
1738772919280330500,9.67233056640625,0.0005312386201694608,-0.00022207782603800297,0.0006894866237416863
1738772919290321400,9.6823212890625,0.000868394854478538,0.0005624894984066486,-0.0010514217428863049
1738772919300312300,9.692312255859376,0.00000585534144192934,0.002620466286316514,0.00075183977605775
1738772919310303200,9.70230322265625,0.00047750119119882584,-0.000203816220164299,0.0008940526167862117
1738772919320295400,9.71229541015625,0.0003432539524510503,0.0014587026089429855,0.000520493253134191
1738772919330286300,9.722286376953125,0.00034298759419471025,-0.0006662334781140089,0.00060065439902246
1738772919340277500,9.732277587890625,-0.000010074698366224766,0.001678328262642026,-0.0003738377708941698
1738772919350268400,9.742268310546875,-0.0007056923350319266,0.0011819147039204836,0.0004605305730365217
1738772919360259300,9.75225927734375,0.0002612596144899726,-0.0009194861631840467,-0.0000279314408544451
1738772919370250200,9.762250244140626,0.0007928265258669853,-0.0005634215194731951,-0.00020583059813361615
1738772919380242400,9.772242431640626,-0.0007059116614982486,0.0009156384039670229,0.0009366822196170688
1738772919390233300,9.7822333984375,0.0006392509676516056,-0.0008340582717210054,0.0007654408691450953
1738772919400224300,9.792224365234375,-0.0003751715994440019,-0.00040973862633109093,0.000045150009100325406
1738772919410215400,9.80221533203125,-0.000023634405806660652,0.0011684505734592676,0.0018422511639073491
1738772919420206300,9.812206298828125,0.0018311255844309926,-0.0013897924218326807,0.0001550164888612926
1738772919430198500,9.822198486328125,-0.0004586601862683892,0.0012360841501504183,0.0003779230755753815
1738772919440189400,9.832189453125,0.0006635620957240462,-0.00042049214243888855,-0.0007502080989070237
1738772919450180400,9.842180419921876,0.00027127843350172043,0.0005667416844516993,0.000060191829106770456
1738772919460171300,9.852171142578126,0.00016232312191277742,0.0006063811015337706,0.000625855172984302
1738772919470162400,9.862162353515625,-0.0005950799095444381,-0.00029110442847013474,0.0009968335507437587
1738772919480153300,9.8721533203125,-0.0028059612959623337,0.001405562274158001,0.0005183183820918202
1738772919490145300,9.882145263671875,-0.0006986019434407353,0.000097684096544981,0.0015891754301264882
1738772919500136400,9.892136474609375,0.00026972207706421614,-0.0010065189562737942,0.00005589744250755757
1738772919510127400,9.90212744140625,0.0010921062203124166,-0.000020883046090602875,0.0020250387024134398
1738772919520118300,9.9121181640625,0.00003966549411416054,-0.0007648970931768417,-0.000944168830756098
1738772919530109400,9.922109375,0.000308644725009799,0.0003307273145765066,-0.001348436693660915
1738772919540100400,9.932100341796875,-0.000360446865670383,-0.00013241800479590893,0.0016231583431363106
1738772919550092300,9.94209228515625,-0.0006696399068459868,-0.001191290793940425,-0.000055964599596336484
1738772919560083500,9.95208349609375,-0.0007600173121318221,-0.0001931660808622837,0.0013798711588606238
1738772919570074400,9.962074462890625,0.0007175045320764184,0.0013631852343678474,-0.0008297535823658109
1738772919580065300,9.972065185546874,0.0007313437527045608,-0.00036233942955732346,-0.00039187463698908687
1738772919590056400,9.982056396484374,0.00044798338785767555,-0.000011867377907037735,-0.00037243354017846286
1738772919600048400,9.99204833984375,-0.001578022027388215,-0.0003213300369679928,-0.00032559953979216516
1738772919610039300,10.002039306640626,0.0008342693326994777,-0.0014537060633301735,0.0010920010972768068
1738772919620030500,10.012030517578125,-0.00006969750393182039,-0.0011194858234375715,0.0010012071579694748
1738772919630021400,10.022021484375,0.001233919756487012,0.0016576587222516537,0.0012052053352817893
1738772919640012300,10.03201220703125,0.0009548964444547892,0.0004359858576208353,0.0010004484793171287
1738772919650003500,10.04200341796875,0.0013325326144695282,-0.00034884759224951267,0.0006406555185094476
1738772919659995400,10.051995361328125,-0.0005197363789193332,0.0002119170967489481,0.0010735756950452924
1738772919669986300,10.061986328125,0.0006384723819792271,-0.00006691575981676579,0.0008136513060890138
1738772919679977500,10.0719775390625,0.00019004859495908022,-0.0006589042022824287,0.0013834212440997362
1738772919689968400,10.081968505859376,-0.0011292813578620553,-0.0005960534326732159,0.0008135048556141555
1738772919699959300,10.091959228515625,-0.00020162109285593033,-0.0003016421105712652,0.0018703024834394455
1738772919709951500,10.101951416015625,-0.0008516987436451018,0.00010981620289385319,0.0003256690106354654
1738772919719942400,10.1119423828125,-0.00019051239360123873,0.0015261394437402487,-0.0008296298328787088
1738772919729933300,10.121933349609375,-0.00030289782444015145,-0.0014246429782360792,-0.0008440109086222947
1738772919739924500,10.131924560546874,-0.0009394638473168015,0.0005685994401574135,-0.00025585759431123734
1738772919749915400,10.141915283203126,0.00004723737947642803,0.0024988586083054543,-0.00012802585843019187
1738772919759906300,10.15190625,-0.0016777011333033442,-0.0009744809940457344,0.00003625986573752016
1738772919769898500,10.1618984375,-0.0007487905095331371,-0.0004809971433132887,-0.00006307604053290561
1738772919779889400,10.171889404296875,0.0015409343177452683,-0.00006358465179800987,0.00026990167680196464
1738772919789880300,10.18188037109375,0.001127345603890717,0.0010333715472370386,-0.000509871868416667
1738772919799871200,10.191871337890625,-0.0005946460296399891,-0.00020269700326025486,0.000737308117095381
1738772919809862400,10.2018623046875,0.00044984568376094103,-0.0011201559100300074,0.0012718046782538295
1738772919819853300,10.211853271484374,0.0015599492471665144,0.0008035749197006226,0.00026714836712926626
1738772919829845500,10.221845458984374,0.0006885628681629896,-0.0007626302540302277,-0.00012646682444028556
1738772919839836400,10.23183642578125,-0.0006983103230595589,-0.0017007405404001474,-0.00035227416083216667
1738772919849827300,10.241827392578125,0.0005821374943479896,-0.0011792934965342283,0.0010850338730961084
1738772919859818200,10.251818359375,-0.0017014406621456146,0.0008813019376248121,0.0005164183676242828
1738772919869809400,10.261809326171875,-0.0018798725213855505,-0.0006604020018130541,0.0010186904110014439
1738772919879801300,10.27180126953125,0.0005124517483636737,-0.00037121353670954704,-0.0005236681317910552
1738772919889792300,10.281792236328124,-0.0010790532687678933,0.00009430712088942528,0.00024971383390948176
1738772919899783400,10.291783447265624,-0.00006894988473504782,-0.00008282926864922047,0.0019269894110038877
1738772919909774300,10.3017744140625,0.0017049816669896245,-0.0011835135519504547,0.0014904973795637488
1738772919919765200,10.31176513671875,0.000895763048902154,-0.00018556136637926102,0.00019167232676409185
1738772919929756400,10.32175634765625,-0.0007737726555205882,-0.0001645225565880537,0.00004679636185755953
1738772919939748400,10.331748291015625,0.0005689972313120961,0.0010418808087706566,0.0008098314283415675
1738772919949739300,10.3417392578125,0.0017256081337109208,0.00003334181383252144,0.0011491180630400777
1738772919959730400,10.35173046875,-0.00011134636588394642,0.0002024832647293806,0.0005637650610879064
1738772919969721300,10.361721435546874,-0.000034647295251488686,0.0008323208894580603,0.0002841331297531724
1738772919979712300,10.371712158203126,-0.0011139246635138988,-0.0005159631837159395,0.0011999160051345825
1738772919989703400,10.381703369140626,0.000739102833904326,-0.0010920048225671053,0.00014450533490162343
1738772919999695400,10.3916953125,-0.0004883290966972709,-0.0013081489596515894,0.0004562020185403526
1738772920009686300,10.401686279296875,-0.0009415991371497512,-0.00013902131468057632,0.0006868317723274231
1738772920019677400,10.411677490234375,-0.00014927342999726534,0.0010440528858453035,0.0002273159334436059
1738772920029668400,10.42166845703125,0.0005849601002410054,-0.0017032641917467117,0.0006627427646890283
1738772920039659300,10.4316591796875,0.00002345186658203602,-0.0001907495316118002,0.00028976312023587525
1738772920049650400,10.441650390625,0.00027458800468593836,-0.0003233749885112047,0.00055235082982108
1738772920059642400,10.451642333984376,-0.0014836861519142985,0.0010012954007834196,-2.534361556172371e-7
1738772920069633300,10.46163330078125,0.00009823159780353308,-0.0003862115554511547,0.0006410357309505343
1738772920079624400,10.47162451171875,-0.00039725302485749125,0.000050977105274796486,0.0007699239067733288
1738772920089615400,10.481615478515625,0.0014350018464028835,-0.0009280010126531124,0.0011962959542870522
1738772920099605200,10.491605224609375,-0.0006466250051744282,0.00022551417350769043,0.000152914464706555
1738772920109597200,10.50159716796875,-0.0004423605278134346,-0.001756942830979824,0.00031776411924511194
1738772920119588400,10.51158837890625,0.00025143264792859554,0.0009887136984616518,0.00037684247945435345
1738772920129579300,10.521579345703126,-0.0011533848010003567,0.0001660629641264677,-0.0003105193900410086
1738772920139570200,10.531570068359375,0.0003553383285179734,-0.0005374811589717865,0.0013323308667168021
1738772920149561300,10.541561279296875,-0.0016233903588727117,0.00045561138540506363,0.0008268629317171872
1738772920159552300,10.55155224609375,-0.0016091071302071214,0.00016828137449920177,0.0003728691954165697
1738772920169544200,10.561544189453125,-0.00008764327503740788,-0.0011630328372120857,0.0009837982943281531
1738772920179535400,10.571535400390625,0.00033922656439244747,-0.0007503365632146597,0.00009774468344403431
1738772920189526300,10.5815263671875,-0.0008346948307007551,0.00016366061754524708,-0.000022896512746228836
1738772920199517200,10.59151708984375,-0.0011156932450830936,-0.00012689409777522087,0.0010655553778633475
1738772920209508400,10.60150830078125,0.0014830193249508739,0.00024514924734830856,0.000995514215901494
1738772920219499300,10.611499267578125,-0.0003914784756489098,-0.00021193199791014194,0.0018847553292289376
1738772920229491200,10.6214912109375,0.0010050830896943808,-0.0000806380994617939,0.0001843271020334214
1738772920239482400,10.631482421875,-0.0007907310500741005,0.0011475319042801857,0.0005704266368411481
1738772920249473300,10.641473388671875,0.0004393830895423889,0.00039838487282395363,-0.00010867942910408601
1738772920259464200,10.651464111328124,0.0007467574905604124,-0.00024983915500342846,0.001091834856197238
1738772920269455400,10.661455322265626,0.0014751320704817772,-0.00020642951130867004,-0.00008714650175534189
1738772920279446300,10.6714462890625,-0.0015373288188129663,-0.00003222282975912094,-0.0004025624948553741
1738772920289438200,10.681438232421876,0.00028027850203216076,0.00029188371263444424,0.0014789607375860214
1738772920299429400,10.691429443359375,0.0013382144970819354,0.0007236020173877478,-0.0003832594957202673
1738772920309420300,10.701420166015625,-0.0004216023371554911,0.00007432303391397,0.00013232849596533924
1738772920319411200,10.7114111328125,-0.0002060486003756523,0.00020163459703326225,-0.0009032048401422799
1738772920329402000,10.721402099609374,0.0018741465173661709,-0.0008761468343436718,0.0002744450466707349
1738772920339394300,10.731394287109374,-0.00020125554874539375,0.0009364399593323469,-0.0001821041660150513
1738772920349385200,10.74138525390625,-0.0005802233936265111,0.0003159234765917063,0.0011513405479490757
1738772920359376400,10.75137646484375,-0.0004984908155165613,0.0019313066732138395,-0.0005909221945330501
1738772920369367300,10.7613671875,0.00034599751234054565,-0.0006644763052463531,-0.0006330001051537693
1738772920379358200,10.771358154296875,-0.0002536751562729478,0.001285569742321968,-0.0004658353282138705
1738772920389349000,10.78134912109375,-0.000536769162863493,0.0002277619205415249,0.00043324785656295717
1738772920399341300,10.79134130859375,0.00003659853246062994,0.00032429350540041924,0.0013499113265424967
1738772920409332200,10.801332275390624,0.0007220961851999164,-0.0011982356663793325,-0.00048420767416246235
1738772920419323100,10.8113232421875,-0.0004320013686083257,-0.00035228393971920013,0.000473160354886204
1738772920429314300,10.821314208984376,0.001099316286854446,-0.0016061002388596535,0.0006252268794924021
1738772920439305200,10.83130517578125,0.00029103527776896954,0.000024948036298155785,-0.0009862028528004885
1738772920449296100,10.841296142578125,-0.0007382764015346766,0.0004100410733371973,0.0015778886154294014
1738772920459288300,10.851288330078125,-0.0019580686930567026,0.0012769231107085943,0.0006625002133660018
1738772920469279200,10.861279296875,-0.00019718671683222055,0.0013453660067170858,-0.0004789305676240474
1738772920479270100,10.871270263671875,-0.00025939312763512135,-0.00007528788410127163,0.0008184242178685963
1738772920489261300,10.88126123046875,-0.0007001463091000915,-0.0003320164978504181,-0.0006601627683266997
1738772920499252200,10.891252197265626,0.00014946551527827978,-0.0013576701749116182,-0.00041736214188858867
1738772920509243100,10.9012431640625,-0.000718725030310452,0.00003090198151767254,0.0008590910001657903
1738772920519235300,10.9112353515625,0.00008569983765482903,-0.00020499667152762413,0.0011795909376814961
1738772920529226200,10.921226318359375,0.000635908916592598,0.0006701180245727301,0.00019288971088826656
1738772920539217200,10.931217041015625,-0.0006688834982924163,0.00033641234040260315,0.0007917765760794282
1738772920549208300,10.941208251953125,0.0003921198658645153,0.001429906114935875,0.0011568960035219789
1738772920559199200,10.95119921875,0.0004456050228327513,-0.00013272743672132492,-0.00046781630953773856
1738772920569190100,10.961190185546876,0.0006416137330234051,-0.00042487611062824726,-0.00044810891267843544
1738772920579182300,10.971182373046876,-0.0000637503108009696,0.0012030752841383219,0.0015141036128625274
1738772920589173200,10.98117333984375,0.00007766345515847206,-0.0004534109029918909,0.0006586964009329677
1738772920599164200,10.9911640625,-0.0007683873409405351,-0.0007773132529109716,-0.0006485737394541502
1738772920609155300,11.0011552734375,-0.001449357601813972,0.001419261796399951,-0.00012552890984807163
1738772920619146200,11.011146240234375,0.0004277715925127268,-0.0006029051728546619,0.000225856521865353
1738772920629138200,11.02113818359375,0.0010301786242052913,-0.0007602979894727468,0.0006282601389102638
1738772920639129300,11.03112939453125,0.0008937906241044402,-0.00012624799273908138,0.00016081985086202621
1738772920649120300,11.041120361328124,-0.0011472561163827777,0.0002553828526288271,0.0005120908026583493
1738772920659111200,11.051111083984376,-0.001250660396181047,-0.0005388329736888409,-0.0002932000788860023
1738772920669102300,11.061102294921875,-0.0004905942478217185,0.0005701072514057159,-0.0003792201750911772
1738772920679093200,11.07109326171875,-0.0006551946280524135,-0.00045416830107569695,-0.0010704697342589498
1738772920689085200,11.081085205078125,0.0011315200245007873,-0.0014115746598690748,-0.00133918272331357
1738772920699076400,11.091076416015625,0.0009984024800360203,-0.0006751841865479946,-0.0013048307737335563
1738772920709067300,11.1010673828125,0.000058306497521698475,-0.0019186139106750488,0.00027921743458136916
1738772920719058200,11.11105810546875,0.0006627343827858567,-0.0005962089635431767,-0.0004902559448964894
1738772920729049000,11.121049072265626,0.0009442305890843272,-0.0003309580497443676,0.0009300077799707651
1738772920739040300,11.131040283203125,-0.0003823207225650549,-0.0010385746136307716,0.0008670361712574959
1738772920749032200,11.1410322265625,-0.0009088276419788599,0.0006237702909857035,0.0001527763088233769
1738772920759023400,11.1510234375,-0.0010302909649908543,-0.0006402537692338228,0.0009891941444948316
1738772920769014300,11.16101416015625,0.00021953042596578598,0.000456702196970582,0.000019270875782240182
1738772920779005200,11.171005126953125,-0.0006736047216691077,-0.0004659735132008791,0.0019457862945273519
1738772920788996000,11.18099609375,0.0012870145728811622,-0.00039007351733744144,0.002643534680828452
1738772920798987300,11.1909873046875,0.0008634576806798577,0.00014249049127101898,0.0011465051211416721
1738772920808979200,11.200979248046876,0.0006448120111599565,-0.00021996581926941872,-0.0003262228856328875
1738772920818970000,11.21097021484375,0.0018626009114086628,-0.00013695703819394112,0.0012260861694812775
1738772920828961300,11.220961181640625,-0.00042239128379151225,-0.0014704018831253052,-0.0008738163742236793
1738772920838952200,11.2309521484375,-0.000017547165043652058,0.0008388704154640436,0.0007763424655422568
1738772920848943400,11.240943359375,0.001131340628489852,-0.0005265320651233196,-0.0009238196071237326
1738772920858934500,11.2509345703125,-0.00006022467277944088,-0.0007156759966164827,0.0010402731131762266
1738772920868926200,11.26092626953125,0.00037280539982020855,0.0002912650816142559,0.0005734210135415196
1738772920878917000,11.270917236328126,0.0002865847200155258,-0.0015808118041604757,0.0014205416664481163
1738772920888908300,11.280908203125,-0.0009555135620757937,0.001698072301223874,-0.00025192348402924836
1738772920898899200,11.290899169921875,0.0008898096857592463,-0.00008564419113099575,0.0011904389830306172
1738772920908890400,11.300890380859375,0.0010807582875713706,-0.00246624369174242,0.0008231890387833118
1738772920918881500,11.310881591796875,-0.0010494355810806155,0.00037676235660910606,-0.0009707228164188564
1738772920928873200,11.320873291015625,0.0003194292075932026,0.0014758487232029438,0.00022290599008556455
1738772920938864000,11.330864013671874,-0.0005330409621819854,-0.0004429132677614689,0.00003163557266816497
1738772920948855300,11.340855224609374,-0.0001860311022028327,-0.0016445314977318048,0.00032564857974648476
1738772920958846200,11.35084619140625,0.0017919334350153804,0.00012440048158168793,-0.0004565361305139959
1738772920968837400,11.36083740234375,0.00017246510833501816,0.0006117592565715313,-0.001462145708501339
1738772920978828500,11.37082861328125,-0.0002448534360155463,-0.0016854701098054647,0.002614285796880722
1738772920988820200,11.3808203125,-0.0013308905763551593,0.00005197618156671524,-0.00003689108416438103
1738772920998811100,11.39081103515625,-0.000017378129996359348,0.00021308055147528648,-0.0004326988710090518
1738772921008802300,11.40080224609375,0.0008297733729705215,-0.00024125468917191029,-0.0007362992619164288
1738772921018793500,11.41079345703125,-0.0002477115485817194,-0.0007792864926159382,0.0011852022726088762
1738772921028784400,11.420784423828126,-0.0010008534882217646,0.00044097378849983215,-0.0001176160221803002
1738772921038776300,11.4307763671875,-0.0020559171680361032,-0.0008046242874115705,-0.0004690200148615986
1738772921048767200,11.440767333984375,-0.00037120142951607704,-0.0011191435623914003,0.0018774912459775805
