time,seconds_elapsed,z,y,x
1738771800168119600,0.03411962890625,-1.0030517578125,-0.0192718505859375,-0.00360107421875
1738771800178110500,0.0441103515625,-1.0038909912109375,-0.018585205078125,-0.003265380859375
1738771800188102400,0.054102294921875,-1.0040283203125,-0.019744873046875,-0.003265380859375
1738771800198093300,0.06409326171875,-1.0040435791015625,-0.01702880859375,-0.0038299560546875
1738771800208085500,0.07408544921875,-1.0042266845703125,-0.0176239013671875,-0.003173828125
1738771800218076400,0.084076416015625,-1.0040740966796875,-0.0191497802734375,-0.001953125
1738771800228068600,0.094068603515625,-1.00567626953125,-0.0191192626953125,-0.0027923583984375
1738771800238059500,0.1040595703125,-1.0045623779296875,-0.0184783935546875,-0.00299072265625
1738771800248051500,0.114051513671875,-1.0040740966796875,-0.019989013671875,-0.003509521484375
1738771800258042600,0.124042724609375,-1.0041656494140625,-0.018463134765625,-0.0027313232421875
1738771800268034600,0.13403466796875,-1.004486083984375,-0.017974853515625,-0.00311279296875
1738771800278025500,0.144025390625,-1.0048065185546875,-0.0184783935546875,-0.002593994140625
1738771800288017400,0.154017333984375,-1.004058837890625,-0.018951416015625,-0.0034027099609375
1738771800298008300,0.16400830078125,-1.003692626953125,-0.0181121826171875,-0.002197265625
1738771800307999500,0.17399951171875,-1.0038909912109375,-0.018707275390625,-0.003204345703125
1738771800317991400,0.183991455078125,-1.0034027099609375,-0.0190582275390625,-0.0036773681640625
1738771800327982300,0.193982421875,-1.0036468505859375,-0.0188751220703125,-0.0026397705078125
1738771800337974500,0.203974609375,-1.005645751953125,-0.0189208984375,-0.003204345703125
1738771800347965400,0.21396533203125,-1.00244140625,-0.0186004638671875,-0.002655029296875
1738771800357957400,0.223957275390625,-1.0037689208984375,-0.016693115234375,-0.0023040771484375
1738771800367948500,0.233948486328125,-1.006072998046875,-0.017852783203125,-0.001953125
1738771800377940500,0.2439404296875,-1.00469970703125,-0.0177459716796875,-0.0033111572265625
1738771800387931600,0.253931640625,-1.0043487548828125,-0.018310546875,-0.0028533935546875
1738771800397923600,0.263923583984375,-1.004119873046875,-0.0176544189453125,-0.0042724609375
1738771800407914500,0.27391455078125,-1.0030517578125,-0.017364501953125,-0.0035400390625
1738771800417906400,0.283906494140625,-1.00201416015625,-0.0179443359375,-0.0022735595703125
1738771800427897300,0.2938974609375,-1.0051727294921875,-0.0185699462890625,-0.0036468505859375
1738771800437889500,0.3038896484375,-1.0047760009765625,-0.018768310546875,-0.0042724609375
1738771800447880400,0.31388037109375,-1.004638671875,-0.0190887451171875,-0.00372314453125
1738771800457872400,0.323872314453125,-1.004058837890625,-0.018707275390625,-0.0018768310546875
1738771800467863600,0.333863525390625,-1.0034027099609375,-0.0188446044921875,-0.0024261474609375
1738771800477855500,0.34385546875,-1.0052947998046875,-0.01861572265625,-0.0027008056640625
1738771800487846400,0.353846435546875,-1.0034332275390625,-0.0186309814453125,-0.0031585693359375
1738771800497838600,0.363838623046875,-1.0037994384765625,-0.0181884765625,-0.0035552978515625
1738771800507829500,0.37382958984375,-1.0035247802734375,-0.0171661376953125,-0.0032501220703125
1738771800517821400,0.383821533203125,-1.004180908203125,-0.0184326171875,-0.0034027099609375
1738771800527812600,0.3938125,-1.0057373046875,-0.0194091796875,-0.0024566650390625
1738771800537804300,0.40380419921875,-1.0053863525390625,-0.019317626953125,-0.0028228759765625
1738771800547795500,0.41379541015625,-1.0036468505859375,-0.018463134765625,-0.0027923583984375
1738771800557786400,0.423786376953125,-1.00244140625,-0.01751708984375,-0.0038299560546875
1738771800567778600,0.433778564453125,-1.00311279296875,-0.017669677734375,-0.0024261474609375
1738771800577769500,0.44376953125,-1.0050048828125,-0.0188751220703125,-0.003326416015625
1738771800587761400,0.453761474609375,-1.004241943359375,-0.01861572265625,-0.0037384033203125
1738771800597752600,0.463752685546875,-1.005096435546875,-0.017852783203125,-0.003570556640625
1738771800607744500,0.47374462890625,-1.005126953125,-0.0185699462890625,-0.003143310546875
1738771800617735400,0.4837353515625,-1.0047760009765625,-0.0181884765625,-0.001922607421875
1738771800627727600,0.4937275390625,-1.0049591064453125,-0.0179443359375,-0.0023193359375
1738771800637718500,0.503718505859375,-1.0033721923828125,-0.0191192626953125,-0.0031585693359375
1738771800647710500,0.51371044921875,-1.00445556640625,-0.0168914794921875,-0.0039825439453125
1738771800657701400,0.523701416015625,-1.0034027099609375,-0.0179901123046875,-0.0012664794921875
1738771800667693300,0.533693359375,-1.0037078857421875,-0.0175018310546875,-0.0025634765625
1738771800677684500,0.5436845703125,-1.0060577392578125,-0.0179443359375,-0.00225830078125
1738771800687676400,0.553676513671875,-1.0048980712890625,-0.018585205078125,-0.0024566650390625
1738771800697667300,0.563667236328125,-1.004364013671875,-0.01776123046875,-0.00274658203125
1738771800707659500,0.573659423828125,-1.004913330078125,-0.0191650390625,-0.0023193359375
1738771800717650400,0.583650390625,-1.006072998046875,-0.0189208984375,-0.00250244140625
1738771800727642600,0.593642578125,-1.0050048828125,-0.0182342529296875,-0.0028076171875
1738771800737633500,0.603633544921875,-1.0048370361328125,-0.0185089111328125,-0.0030975341796875
1738771800747625500,0.61362548828125,-1.0051116943359375,-0.0177764892578125,-0.0025634765625
1738771800757616600,0.62361669921875,-1.003814697265625,-0.019683837890625,-0.00238037109375
1738771800767608300,0.6336083984375,-1.0032501220703125,-0.0183868408203125,-0.0028076171875
1738771800777599500,0.643599609375,-1.0036468505859375,-0.017822265625,-0.0015411376953125
1738771800787591400,0.65359130859375,-1.0039825439453125,-0.01922607421875,-0.00335693359375
1738771800797582300,0.663582275390625,-1.0041046142578125,-0.0186004638671875,-0.003570556640625
1738771800807574500,0.673574462890625,-1.0046234130859375,-0.01873779296875,-0.003082275390625
1738771800817565400,0.6835654296875,-1.0042572021484375,-0.0184783935546875,-0.0028839111328125
1738771800827558000,0.693557861328125,-1.0062408447265625,-0.0175933837890625,-0.0034332275390625
1738771800837548800,0.703548828125,-1.0048675537109375,-0.018218994140625,-0.0031890869140625
1738771800847539700,0.713539794921875,-1.0037078857421875,-0.01849365234375,-0.003753662109375
1738771800857532000,0.723531982421875,-1.004302978515625,-0.0180206298828125,-0.001617431640625
1738771800867522800,0.733522705078125,-1.0030517578125,-0.018798828125,-0.003387451171875
1738771800877514800,0.7435146484375,-1.0046539306640625,-0.019744873046875,-0.002685546875
1738771800887505700,0.753505615234375,-1.0042572021484375,-0.0178680419921875,-0.0030670166015625
1738771800897497600,0.76349755859375,-1.00616455078125,-0.0183868408203125,-0.0038604736328125
1738771800907488800,0.77348876953125,-1.0037384033203125,-0.019012451171875,-0.0019989013671875
1738771800917480700,0.783480712890625,-1.0036468505859375,-0.017822265625,-0.00244140625
1738771800927471600,0.7934716796875,-1.003143310546875,-0.0175018310546875,-0.0025787353515625
1738771800937463800,0.8034638671875,-1.004547119140625,-0.018463134765625,-0.002349853515625
1738771800947454700,0.813454833984375,-1.0049285888671875,-0.017730712890625,-0.0035247802734375
1738771800957447000,0.823447021484375,-1.004913330078125,-0.0192413330078125,-0.0022125244140625
1738771800967437800,0.833437744140625,-1.003448486328125,-0.0185089111328125,-0.002777099609375
1738771800977429500,0.843429443359375,-1.00494384765625,-0.0185394287109375,-0.003448486328125
1738771800987420700,0.853420654296875,-1.0045318603515625,-0.018157958984375,-0.00164794921875
1738771800997412600,0.86341259765625,-1.0050201416015625,-0.0186767578125,-0.0040435791015625
1738771801007403500,0.873403564453125,-1.0031280517578125,-0.018646240234375,-0.0012969970703125
1738771801017395700,0.883395751953125,-1.00531005859375,-0.018341064453125,-0.003173828125
1738771801027386600,0.89338671875,-1.0047760009765625,-0.018890380859375,-0.0028839111328125
1738771801037378800,0.90337890625,-1.004974365234375,-0.0191497802734375,-0.0025177001953125
1738771801047369700,0.91336962890625,-1.004119873046875,-0.017669677734375,-0.002838134765625
1738771801057362000,0.92336181640625,-1.003814697265625,-0.018585205078125,-0.0018463134765625
1738771801067352800,0.933352783203125,-1.0040740966796875,-0.018646240234375,-0.0020294189453125
1738771801077344800,0.9433447265625,-1.0039520263671875,-0.019073486328125,-0.0035400390625
1738771801087336000,0.9533359375,-1.0042724609375,-0.01824951171875,-0.0030059814453125
1738771801097327600,0.96332763671875,-1.00433349609375,-0.0188140869140625,-0.0020599365234375
1738771801107318500,0.973318603515625,-1.0044708251953125,-0.01922607421875,-0.003082275390625
1738771801117310700,0.983310791015625,-1.0046844482421875,-0.017791748046875,-0.002685546875
1738771801127301600,0.993301513671875,-1.0048980712890625,-0.01776123046875,-0.0023345947265625
1738771801137293800,1.0032939453125,-1.00457763671875,-0.018798828125,-0.003814697265625
1738771801147284700,1.01328466796875,-1.00299072265625,-0.0171356201171875,-0.00274658203125
1738771801157275600,1.023275634765625,-1.0035247802734375,-0.017364501953125,-0.00201416015625
1738771801167267800,1.033267822265625,-1.004150390625,-0.01898193359375,-0.00396728515625
1738771801177258800,1.0432587890625,-1.0045928955078125,-0.0182037353515625,-0.00274658203125
1738771801187250700,1.053250732421875,-1.0031280517578125,-0.0177459716796875,-0.0037841796875
1738771801197241900,1.063241943359375,-1.004608154296875,-0.019622802734375,-0.0033111572265625
1738771801207233800,1.07323388671875,-1.0056304931640625,-0.0190277099609375,-0.0028533935546875
1738771801217225000,1.083224853515625,-1.0041046142578125,-0.0172119140625,-0.0034027099609375
1738771801227216600,1.093216552734375,-1.004425048828125,-0.0178985595703125,-0.0027313232421875
1738771801237207600,1.10320751953125,-1.0045013427734375,-0.0188140869140625,-0.0030670166015625
1738771801247199700,1.11319970703125,-1.0039215087890625,-0.0183868408203125,-0.0024566650390625
1738771801257190700,1.123190673828125,-1.0034637451171875,-0.01690673828125,-0.00347900390625
1738771801267182800,1.133182861328125,-1.0048828125,-0.01849365234375,-0.003021240234375
1738771801277173800,1.143173828125,-1.005157470703125,-0.0174560546875,-0.0022430419921875
1738771801287165700,1.153165771484375,-1.0035247802734375,-0.018402099609375,-0.0020751953125
1738771801297156900,1.163156982421875,-1.0045623779296875,-0.0185394287109375,-0.002532958984375
1738771801307148800,1.173148681640625,-1.0056915283203125,-0.0174407958984375,-0.002227783203125
1738771801317139700,1.1831396484375,-1.0045623779296875,-0.0186614990234375,-0.003204345703125
1738771801327131600,1.193131591796875,-1.0039520263671875,-0.019134521484375,-0.002288818359375
1738771801337122600,1.20312255859375,-1.0039825439453125,-0.0186614990234375,-0.00274658203125
1738771801347114800,1.21311474609375,-1.0046844482421875,-0.018951416015625,-0.00262451171875
1738771801357105700,1.223105712890625,-1.0045623779296875,-0.018341064453125,-0.003326416015625
1738771801367097600,1.23309765625,-1.0040130615234375,-0.01788330078125,-0.00360107421875
1738771801377088800,1.2430888671875,-1.0026092529296875,-0.0188446044921875,-0.00299072265625
1738771801387080700,1.253080810546875,-1.0039825439453125,-0.0188446044921875,-0.0029754638671875
1738771801397072000,1.26307177734375,-1.00384521484375,-0.0164947509765625,-0.0024566650390625
1738771801407062800,1.273062744140625,-1.0035552978515625,-0.01800537109375,-0.00225830078125
1738771801417054700,1.2830546875,-1.0049591064453125,-0.0182647705078125,-0.0017852783203125
1738771801427046000,1.2930458984375,-1.00653076171875,-0.0184478759765625,-0.0030059814453125
1738771801437037800,1.303037841796875,-1.004913330078125,-0.01763916015625,-0.0031585693359375
1738771801447028700,1.31302880859375,-1.0044708251953125,-0.0187835693359375,-0.00445556640625
1738771801457020700,1.323020751953125,-1.0049591064453125,-0.01812744140625,-0.003082275390625
1738771801467011600,1.333011474609375,-1.0044403076171875,-0.0181121826171875,-0.003570556640625
1738771801477003800,1.343003662109375,-1.005401611328125,-0.01849365234375,-0.0026702880859375
1738771801486994700,1.35299462890625,-1.0032196044921875,-0.0181884765625,-0.00347900390625
1738771801496986600,1.362986572265625,-1.0046234130859375,-0.01812744140625,-0.0025482177734375
1738771801506977800,1.372977783203125,-1.004425048828125,-0.0176544189453125,-0.002197265625
1738771801516969700,1.3829697265625,-1.0042572021484375,-0.0185394287109375,-0.0029296875
1738771801526960600,1.392960693359375,-1.0053558349609375,-0.019134521484375,-0.002716064453125
1738771801536952800,1.402952880859375,-1.00531005859375,-0.0187530517578125,-0.0012359619140625
1738771801546943700,1.41294384765625,-1.0043792724609375,-0.0175018310546875,-0.003509521484375
1738771801556935700,1.422935791015625,-1.004241943359375,-0.0191497802734375,-0.0041961669921875
1738771801566926600,1.432926513671875,-1.004241943359375,-0.0183563232421875,-0.0025482177734375
1738771801576918800,1.442918701171875,-1.004119873046875,-0.0185699462890625,-0.003082275390625
1738771801586909700,1.45290966796875,-1.004150390625,-0.0183258056640625,-0.0031890869140625
1738771801596901600,1.462901611328125,-1.00408935546875,-0.01873779296875,-0.00250244140625
1738771801606892800,1.472892822265625,-1.0037689208984375,-0.017852783203125,-0.0025177001953125
1738771801616884700,1.482884765625,-1.005126953125,-0.018280029296875,-0.00244140625
1738771801626875600,1.492875732421875,-1.003570556640625,-0.0202484130859375,-0.002777099609375
1738771801636866800,1.50286669921875,-1.0045013427734375,-0.018463134765625,-0.001922607421875
1738771801646858800,1.512858642578125,-1.004180908203125,-0.0189971923828125,-0.0024566650390625
1738771801656849700,1.522849609375,-1.0035552978515625,-0.0177154541015625,-0.002838134765625
1738771801666841900,1.532841796875,-1.0036163330078125,-0.018218994140625,-0.002838134765625
1738771801676832800,1.542832763671875,-1.0041656494140625,-0.01849365234375,-0.00311279296875
1738771801686824700,1.55282470703125,-1.0041656494140625,-0.0194549560546875,-0.002960205078125
1738771801696815600,1.562815673828125,-1.003692626953125,-0.016815185546875,-0.003509521484375
1738771801706807600,1.5728076171875,-1.00518798828125,-0.017303466796875,-0.002655029296875
1738771801716798700,1.582798828125,-1.00408935546875,-0.0179595947265625,-0.0023345947265625
1738771801726790700,1.592790771484375,-1.0049896240234375,-0.018035888671875,-0.002593994140625
1738771801736781800,1.60278173828125,-1.003173828125,-0.0178985595703125,-0.003265380859375
1738771801746773800,1.612773681640625,-1.003997802734375,-0.0181884765625,-0.001800537109375
1738771801756764700,1.6227646484375,-1.0047149658203125,-0.0183868408203125,-0.0033721923828125
1738771801766756900,1.6327568359375,-1.003173828125,-0.0183258056640625,-0.003143310546875
1738771801776747800,1.642747802734375,-1.00323486328125,-0.0176544189453125,-0.002166748046875
1738771801786739700,1.65273974609375,-1.0049285888671875,-0.01934814453125,-0.0024566650390625
1738771801796731000,1.66273095703125,-1.003936767578125,-0.019073486328125,-0.0032501220703125
1738771801806722600,1.67272265625,-1.0046234130859375,-0.018707275390625,-0.0028533935546875
1738771801816713700,1.682713623046875,-1.00579833984375,-0.0171966552734375,-0.00262451171875
1738771801826704600,1.69270458984375,-1.002716064453125,-0.0189361572265625,-0.003265380859375
1738771801836696800,1.70269677734375,-1.0028839111328125,-0.0178985595703125,-0.0029296875
1738771801846687700,1.712687744140625,-1.0040740966796875,-0.018524169921875,-0.002532958984375
1738771801856680000,1.722679931640625,-1.0034332275390625,-0.0186767578125,-0.003082275390625
1738771801866670800,1.7326708984375,-1.0024566650390625,-0.018463134765625,-0.0031280517578125
1738771801876663000,1.7426630859375,-1.005126953125,-0.018951416015625,-0.00341796875
1738771801886654000,1.752654052734375,-1.004241943359375,-0.0188140869140625,-0.0026702880859375
1738771801896646000,1.76264599609375,-1.0040740966796875,-0.0172882080078125,-0.002197265625
1738771801906637000,1.772636962890625,-1.005035400390625,-0.0195770263671875,-0.0015411376953125
1738771801916628700,1.782628662109375,-1.0054168701171875,-0.018463134765625,-0.00335693359375
1738771801926619600,1.79261962890625,-1.0042266845703125,-0.0169525146484375,-0.0025787353515625
1738771801936611800,1.80261181640625,-1.004730224609375,-0.0179290771484375,-0.002532958984375
1738771801946602800,1.812602783203125,-1.004608154296875,-0.0185089111328125,-0.0029754638671875
1738771801956595000,1.822594970703125,-1.004730224609375,-0.0174560546875,-0.002777099609375
1738771801966585900,1.8325859375,-1.0045623779296875,-0.0171356201171875,-0.00299072265625
1738771801976577800,1.842577880859375,-1.003570556640625,-0.0185089111328125,-0.0035858154296875
1738771801986569000,1.85256884765625,-1.00421142578125,-0.0200958251953125,-0.0019073486328125
1738771801996560000,1.862559814453125,-1.004486083984375,-0.01702880859375,-0.003082275390625
1738771802006551800,1.8725517578125,-1.0042266845703125,-0.0177764892578125,-0.003448486328125
1738771802016543000,1.88254296875,-1.0038909912109375,-0.0178985595703125,-0.0021820068359375
1738771802026535000,1.892534912109375,-1.003936767578125,-0.0177764892578125,-0.0030364990234375
1738771802036526000,1.902526123046875,-1.0050048828125,-0.0177764892578125,-0.00360107421875
1738771802046517800,1.912517822265625,-1.0047454833984375,-0.017791748046875,-0.002105712890625
1738771802056508700,1.9225087890625,-1.00372314453125,-0.018707275390625,-0.0036163330078125
1738771802066500900,1.9325009765625,-1.0047760009765625,-0.018707275390625,-0.0028839111328125
1738771802076491800,1.94249169921875,-1.0040130615234375,-0.018585205078125,-0.002777099609375
1738771802086484000,1.95248388671875,-1.0040283203125,-0.0182037353515625,-0.0038299560546875
1738771802096475000,1.962474853515625,-1.0028533935546875,-0.0189666748046875,-0.0030670166015625
1738771802106466800,1.972466796875,-1.0030975341796875,-0.018768310546875,-0.003082275390625
1738771802116458000,1.9824580078125,-1.004241943359375,-0.018768310546875,-0.0042266845703125
1738771802126450000,1.992449951171875,-1.0039520263671875,-0.01824951171875,-0.001983642578125
1738771802136440800,2.00244091796875,-1.005401611328125,-0.01812744140625,-0.00244140625
1738771802146432800,2.012432861328125,-1.0060272216796875,-0.019439697265625,-0.0015411376953125
1738771802156423700,2.022423583984375,-1.00543212890625,-0.0186767578125,-0.0013885498046875
1738771802166416000,2.032415771484375,-1.004547119140625,-0.018402099609375,-0.003021240234375
1738771802176406800,2.04240673828125,-1.0036163330078125,-0.0177764892578125,-0.0035400390625
1738771802186398700,2.052398681640625,-1.0035400390625,-0.0189208984375,-0.0023956298828125
1738771802196390000,2.062389892578125,-1.003265380859375,-0.0180816650390625,-0.0019989013671875
1738771802206380800,2.072380859375,-1.0034027099609375,-0.0184783935546875,-0.002593994140625
1738771802216373000,2.082373046875,-1.0039215087890625,-0.0189208984375,-0.0031890869140625
1738771802226364000,2.092364013671875,-1.0047454833984375,-0.018768310546875,-0.002227783203125
1738771802236355800,2.10235595703125,-1.0042266845703125,-0.0187225341796875,-0.002593994140625
1738771802246347000,2.112346923828125,-1.0048370361328125,-0.0194091796875,-0.0030364990234375
1738771802256339000,2.1223388671875,-1.0041961669921875,-0.018524169921875,-0.003082275390625
1738771802266329900,2.132329833984375,-1.003021240234375,-0.0178680419921875,-0.0033721923828125
1738771802276321800,2.14232177734375,-1.0052947998046875,-0.0180816650390625,-0.0030975341796875
1738771802286312700,2.152312744140625,-1.003662109375,-0.0180511474609375,-0.0028228759765625
1738771802296305000,2.162304931640625,-1.004974365234375,-0.01739501953125,-0.0035247802734375
1738771802306295800,2.1722958984375,-1.0043182373046875,-0.017822265625,-0.0027313232421875
1738771802316287700,2.182287841796875,-1.0037384033203125,-0.01947021484375,-0.0017852783203125
1738771802326279000,2.19227880859375,-1.005035400390625,-0.0170440673828125,-0.003204345703125
1738771802336270800,2.202270751953125,-1.003326416015625,-0.0164947509765625,-0.0020751953125
1738771802346261800,2.21226171875,-1.0053253173828125,-0.0182037353515625,-0.0037841796875
1738771802356254000,2.22225390625,-1.0045623779296875,-0.0186309814453125,-0.0029296875
1738771802366244900,2.232244873046875,-1.0037384033203125,-0.018157958984375,-0.0035400390625
1738771802376236800,2.24223681640625,-1.0034027099609375,-0.018310546875,-0.00347900390625
1738771802386228000,2.25222802734375,-1.0057373046875,-0.01904296875,-0.0021820068359375
1738771802396219000,2.262218994140625,-1.004669189453125,-0.0198211669921875,-0.0027008056640625
1738771802406210800,2.2722109375,-1.00531005859375,-0.01953125,-0.0020599365234375
1738771802416201700,2.28220166015625,-1.003875732421875,-0.0186920166015625,-0.0022735595703125
1738771802426194000,2.29219384765625,-1.0040435791015625,-0.0183563232421875,-0.002166748046875
1738771802436184800,2.302184814453125,-1.0035858154296875,-0.018280029296875,-0.0024261474609375
1738771802446176800,2.3121767578125,-1.0038604736328125,-0.0190582275390625,-0.0030517578125
1738771802456168000,2.32216796875,-1.0043487548828125,-0.01873779296875,-0.002288818359375
1738771802466159900,2.332159912109375,-1.0047454833984375,-0.0192108154296875,-0.0030670166015625
1738771802476150800,2.34215087890625,-1.00628662109375,-0.0191192626953125,-0.0029754638671875
1738771802486143000,2.35214306640625,-1.00628662109375,-0.0177001953125,-0.0028839111328125
1738771802496134000,2.3621337890625,-1.0054779052734375,-0.018463134765625,-0.0012359619140625
1738771802506125800,2.372125732421875,-1.0038604736328125,-0.0183868408203125,-0.0038299560546875
1738771802516116700,2.38211669921875,-1.0042266845703125,-0.020172119140625,-0.0036163330078125
1738771802526108700,2.392108642578125,-1.0029144287109375,-0.017913818359375,-0.00201416015625
1738771802536099800,2.402099853515625,-1.0047454833984375,-0.017974853515625,-0.0034027099609375
1738771802546091800,2.412091796875,-1.0030975341796875,-0.01824951171875,-0.00433349609375
1738771802556083000,2.4220830078125,-1.0041961669921875,-0.01788330078125,-0.0025787353515625
1738771802566075000,2.432074951171875,-1.0058441162109375,-0.0197906494140625,-0.0019073486328125
1738771802576065800,2.442065673828125,-1.0045928955078125,-0.018524169921875,-0.00286865234375
1738771802586057000,2.452056884765625,-1.00384521484375,-0.0187835693359375,-0.00238037109375
1738771802596049000,2.462048828125,-1.0027923583984375,-0.01837158203125,-0.0012969970703125
1738771802606039800,2.472039794921875,-1.00213623046875,-0.0190582275390625,-0.00341796875
1738771802616032000,2.482031982421875,-1.003936767578125,-0.0195159912109375,-0.002349853515625
1738771802626023000,2.49202294921875,-1.0042724609375,-0.0195159912109375,-0.003173828125
1738771802636014800,2.502014892578125,-1.00592041015625,-0.018157958984375,-0.0029754638671875
1738771802646005800,2.512005859375,-1.0041046142578125,-0.017486572265625,-0.001556396484375
1738771802655997700,2.521997802734375,-1.005706787109375,-0.01812744140625,-0.0024566650390625
1738771802665988900,2.53198876953125,-1.0036468505859375,-0.0189971923828125,-0.003662109375
1738771802675980800,2.541980712890625,-1.004486083984375,-0.0192108154296875,-0.00323486328125
1738771802685971700,2.5519716796875,-1.0039825439453125,-0.0196533203125,-0.003387451171875
1738771802695964000,2.5619638671875,-1.0052337646484375,-0.0185089111328125,-0.003448486328125
1738771802705954800,2.571954833984375,-1.004364013671875,-0.0182647705078125,-0.0034942626953125
1738771802715947000,2.581947021484375,-1.00360107421875,-0.0187225341796875,-0.003662109375
1738771802725938000,2.59193798828125,-1.0048828125,-0.0194244384765625,-0.004669189453125
1738771802735929900,2.601929931640625,-1.0038299560546875,-0.0182037353515625,-0.00286865234375
1738771802745921000,2.611921142578125,-1.0037689208984375,-0.0183258056640625,-0.0030975341796875
1738771802755912700,2.62191259765625,-1.003448486328125,-0.0193023681640625,-0.0034332275390625
1738771802765904000,2.63190380859375,-1.006378173828125,-0.01934814453125,-0.0015411376953125
1738771802775895800,2.641895751953125,-1.004974365234375,-0.0186309814453125,-0.002716064453125
1738771802785886700,2.65188671875,-1.00482177734375,-0.01910400390625,-0.0050048828125
1738771802795879000,2.66187890625,-1.0056915283203125,-0.01800537109375,-0.0026397705078125
1738771802805869800,2.671869873046875,-1.001373291015625,-0.0181121826171875,-0.0035552978515625
1738771802815860700,2.68186083984375,-1.003082275390625,-0.018218994140625,-0.0024871826171875
1738771802825853000,2.69185302734375,-1.0045166015625,-0.0178680419921875,-0.0022735595703125
1738771802835843300,2.70184326171875,-1.00262451171875,-0.0191802978515625,-0.002685546875
1738771802845835500,2.71183544921875,-1.0041046142578125,-0.01898193359375,-0.00299072265625
1738771802855826400,2.721826416015625,-1.00628662109375,-0.0184326171875,-0.002471923828125
1738771802865818400,2.731818359375,-1.0062255859375,-0.0175933837890625,-0.001922607421875
1738771802875809500,2.7418095703125,-1.005859375,-0.0185394287109375,-0.0022430419921875
1738771802885801200,2.75180126953125,-1.0044708251953125,-0.017486572265625,-0.0027008056640625
1738771802895792000,2.761792236328125,-1.00311279296875,-0.017547607421875,-0.0021820068359375
1738771802905784300,2.771784423828125,-1.0034027099609375,-0.0179290771484375,-0.0028839111328125
1738771802915775200,2.781775146484375,-1.002899169921875,-0.017578125,-0.0037994384765625
1738771802925767400,2.791767333984375,-1.00311279296875,-0.017730712890625,-0.003143310546875
1738771802935758300,2.80175830078125,-1.00421142578125,-0.0190582275390625,-0.00274658203125
1738771802945750300,2.811750244140625,-1.0047760009765625,-0.0192718505859375,-0.0025482177734375
1738771802955741400,2.821741455078125,-1.004608154296875,-0.0193023681640625,-0.0025177001953125
1738771802965733400,2.8317333984375,-1.0043182373046875,-0.0177154541015625,-0.0021820068359375
1738771802975724500,2.841724609375,-1.0036773681640625,-0.0186767578125,-0.002899169921875
1738771802985715500,2.851715576171875,-1.0035247802734375,-0.018798828125,-0.003509521484375
1738771802995707400,2.861707275390625,-1.005584716796875,-0.017791748046875,-0.004119873046875
1738771803005698600,2.871698486328125,-1.0048980712890625,-0.0186920166015625,-0.002593994140625
1738771803015690200,2.881690185546875,-1.0033416748046875,-0.0190887451171875,-0.0025634765625
1738771803025681200,2.89168115234375,-1.0040283203125,-0.0192108154296875,-0.0021209716796875
1738771803035673300,2.90167333984375,-1.0036773681640625,-0.017974853515625,-0.0034942626953125
1738771803045664300,2.911664306640625,-1.002593994140625,-0.017913818359375,-0.0028839111328125
1738771803055656400,2.921656494140625,-1.0039825439453125,-0.0182342529296875,-0.0028839111328125
1738771803065647400,2.9316474609375,-1.0048675537109375,-0.0176544189453125,-0.0028076171875
1738771803075639300,2.941639404296875,-1.0048828125,-0.01837158203125,-0.002044677734375
1738771803085630500,2.95163037109375,-1.0049896240234375,-0.019012451171875,-0.0018157958984375
1738771803095622400,2.961622314453125,-1.005218505859375,-0.019378662109375,-0.00323486328125
1738771803105613600,2.971613525390625,-1.0042266845703125,-0.01861572265625,-0.00250244140625
1738771803115605200,2.981605224609375,-1.0047149658203125,-0.0181427001953125,-0.002532958984375
1738771803125596200,2.99159619140625,-1.0028076171875,-0.018096923828125,-0.0037689208984375
1738771803135588400,3.00158837890625,-1.0028533935546875,-0.0178070068359375,-0.0040435791015625
1738771803145579300,3.011579345703125,-1.004150390625,-0.01715087890625,-0.002532958984375
1738771803155570200,3.021570068359375,-1.004913330078125,-0.0175933837890625,-0.002655029296875
1738771803165562400,3.031562255859375,-1.00537109375,-0.0196075439453125,-0.0028228759765625
1738771803175553300,3.04155322265625,-1.004547119140625,-0.0190887451171875,-0.0017547607421875
1738771803185545500,3.05154541015625,-1.0068511962890625,-0.0198211669921875,-0.0030975341796875
1738771803195536400,3.061536376953125,-1.0040740966796875,-0.018035888671875,-0.0038299560546875
1738771803205528300,3.0715283203125,-1.0025787353515625,-0.0189971923828125,-0.00311279296875
1738771803215519500,3.08151953125,-1.0037384033203125,-0.01727294921875,-0.0024261474609375
1738771803225511400,3.091511474609375,-1.003173828125,-0.01824951171875,-0.00311279296875
1738771803235502300,3.10150244140625,-1.00482177734375,-0.0187530517578125,-0.0021514892578125
1738771803245494300,3.111494384765625,-1.0045623779296875,-0.0179443359375,-0.0024261474609375
1738771803255485200,3.121485107421875,-1.0036773681640625,-0.0176544189453125,-0.0036163330078125
1738771803265477400,3.131477294921875,-1.0036468505859375,-0.0193328857421875,-0.00238037109375
1738771803275468300,3.14146826171875,-1.0039520263671875,-0.019500732421875,-0.00244140625
1738771803285460200,3.151460205078125,-1.0038299560546875,-0.018768310546875,-0.0022430419921875
1738771803295451400,3.161451416015625,-1.004486083984375,-0.0173187255859375,-0.002899169921875
1738771803305443300,3.171443359375,-1.0045928955078125,-0.01715087890625,-0.003082275390625
1738771803315434500,3.1814345703125,-1.0052642822265625,-0.01885986328125,-0.0035552978515625
1738771803325425400,3.19142529296875,-1.0049591064453125,-0.017120361328125,-0.0031280517578125
1738771803335417300,3.201417236328125,-1.0032806396484375,-0.0185699462890625,-0.003387451171875
1738771803345408500,3.211408447265625,-1.0030517578125,-0.0181121826171875,-0.002227783203125
1738771803355400400,3.221400390625,-1.0025177001953125,-0.0186614990234375,-0.0027618408203125
1738771803365391400,3.231391357421875,-1.0036468505859375,-0.0175628662109375,-0.003753662109375
1738771803375383300,3.24138330078125,-1.005126953125,-0.0197906494140625,-0.002960205078125
1738771803385374200,3.251374267578125,-1.004302978515625,-0.0191802978515625,-0.0047760009765625
1738771803395366400,3.261366455078125,-1.0066070556640625,-0.01824951171875,-0.0023956298828125
1738771803405357300,3.271357421875,-1.0038299560546875,-0.0189056396484375,-0.0030975341796875
1738771803415349200,3.281349365234375,-1.0050201416015625,-0.01812744140625,-0.001953125
1738771803425340400,3.29134033203125,-1.0059356689453125,-0.018341064453125,-0.003662109375
1738771803435332400,3.301332275390625,-1.0045318603515625,-0.0186004638671875,-0.0016632080078125
1738771803445323500,3.311323486328125,-1.004852294921875,-0.018035888671875,-0.00213623046875
1738771803455315500,3.3213154296875,-1.0037841796875,-0.0178985595703125,-0.0031585693359375
1738771803465306400,3.331306396484375,-1.0036163330078125,-0.01824951171875,-0.003204345703125
1738771803475297500,3.341297607421875,-1.004058837890625,-0.019073486328125,-0.0027618408203125
1738771803485289200,3.351289306640625,-1.004974365234375,-0.0173797607421875,-0.0033416748046875
1738771803495280400,3.3612802734375,-1.00506591796875,-0.0181427001953125,-0.002044677734375
1738771803505272300,3.371272216796875,-1.00543212890625,-0.0196990966796875,-0.00341796875
1738771803515263200,3.38126318359375,-1.0037689208984375,-0.0187530517578125,-0.0028076171875
1738771803525255400,3.39125537109375,-1.0054779052734375,-0.017608642578125,-0.002838134765625
1738771803535246300,3.401246337890625,-1.0046539306640625,-0.0174407958984375,-0.0022430419921875
1738771803545238300,3.41123828125,-1.0040740966796875,-0.017608642578125,-0.004119873046875
1738771803555229400,3.4212294921875,-1.004058837890625,-0.018218994140625,-0.003997802734375
1738771803565221400,3.431221435546875,-1.003875732421875,-0.0186920166015625,-0.0038299560546875
1738771803575212300,3.44121240234375,-1.004364013671875,-0.0180206298828125,-0.0030059814453125
1738771803585204500,3.45120458984375,-1.0050201416015625,-0.018585205078125,-0.003021240234375
1738771803595195400,3.4611953125,-1.00494384765625,-0.01983642578125,-0.0025177001953125
1738771803605187300,3.471187255859375,-1.00469970703125,-0.018707275390625,-0.0030517578125
1738771803615178200,3.48117822265625,-1.0043792724609375,-0.0187835693359375,-0.0025177001953125
1738771803625169200,3.491169189453125,-1.003509521484375,-0.0188140869140625,-0.0032958984375
1738771803635161300,3.501161376953125,-1.0032958984375,-0.0174407958984375,-0.0028228759765625
1738771803645152300,3.51115234375,-1.0047149658203125,-0.0189056396484375,-0.0024261474609375
1738771803655144400,3.52114453125,-1.003173828125,-0.0174102783203125,-0.003082275390625
1738771803665135400,3.53113525390625,-1.00445556640625,-0.0175323486328125,-0.003204345703125
1738771803675127300,3.541127197265625,-1.0045623779296875,-0.0189666748046875,-0.002655029296875
1738771803685118500,3.551118408203125,-1.004547119140625,-0.017974853515625,-0.0020751953125
1738771803695110400,3.5611103515625,-1.0038604736328125,-0.01812744140625,-0.0019683837890625
1738771803705101300,3.571101318359375,-1.0049896240234375,-0.018646240234375,-0.0044403076171875
1738771803715093200,3.58109326171875,-1.0037078857421875,-0.019073486328125,-0.0037689208984375
1738771803725084400,3.59108447265625,-1.0032501220703125,-0.02008056640625,-0.002655029296875
1738771803735076400,3.601076416015625,-1.0037078857421875,-0.0180206298828125,-0.0030364990234375
1738771803745067300,3.6110673828125,-1.0037994384765625,-0.0185394287109375,-0.0021209716796875
1738771803755058200,3.62105810546875,-1.00347900390625,-0.0178680419921875,-0.003814697265625
1738771803765050400,3.63105029296875,-1.004119873046875,-0.0177764892578125,-0.002960205078125
1738771803775041300,3.641041259765625,-1.00457763671875,-0.0178680419921875,-0.0032806396484375
1738771803785033500,3.651033447265625,-1.0047607421875,-0.0184478759765625,-0.001800537109375
1738771803795024400,3.6610244140625,-1.0045318603515625,-0.018768310546875,-0.0018463134765625
1738771803805016300,3.671016357421875,-1.0037994384765625,-0.0180816650390625,-0.002716064453125
1738771803815007500,3.681007568359375,-1.0043487548828125,-0.0175628662109375,-0.003631591796875
1738771803824999400,3.69099951171875,-1.0043792724609375,-0.018280029296875,-0.0027923583984375
1738771803834990600,3.700990478515625,-1.0047149658203125,-0.01861572265625,-0.002471923828125
1738771803844982500,3.710982421875,-1.0040130615234375,-0.01837158203125,-0.00238037109375
1738771803854973400,3.720973388671875,-1.00457763671875,-0.017791748046875,-0.0024261474609375
1738771803864965600,3.730965576171875,-1.0030975341796875,-0.017669677734375,-0.003173828125
1738771803874956500,3.74095654296875,-1.0049591064453125,-0.0177154541015625,-0.0039520263671875
1738771803884947500,3.750947509765625,-1.0047454833984375,-0.01885986328125,-0.0030517578125
1738771803894939600,3.760939697265625,-1.0032958984375,-0.0185546875,-0.00286865234375
1738771803904930600,3.7709306640625,-1.004486083984375,-0.018890380859375,-0.0028076171875
1738771803914922800,3.7809228515625,-1.004913330078125,-0.0196075439453125,-0.002899169921875
1738771803924914700,3.790914794921875,-1.0048828125,-0.018890380859375,-0.00311279296875
1738771803934905600,3.800905517578125,-1.0029449462890625,-0.0196380615234375,-0.003173828125
1738771803944896800,3.810896728515625,-1.00445556640625,-0.0185699462890625,-0.0033721923828125
1738771803954888700,3.820888671875,-1.0050201416015625,-0.0180511474609375,-0.0028228759765625
1738771803964879600,3.830879638671875,-1.00433349609375,-0.0179901123046875,-0.001861572265625
1738771803974871600,3.84087158203125,-1.0036773681640625,-0.0182952880859375,-0.0025177001953125
1738771803984862500,3.850862548828125,-1.005157470703125,-0.018829345703125,-0.0035552978515625
1738771803994854700,3.860854736328125,-1.00335693359375,-0.017974853515625,-0.002960205078125
1738771804004845600,3.870845458984375,-1.002838134765625,-0.0183258056640625,-0.0030670166015625
1738771804014837500,3.88083740234375,-1.0048675537109375,-0.0189056396484375,-0.00384521484375
1738771804024828700,3.89082861328125,-1.0037384033203125,-0.0193939208984375,-0.00311279296875
1738771804034820600,3.900820556640625,-1.0046844482421875,-0.018707275390625,-0.002471923828125
1738771804044811500,3.9108115234375,-1.0037994384765625,-0.0188446044921875,-0.0040130615234375
1738771804054803700,3.9208037109375,-1.00396728515625,-0.018280029296875,-0.003204345703125
1738771804064794600,3.930794677734375,-1.003082275390625,-0.0181732177734375,-0.0028228759765625
1738771804074785800,3.940785888671875,-1.00543212890625,-0.018646240234375,-0.0023345947265625
1738771804084777500,3.950777587890625,-1.00421142578125,-0.0193328857421875,-0.00250244140625
1738771804094768600,3.9607685546875,-1.0032196044921875,-0.0174713134765625,-0.002349853515625
1738771804104760600,3.970760498046875,-1.0041656494140625,-0.0192718505859375,-0.0021820068359375
1738771804114751500,3.98075146484375,-1.004638671875,-0.0179901123046875,-0.0025482177734375
1738771804124743700,3.99074365234375,-1.0038604736328125,-0.0184478759765625,-0.002655029296875
1738771804134734600,4.000734619140625,-1.00494384765625,-0.016845703125,-0.0031280517578125
1738771804144726500,4.0107265625,-1.003326416015625,-0.019134521484375,-0.00274658203125
1738771804154717700,4.0207177734375,-1.0039825439453125,-0.0175933837890625,-0.002349853515625
1738771804164709600,4.030709716796875,-1.0056915283203125,-0.01776123046875,-0.00311279296875
1738771804174700500,4.040700439453125,-1.0055389404296875,-0.018157958984375,-0.00262451171875
1738771804184691700,4.050691650390625,-1.0040435791015625,-0.0181427001953125,-0.00213623046875
1738771804194683600,4.06068359375,-1.005218505859375,-0.01922607421875,-0.002685546875
1738771804204674800,4.0706748046875,-1.0054779052734375,-0.0178680419921875,-0.0022125244140625
1738771804214666500,4.08066650390625,-1.004058837890625,-0.018035888671875,-0.002166748046875
1738771804224657400,4.090657470703125,-1.0028228759765625,-0.0181732177734375,-0.0024871826171875
1738771804234649600,4.100649658203125,-1.0039215087890625,-0.019744873046875,-0.001495361328125
1738771804244640500,4.110640625,-1.0040435791015625,-0.0176849365234375,-0.0020599365234375
1738771804254632700,4.1206328125,-1.004974365234375,-0.01837158203125,-0.0014801025390625
1738771804264623600,4.13062353515625,-1.005340576171875,-0.0177001953125,-0.002227783203125
1738771804274615600,4.140615478515625,-1.0042724609375,-0.017791748046875,-0.0028839111328125
1738771804284606700,4.150606689453125,-1.0048675537109375,-0.0177154541015625,-0.0024871826171875
1738771804294597600,4.16059765625,-1.00396728515625,-0.0190277099609375,-0.002166748046875
1738771804304589600,4.170589599609375,-1.0043182373046875,-0.0189971923828125,-0.001983642578125
1738771804314580700,4.180580810546875,-1.00518798828125,-0.0198974609375,-0.0031280517578125
1738771804324572700,4.19057275390625,-1.0048675537109375,-0.0196533203125,-0.003509521484375
1738771804334563600,4.2005634765625,-1.0047149658203125,-0.016998291015625,-0.002593994140625
1738771804344555500,4.210555419921875,-1.003570556640625,-0.01788330078125,-0.003082275390625
1738771804354546400,4.22054638671875,-1.00506591796875,-0.018798828125,-0.003265380859375
1738771804364538600,4.23053857421875,-1.0047454833984375,-0.018035888671875,-0.002899169921875
1738771804374529500,4.240529541015625,-1.004486083984375,-0.0189208984375,-0.001953125
1738771804384521500,4.250521484375,-1.0041961669921875,-0.018463134765625,-0.001983642578125
1738771804394512600,4.2605126953125,-1.0045623779296875,-0.0192718505859375,-0.002197265625
1738771804404504600,4.270504638671875,-1.004058837890625,-0.0181427001953125,-0.0043487548828125
1738771804414495700,4.280495849609375,-1.0047607421875,-0.0178680419921875,-0.0044097900390625
1738771804424486700,4.290486572265625,-1.005584716796875,-0.018157958984375,-0.00360107421875
1738771804434478600,4.300478515625,-1.0050506591796875,-0.01837158203125,-0.0018310546875
1738771804444469800,4.3104697265625,-1.0036773681640625,-0.01885986328125,-0.0029449462890625
1738771804454461700,4.320461669921875,-1.004364013671875,-0.0177764892578125,-0.002716064453125
1738771804464452600,4.33045263671875,-1.0046539306640625,-0.018035888671875,-0.0030517578125
1738771804474444500,4.340444580078125,-1.003143310546875,-0.018402099609375,-0.0024261474609375
1738771804484435500,4.350435546875,-1.0043792724609375,-0.01812744140625,-0.0041046142578125
1738771804494427600,4.360427734375,-1.0052032470703125,-0.0180206298828125,-0.0025787353515625
1738771804504418600,4.37041845703125,-1.0038604736328125,-0.0185089111328125,-0.0009765625
1738771804514410500,4.380410400390625,-1.0048980712890625,-0.0180816650390625,-0.002532958984375
1738771804524401700,4.390401611328125,-1.0033111572265625,-0.01873779296875,-0.0033111572265625
1738771804534393600,4.4003935546875,-1.0037384033203125,-0.0184783935546875,-0.0022125244140625
1738771804544384800,4.410384765625,-1.00372314453125,-0.0177459716796875,-0.00225830078125
1738771804554375700,4.420375732421875,-1.003814697265625,-0.0186004638671875,-0.0019683837890625
1738771804564367600,4.43036767578125,-1.0029296875,-0.01812744140625,-0.0027313232421875
1738771804574358800,4.44035888671875,-1.00494384765625,-0.0185089111328125,-0.0028228759765625
1738771804584350500,4.4503505859375,-1.0044097900390625,-0.016876220703125,-0.0026092529296875
1738771804594341600,4.460341552734375,-1.0038604736328125,-0.018951416015625,-0.0022735595703125
1738771804604333600,4.47033349609375,-1.0050201416015625,-0.018096923828125,-0.0027313232421875
1738771804614324500,4.480324462890625,-1.0045318603515625,-0.01898193359375,-0.0033721923828125
1738771804624316700,4.490316650390625,-1.0040740966796875,-0.0184478759765625,-0.003082275390625
1738771804634307600,4.5003076171875,-1.0034942626953125,-0.0186767578125,-0.00341796875
1738771804644299500,4.510299560546875,-1.00482177734375,-0.019287109375,-0.0030517578125
1738771804654290700,4.520290771484375,-1.003875732421875,-0.0196075439453125,-0.002593994140625
1738771804664282600,4.53028271484375,-1.0045318603515625,-0.0182037353515625,-0.00311279296875
1738771804674273500,4.5402734375,-1.0043487548828125,-0.0185546875,-0.0022125244140625
1738771804684264700,4.5502646484375,-1.0049591064453125,-0.0183868408203125,-0.0035247802734375
1738771804694256600,4.560256591796875,-1.004547119140625,-0.01806640625,-0.0020751953125
1738771804704247800,4.570247802734375,-1.0046539306640625,-0.0172271728515625,-0.002471923828125
1738771804714239500,4.580239501953125,-1.004302978515625,-0.0190582275390625,-0.0028839111328125
1738771804724230400,4.59023046875,-1.004364013671875,-0.0187835693359375,-0.002777099609375
1738771804734222600,4.60022265625,-1.00531005859375,-0.0192108154296875,-0.00311279296875
1738771804744213500,4.610213623046875,-1.0031890869140625,-0.0186004638671875,-0.002685546875
1738771804754205700,4.620205810546875,-1.0047760009765625,-0.0177154541015625,-0.00311279296875
1738771804764196600,4.630196533203125,-1.0036163330078125,-0.018280029296875,-0.002288818359375
1738771804774188500,4.6401884765625,-1.0044708251953125,-0.0186614990234375,-0.002532958984375
1738771804784179700,4.6501796875,-1.005767822265625,-0.0187225341796875,-0.002288818359375
1738771804794170600,4.660170654296875,-1.0037384033203125,-0.018157958984375,-0.0037384033203125
1738771804804162600,4.67016259765625,-1.0042724609375,-0.017730712890625,-0.002044677734375
1738771804814153700,4.68015380859375,-1.0027618408203125,-0.016845703125,-0.0037994384765625
1738771804824145700,4.690145751953125,-1.003509521484375,-0.018585205078125,-0.00177001953125
1738771804834136300,4.70013623046875,-1.00323486328125,-0.017730712890625,-0.0016021728515625
1738771804844128300,4.710128173828125,-1.003662109375,-0.01715087890625,-0.0015716552734375
1738771804854119400,4.720119384765625,-1.00433349609375,-0.0189666748046875,-0.002349853515625
1738771804864111000,4.730111083984375,-1.0035858154296875,-0.01849365234375,-0.0030517578125
1738771804874102000,4.74010205078125,-1.0049591064453125,-0.01885986328125,-0.0028228759765625
1738771804884094200,4.75009423828125,-1.00384521484375,-0.01885986328125,-0.002960205078125
1738771804894085000,4.760085205078125,-1.00390625,-0.0187530517578125,-0.0028228759765625
1738771804904077300,4.770077392578125,-1.0038604736328125,-0.0191497802734375,-0.0013885498046875
1738771804914068200,4.780068115234375,-1.0025787353515625,-0.018829345703125,-0.0033721923828125
1738771804924059100,4.79005908203125,-1.003509521484375,-0.0191497802734375,-0.0021514892578125
1738771804934051300,4.80005126953125,-1.0036773681640625,-0.019195556640625,-0.0028228759765625
1738771804944042200,4.810042236328125,-1.0048828125,-0.01715087890625,-0.0032196044921875
1738771804954034400,4.820034423828125,-1.0050201416015625,-0.0188140869140625,-0.0016326904296875
1738771804964025300,4.830025390625,-1.0037994384765625,-0.0183258056640625,-0.001220703125
1738771804974017000,4.84001708984375,-1.0043182373046875,-0.0186767578125,-0.00390625
1738771804984008200,4.85000830078125,-1.0030364990234375,-0.0185546875,-0.002777099609375
1738771804994000100,4.860000244140625,-1.00341796875,-0.0187835693359375,-0.002197265625
1738771805003991000,4.869990966796875,-1.0042724609375,-0.017791748046875,-0.002593994140625
1738771805013983200,4.879983154296875,-1.0055389404296875,-0.0188140869140625,-0.0019378662109375
1738771805023974100,4.88997412109375,-1.0047149658203125,-0.0187530517578125,-0.0031585693359375
1738771805033965000,4.899965087890625,-1.005126953125,-0.017852783203125,-0.0027008056640625
1738771805043957200,4.909957275390625,-1.0046234130859375,-0.0186309814453125,-0.00262451171875
1738771805053948200,4.9199482421875,-1.003936767578125,-0.01995849609375,-0.0032806396484375
1738771805063940400,4.9299404296875,-1.0048675537109375,-0.0191650390625,-0.0026092529296875
1738771805073931300,4.93993115234375,-1.003662109375,-0.0186920166015625,-0.0029144287109375
1738771805083923500,4.94992333984375,-1.0039520263671875,-0.01806640625,-0.002166748046875
1738771805093914400,4.959914306640625,-1.0036468505859375,-0.0180206298828125,-0.0024566650390625
1738771805103906000,4.969906005859375,-1.0029449462890625,-0.0185546875,-0.00286865234375
1738771805113897200,4.979897216796875,-1.0038604736328125,-0.01727294921875,-0.0026092529296875
1738771805123889200,4.98988916015625,-1.005340576171875,-0.0188751220703125,-0.003082275390625
1738771805133880000,4.999880126953125,-1.0044403076171875,-0.01922607421875,-0.001678466796875
1738771805143871200,5.009871337890625,-1.0041656494140625,-0.019195556640625,-0.002044677734375
1738771805153863200,5.01986328125,-1.0040130615234375,-0.0181427001953125,-0.0021514892578125
1738771805163854000,5.02985400390625,-1.0035552978515625,-0.0190582275390625,-0.002044677734375
1738771805173846300,5.03984619140625,-1.00372314453125,-0.018341064453125,-0.0030517578125
1738771805183837200,5.049837158203125,-1.0029754638671875,-0.0180206298828125,-0.002899169921875
1738771805193829400,5.059829345703125,-1.0054473876953125,-0.0180816650390625,-0.00299072265625
1738771805203820300,5.0698203125,-1.00457763671875,-0.0185089111328125,-0.002685546875
1738771805213812200,5.079812255859375,-1.0048980712890625,-0.019866943359375,-0.0009613037109375
1738771805223803400,5.089803466796875,-1.004669189453125,-0.0185546875,-0.0031890869140625
1738771805233795000,5.099795166015625,-1.0040435791015625,-0.0190277099609375,-0.003692626953125
1738771805243786200,5.1097861328125,-1.002685546875,-0.018798828125,-0.00189208984375
1738771805253777200,5.119777099609375,-1.00341796875,-0.018951416015625,-0.002838134765625
1738771805263769000,5.12976904296875,-1.0046539306640625,-0.0184478759765625,-0.0027618408203125
1738771805273760300,5.13976025390625,-1.0034027099609375,-0.0186309814453125,-0.001800537109375
1738771805283752200,5.149752197265625,-1.00372314453125,-0.0187225341796875,-0.00250244140625
1738771805293743000,5.1597431640625,-1.004547119140625,-0.0176544189453125,-0.00213623046875
1738771805303735300,5.1697353515625,-1.00543212890625,-0.017669677734375,-0.0029449462890625
1738771805313726200,5.179726318359375,-1.0037841796875,-0.01800537109375,-0.0040130615234375
1738771805323718400,5.189718505859375,-1.0047454833984375,-0.0182952880859375,-0.001953125
1738771805333709300,5.199709228515625,-1.004852294921875,-0.018524169921875,-0.0032501220703125
1738771805343701200,5.209701171875,-1.0034637451171875,-0.0188751220703125,-0.0023956298828125
1738771805353692400,5.2196923828125,-1.0048675537109375,-0.0181884765625,-0.00390625
1738771805363683300,5.229683349609375,-1.004974365234375,-0.0183563232421875,-0.003936767578125
1738771805373675000,5.239675048828125,-1.00360107421875,-0.0182342529296875,-0.0022735595703125
1738771805383666200,5.249666259765625,-1.003204345703125,-0.01959228515625,-0.0023651123046875
1738771805393658000,5.259658203125,-1.0049285888671875,-0.018341064453125,-0.002593994140625
1738771805403649300,5.269649169921875,-1.0042877197265625,-0.0196685791015625,-0.0027008056640625
1738771805413641200,5.27964111328125,-1.003753662109375,-0.018951416015625,-0.0027618408203125
1738771805423632100,5.289632080078125,-1.0041351318359375,-0.0189208984375,-0.0019683837890625
1738771805433624300,5.299624267578125,-1.003662109375,-0.0174713134765625,-0.0038604736328125
1738771805443615200,5.309615234375,-1.0037689208984375,-0.0188140869140625,-0.0036163330078125
1738771805453607400,5.319607421875,-1.004150390625,-0.0186004638671875,-0.0041351318359375
1738771805463598300,5.329598388671875,-1.0027313232421875,-0.0186767578125,-0.002471923828125
1738771805473589200,5.33958935546875,-1.004119873046875,-0.019134521484375,-0.0036773681640625
1738771805483581200,5.349581298828125,-1.00396728515625,-0.018463134765625,-0.003021240234375
1738771805493572400,5.359572265625,-1.0047454833984375,-0.01812744140625,-0.00286865234375
1738771805503564000,5.36956396484375,-1.00390625,-0.0184478759765625,-0.0027313232421875
1738771805513555200,5.37955517578125,-1.0035858154296875,-0.0184173583984375,-0.0033111572265625
1738771805523547100,5.389547119140625,-1.004180908203125,-0.017913818359375,-0.00360107421875
1738771805533538300,5.399538330078125,-1.005340576171875,-0.01904296875,-0.002471923828125
1738771805543530200,5.4095302734375,-1.0044708251953125,-0.01739501953125,-0.0020294189453125
1738771805553521200,5.419521240234375,-1.002716064453125,-0.018280029296875,-0.004638671875
1738771805563512300,5.42951220703125,-1.0040283203125,-0.0198516845703125,-0.0023651123046875
1738771805573504300,5.439504150390625,-1.0040283203125,-0.01824951171875,-0.0026092529296875
1738771805583495200,5.4494951171875,-1.0037994384765625,-0.01824951171875,-0.0022735595703125
1738771805593487400,5.4594873046875,-1.0048370361328125,-0.0184173583984375,-0.0033721923828125
1738771805603478300,5.469478271484375,-1.005035400390625,-0.018646240234375,-0.0037841796875
1738771805613470200,5.47947021484375,-1.0047760009765625,-0.0181121826171875,-0.0045623779296875
1738771805623461000,5.489461181640625,-1.0039520263671875,-0.0188751220703125,-0.003509521484375
1738771805633453000,5.499453125,-1.004608154296875,-0.0181732177734375,-0.0023345947265625
1738771805643444200,5.5094443359375,-1.004486083984375,-0.0172119140625,-0.0030364990234375
1738771805653436200,5.519436279296875,-1.0046844482421875,-0.0184173583984375,-0.0026397705078125
1738771805663427000,5.529427001953125,-1.0040435791015625,-0.0186767578125,-0.0031585693359375
1738771805673418200,5.539418212890625,-1.00396728515625,-0.01861572265625,-0.002532958984375
1738771805683410200,5.54941015625,-1.00555419921875,-0.0187530517578125,-0.00299072265625
1738771805693401300,5.5594013671875,-1.003692626953125,-0.018524169921875,-0.0028839111328125
1738771805703393300,5.569393310546875,-1.005096435546875,-0.018951416015625,-0.0035858154296875
1738771805713384200,5.57938427734375,-1.0039825439453125,-0.0188446044921875,-0.002227783203125
1738771805723376400,5.58937646484375,-1.00396728515625,-0.01788330078125,-0.002716064453125
1738771805733367300,5.5993671875,-1.0045318603515625,-0.018829345703125,-0.0029449462890625
1738771805743359200,5.609359130859375,-1.004791259765625,-0.0186614990234375,-0.004150390625
1738771805753350100,5.61935009765625,-1.0032196044921875,-0.019073486328125,-0.0035552978515625
1738771805763341300,5.62934130859375,-1.0040130615234375,-0.0187835693359375,-0.0034637451171875
1738771805773333200,5.639333251953125,-1.00469970703125,-0.018310546875,-0.0021820068359375
1738771805783324200,5.64932421875,-1.00439453125,-0.017822265625,-0.0022430419921875
1738771805793316000,5.659316162109375,-1.0047149658203125,-0.019500732421875,-0.00335693359375
1738771805803307300,5.669307373046875,-1.0040130615234375,-0.0179901123046875,-0.001922607421875
1738771805813299200,5.67929931640625,-1.003936767578125,-0.019195556640625,-0.0024871826171875
1738771805823290000,5.6892900390625,-1.0047149658203125,-0.0197601318359375,-0.003265380859375
1738771805833282300,5.6992822265625,-1.00439453125,-0.0178985595703125,-0.002197265625
1738771805843274200,5.709274169921875,-1.0050811767578125,-0.01806640625,-0.0027313232421875
1738771805853266000,5.719265869140625,-1.00433349609375,-0.018829345703125,-0.002593994140625
1738771805863256800,5.7292568359375,-1.004425048828125,-0.0195465087890625,-0.002685546875
1738771805873248000,5.739248046875,-1.004852294921875,-0.017974853515625,-0.003570556640625
1738771805883240000,5.749239990234375,-1.0038604736328125,-0.0181732177734375,-0.002288818359375
1738771805893230800,5.75923095703125,-1.0052642822265625,-0.0183868408203125,-0.0032501220703125
1738771805903223000,5.76922314453125,-1.003326416015625,-0.016937255859375,-0.003387451171875
1738771805913214000,5.7792138671875,-1.004486083984375,-0.0181884765625,-0.003173828125
1738771805923206100,5.7892060546875,-1.0055084228515625,-0.01885986328125,-0.0023345947265625
1738771805933197000,5.799197021484375,-1.0044097900390625,-0.0185546875,-0.00311279296875
1738771805943189000,5.80918896484375,-1.005218505859375,-0.0181427001953125,-0.0019989013671875
1738771805953180200,5.81918017578125,-1.0045623779296875,-0.0178680419921875,-0.00341796875
1738771805963171000,5.829171142578125,-1.003814697265625,-0.0186004638671875,-0.0033111572265625
1738771805973163000,5.8391630859375,-1.0047760009765625,-0.019378662109375,-0.003662109375
1738771805983154200,5.849154296875,-1.0042266845703125,-0.018585205078125,-0.0026702880859375
1738771805993145900,5.859145751953125,-1.00396728515625,-0.0194549560546875,-0.0019378662109375
1738771806003137000,5.869136962890625,-1.0047149658203125,-0.0169219970703125,-0.0034942626953125
1738771806013129000,5.87912890625,-1.00482177734375,-0.0180511474609375,-0.0036773681640625
1738771806023120000,5.889119873046875,-1.00445556640625,-0.019866943359375,-0.001983642578125
1738771806033112000,5.899112060546875,-1.0034027099609375,-0.01824951171875,-0.0028533935546875
1738771806043103000,5.90910302734375,-1.0035400390625,-0.0185546875,-0.00341796875
1738771806053094000,5.919093994140625,-1.004852294921875,-0.0182037353515625,-0.001983642578125
1738771806063086000,5.929086181640625,-1.0032196044921875,-0.0182647705078125,-0.00274658203125
1738771806073077000,5.939076904296875,-1.00421142578125,-0.0181884765625,-0.0026702880859375
1738771806083069200,5.949069091796875,-1.00439453125,-0.0185546875,-0.0025177001953125
1738771806093060000,5.95906005859375,-1.0047607421875,-0.0179290771484375,-0.0032806396484375
1738771806103051800,5.9690517578125,-1.004669189453125,-0.0189208984375,-0.0018463134765625
1738771806113043000,5.97904296875,-1.0042724609375,-0.019317626953125,-0.0028228759765625
1738771806123035000,5.989034912109375,-1.0042877197265625,-0.01898193359375,-0.00421142578125
1738771806133026000,5.999026123046875,-1.00482177734375,-0.0186767578125,-0.0020294189453125
1738771806143017000,6.009016845703125,-1.00396728515625,-0.0193328857421875,-0.0034027099609375
1738771806153009000,6.0190087890625,-1.0045928955078125,-0.01898193359375,-0.002288818359375
1738771806163000000,6.029,-1.0041656494140625,-0.01849365234375,-0.002410888671875
1738771806172992000,6.038991943359375,-1.0044708251953125,-0.0174560546875,-0.0029449462890625
1738771806182983000,6.04898291015625,-1.0025482177734375,-0.0182342529296875,-0.0021514892578125
1738771806192975000,6.05897509765625,-1.0025177001953125,-0.0171356201171875,-0.0021514892578125
1738771806202966000,6.068966064453125,-1.003265380859375,-0.01800537109375,-0.0027923583984375
1738771806212958200,6.078958251953125,-1.004730224609375,-0.0171356201171875,-0.0029144287109375
1738771806222949000,6.08894921875,-1.0041961669921875,-0.0178375244140625,-0.00311279296875
1738771806232940000,6.09893994140625,-1.0042724609375,-0.0188751220703125,-0.0033111572265625
1738771806242932000,6.108931884765625,-1.004058837890625,-0.0191192626953125,-0.0020294189453125
1738771806252923100,6.118923095703125,-1.00439453125,-0.0181732177734375,-0.00347900390625
1738771806262915000,6.1289150390625,-1.004302978515625,-0.0193634033203125,-0.0037841796875
1738771806272906000,6.138906005859375,-1.0019683837890625,-0.018280029296875,-0.00225830078125
1738771806282898000,6.14889794921875,-1.0030364990234375,-0.0184326171875,-0.0022125244140625
1738771806292889000,6.15888916015625,-1.003875732421875,-0.017669677734375,-0.0026702880859375
1738771806302881000,6.168881103515625,-1.003448486328125,-0.018096923828125,-0.00244140625
1738771806312872000,6.178871826171875,-1.0031890869140625,-0.0181427001953125,-0.0030975341796875
1738771806322863000,6.188863037109375,-1.0056610107421875,-0.0176849365234375,-0.0025482177734375
1738771806332855000,6.19885498046875,-1.00347900390625,-0.019073486328125,-0.003814697265625
1738771806342846000,6.208845947265625,-1.0034942626953125,-0.0185546875,-0.00323486328125
1738771806352838100,6.218838134765625,-1.0035400390625,-0.0189971923828125,-0.00384521484375
1738771806362829000,6.2288291015625,-1.0034637451171875,-0.0178070068359375,-0.003326416015625
1738771806372821000,6.238821044921875,-1.0040435791015625,-0.0179443359375,-0.00213623046875
1738771806382812000,6.24881201171875,-1.0042572021484375,-0.0189208984375,-0.00372314453125
1738771806392803800,6.258803955078125,-1.004547119140625,-0.0184173583984375,-0.00244140625
1738771806402795000,6.268794921875,-1.0045013427734375,-0.018646240234375,-0.00299072265625
1738771806412786000,6.278785888671875,-1.00408935546875,-0.0179290771484375,-0.0026702880859375
1738771806422778000,6.288778076171875,-1.004425048828125,-0.0181884765625,-0.0026092529296875
1738771806432769000,6.29876904296875,-1.005706787109375,-0.017486572265625,-0.003173828125
1738771806442761000,6.308760986328125,-1.0029144287109375,-0.0186920166015625,-0.003997802734375
1738771806452752100,6.318752197265625,-1.004058837890625,-0.0182647705078125,-0.00262451171875
1738771806462744000,6.328744140625,-1.0036773681640625,-0.0173187255859375,-0.0030670166015625
1738771806472735000,6.33873486328125,-1.0036773681640625,-0.0198974609375,-0.002899169921875
1738771806482727200,6.34872705078125,-1.0044708251953125,-0.018218994140625,-0.002899169921875
1738771806492718000,6.358718017578125,-1.004974365234375,-0.017974853515625,-0.0029449462890625
1738771806502709000,6.368708984375,-1.005279541015625,-0.019073486328125,-0.0030975341796875
1738771806512701000,6.378700927734375,-1.005279541015625,-0.017822265625,-0.0025482177734375
1738771806522691800,6.38869189453125,-1.0045166015625,-0.0190582275390625,-0.0028839111328125
1738771806532684000,6.39868408203125,-1.00372314453125,-0.0198974609375,-0.0035400390625
1738771806542675000,6.408675048828125,-1.004150390625,-0.018035888671875,-0.002532958984375
1738771806552667000,6.4186669921875,-1.003448486328125,-0.01837158203125,-0.0025482177734375
1738771806562658000,6.428657958984375,-1.0039520263671875,-0.0184478759765625,-0.003814697265625
1738771806572650000,6.43864990234375,-1.0042266845703125,-0.0188140869140625,-0.0030364990234375
1738771806582641200,6.44864111328125,-1.00390625,-0.0176544189453125,-0.0022430419921875
1738771806592632000,6.458632080078125,-1.0053558349609375,-0.0191192626953125,-0.003204345703125
1738771806602624000,6.4686240234375,-1.0053558349609375,-0.018310546875,-0.0029449462890625
1738771806612615200,6.478615234375,-1.004730224609375,-0.018798828125,-0.00384521484375
1738771806622607000,6.488607177734375,-1.0045318603515625,-0.0183868408203125,-0.0039825439453125
1738771806632598000,6.498597900390625,-1.003570556640625,-0.0184326171875,-0.00360107421875
1738771806642590000,6.50858984375,-1.0025634765625,-0.0189208984375,-0.0016632080078125
1738771806652580900,6.518580810546875,-1.00433349609375,-0.0176849365234375,-0.0031585693359375
1738771806662573000,6.528572998046875,-1.0044708251953125,-0.0200958251953125,-0.004180908203125
1738771806672564000,6.53856396484375,-1.005218505859375,-0.019805908203125,-0.0018463134765625
1738771806682555000,6.548554931640625,-1.005523681640625,-0.018310546875,-0.0029754638671875
1738771806692547000,6.558547119140625,-1.0041351318359375,-0.0181732177734375,-0.0034637451171875
1738771806702538000,6.5685380859375,-1.003143310546875,-0.0181884765625,-0.001556396484375
1738771806712530200,6.5785302734375,-1.0037994384765625,-0.0183563232421875,-0.0025177001953125
1738771806722521000,6.58852099609375,-1.0040283203125,-0.0184783935546875,-0.0031890869140625
1738771806732513000,6.598512939453125,-1.0041656494140625,-0.0185546875,-0.0027618408203125
1738771806742504200,6.608504150390625,-1.004974365234375,-0.018218994140625,-0.0022735595703125
1738771806752496000,6.61849609375,-1.0050506591796875,-0.0186309814453125,-0.0022430419921875
1738771806762487000,6.628487060546875,-1.0043487548828125,-0.01788330078125,-0.0021820068359375
1738771806772478200,6.638478271484375,-1.0035400390625,-0.0182952880859375,-0.0034637451171875
1738771806782470000,6.648469970703125,-1.0038299560546875,-0.0184173583984375,-0.00323486328125
1738771806792460800,6.658460693359375,-1.0032806396484375,-0.0183868408203125,-0.0031585693359375
1738771806802453000,6.668452880859375,-1.005035400390625,-0.0173797607421875,-0.0037841796875
1738771806812444000,6.67844384765625,-1.0045623779296875,-0.0178680419921875,-0.002777099609375
1738771806822436000,6.68843603515625,-1.004486083984375,-0.0175628662109375,-0.0028839111328125
1738771806832427000,6.698427001953125,-1.005126953125,-0.0182952880859375,-0.0029144287109375
1738771806842417700,6.708417724609375,-1.0061798095703125,-0.018096923828125,-0.0030975341796875
1738771806852409900,6.718409912109375,-1.0054931640625,-0.018310546875,-0.0024871826171875
1738771806862400800,6.72840087890625,-1.0029754638671875,-0.018402099609375,-0.0018768310546875
1738771806872392700,6.738392822265625,-1.00408935546875,-0.0174407958984375,-0.00152587890625
1738771806882384000,6.7483837890625,-1.0028839111328125,-0.0175933837890625,-0.00225830078125
1738771806892375800,6.758375732421875,-1.0040283203125,-0.0184326171875,-0.002655029296875
1738771806902366700,6.76836669921875,-1.005462646484375,-0.0196075439453125,-0.002777099609375
1738771806912358700,6.778358642578125,-1.00506591796875,-0.01898193359375,-0.00201416015625
1738771806922349600,6.788349609375,-1.0039520263671875,-0.018402099609375,-0.0023651123046875
1738771806932341800,6.798341796875,-1.0047607421875,-0.0177001953125,-0.0030364990234375
1738771806942332700,6.808332763671875,-1.003936767578125,-0.018157958984375,-0.002685546875
1738771806952323600,6.818323486328125,-1.0027618408203125,-0.01898193359375,-0.0026092529296875
1738771806962315800,6.828315673828125,-1.0034942626953125,-0.0188140869140625,-0.0032196044921875
1738771806972306700,6.838306640625,-1.0044708251953125,-0.018402099609375,-0.0041961669921875
1738771806982298600,6.848298583984375,-1.004547119140625,-0.0179290771484375,-0.0022125244140625
1738771806992289800,6.858289794921875,-1.0031280517578125,-0.0185699462890625,-0.0021209716796875
1738771807002281700,6.86828173828125,-1.0049591064453125,-0.0184478759765625,-0.003326416015625
1738771807012273000,6.87827294921875,-1.0061187744140625,-0.0185089111328125,-0.0018768310546875
1738771807022263800,6.888263916015625,-1.002777099609375,-0.017425537109375,-0.0038909912109375
1738771807032255700,6.898255859375,-1.003265380859375,-0.01861572265625,-0.0033111572265625
1738771807042247000,6.908246826171875,-1.003570556640625,-0.018218994140625,-0.0023040771484375
1738771807052238600,6.918238525390625,-1.0051116943359375,-0.019500732421875,-0.003662109375
1738771807062229800,6.928229736328125,-1.005157470703125,-0.018707275390625,-0.0034027099609375
1738771807072221700,6.9382216796875,-1.0040283203125,-0.018096923828125,-0.0016326904296875
1738771807082212600,6.948212646484375,-1.00537109375,-0.0174713134765625,-0.0034637451171875
1738771807092204800,6.958204833984375,-1.0040130615234375,-0.017547607421875,-0.0032501220703125
1738771807102195700,6.96819580078125,-1.003082275390625,-0.0189361572265625,-0.0023651123046875
1738771807112186600,6.9781865234375,-1.0042724609375,-0.0205230712890625,-0.0017242431640625
1738771807122178800,6.9881787109375,-1.0039825439453125,-0.0181732177734375,-0.0039215087890625
1738771807132169700,6.998169677734375,-1.0034027099609375,-0.0194854736328125,-0.0037078857421875
1738771807142161700,7.00816162109375,-1.0040130615234375,-0.018035888671875,-0.0021514892578125
1738771807152152800,7.01815283203125,-1.006317138671875,-0.0186004638671875,-0.00311279296875
1738771807162144800,7.028144775390625,-1.00494384765625,-0.019622802734375,-0.0033416748046875
1738771807172136000,7.038135986328125,-1.003997802734375,-0.018524169921875,-0.001495361328125
1738771807182127600,7.048127685546875,-1.0038299560546875,-0.018524169921875,-0.0031280517578125
1738771807192118500,7.058118408203125,-1.005126953125,-0.0192108154296875,-0.0029449462890625
1738771807202109700,7.068109619140625,-1.002716064453125,-0.0188751220703125,-0.0026092529296875
1738771807212101600,7.0781015625,-1.00531005859375,-0.017730712890625,-0.00250244140625
1738771807222092500,7.088092529296875,-1.0059967041015625,-0.01904296875,-0.002471923828125
1738771807232084700,7.098084716796875,-1.0049591064453125,-0.0178680419921875,-0.0035400390625
1738771807242075600,7.10807568359375,-1.0049591064453125,-0.019378662109375,-0.0029144287109375
1738771807252067800,7.11806787109375,-1.003570556640625,-0.0190277099609375,-0.0023040771484375
1738771807262058800,7.128058837890625,-1.0041046142578125,-0.018585205078125,-0.003326416015625
1738771807272049700,7.138049560546875,-1.00433349609375,-0.019195556640625,-0.003143310546875
1738771807282041900,7.148041748046875,-1.0052337646484375,-0.018585205078125,-0.002685546875
1738771807292032800,7.15803271484375,-1.005401611328125,-0.017669677734375,-0.0013275146484375
1738771807302025000,7.16802490234375,-1.00616455078125,-0.0186309814453125,-0.002777099609375
1738771807312016000,7.178015869140625,-1.004608154296875,-0.0187530517578125,-0.0030975341796875
1738771807322007600,7.188007568359375,-1.0030364990234375,-0.017669677734375,-0.0030517578125
1738771807331998700,7.197998779296875,-1.0034027099609375,-0.0186767578125,-0.0036468505859375
1738771807341990700,7.20799072265625,-1.0048370361328125,-0.0189666748046875,-0.0032501220703125
1738771807351981600,7.217981689453125,-1.0032501220703125,-0.0179595947265625,-0.0034332275390625
1738771807361973800,7.227973876953125,-1.00238037109375,-0.0188446044921875,-0.002288818359375
1738771807371964700,7.237964599609375,-1.0042572021484375,-0.0176239013671875,-0.0023345947265625
1738771807381955600,7.24795556640625,-1.0057373046875,-0.01873779296875,-0.0028076171875
1738771807391947800,7.25794775390625,-1.0050048828125,-0.0190277099609375,-0.0015869140625
1738771807401938700,7.267938720703125,-1.0044708251953125,-0.0186614990234375,-0.0025787353515625
1738771807411931000,7.277930908203125,-1.005096435546875,-0.0191802978515625,-0.0032501220703125
1738771807421921800,7.287921875,-1.002716064453125,-0.0188446044921875,-0.0036468505859375
1738771807431913700,7.297913818359375,-1.0034942626953125,-0.0176239013671875,-0.0023956298828125
1738771807441905000,7.30790478515625,-1.0043487548828125,-0.01763916015625,-0.00286865234375
1738771807451895800,7.317895751953125,-1.0054168701171875,-0.0191192626953125,-0.0034027099609375
1738771807461887700,7.3278876953125,-1.00482177734375,-0.017730712890625,-0.0020294189453125
1738771807471878700,7.337878662109375,-1.0041046142578125,-0.0179901123046875,-0.0030517578125
1738771807481870600,7.34787060546875,-1.0023345947265625,-0.0184326171875,-0.003143310546875
1738771807491861800,7.35786181640625,-1.002899169921875,-0.0190887451171875,-0.0022735595703125
1738771807501853700,7.367853759765625,-1.00592041015625,-0.0182647705078125,-0.00238037109375
1738771807511844600,7.3778447265625,-1.0047454833984375,-0.0186920166015625,-0.00274658203125
1738771807521836800,7.3878369140625,-1.0040740966796875,-0.0185699462890625,-0.0024261474609375
1738771807531827700,7.39782763671875,-1.005340576171875,-0.01849365234375,-0.00286865234375
1738771807541818600,7.407818603515625,-1.003814697265625,-0.01763916015625,-0.00238037109375
1738771807551810800,7.417810791015625,-1.0048828125,-0.0175018310546875,-0.00225830078125
1738771807561801700,7.4278017578125,-1.003753662109375,-0.0176239013671875,-0.002960205078125
1738771807571794000,7.4377939453125,-1.0046844482421875,-0.019378662109375,-0.0022430419921875
1738771807581784800,7.447784912109375,-1.003509521484375,-0.017578125,-0.00262451171875
1738771807591776500,7.457776611328125,-1.0035552978515625,-0.0190582275390625,-0.0044708251953125
1738771807601767700,7.467767578125,-1.0035247802734375,-0.019256591796875,-0.0030517578125
1738771807611759600,7.477759521484375,-1.0055694580078125,-0.018218994140625,-0.002593994140625
1738771807621750800,7.487750732421875,-1.004150390625,-0.0186004638671875,-0.0021209716796875
1738771807631741700,7.49774169921875,-1.0048675537109375,-0.0174102783203125,-0.002685546875
1738771807641733600,7.507733642578125,-1.0039825439453125,-0.019439697265625,-0.003570556640625
1738771807651724800,7.517724853515625,-1.0027618408203125,-0.01947021484375,-0.00323486328125
1738771807661716700,7.527716796875,-1.0044708251953125,-0.01800537109375,-0.003509521484375
1738771807671707600,7.537707763671875,-1.0035552978515625,-0.0181121826171875,-0.0023040771484375
1738771807681699800,7.547699951171875,-1.0046539306640625,-0.019317626953125,-0.0020751953125
1738771807691690800,7.557690673828125,-1.0033416748046875,-0.0190277099609375,-0.0026397705078125
1738771807701681700,7.567681640625,-1.0035552978515625,-0.0189056396484375,-0.00225830078125
1738771807711673900,7.577673828125,-1.0030517578125,-0.0178985595703125,-0.0027008056640625
1738771807721664800,7.587664794921875,-1.0035247802734375,-0.0175018310546875,-0.0022430419921875
1738771807731656700,7.59765673828125,-1.00384521484375,-0.018280029296875,-0.00323486328125
1738771807741647600,7.607647705078125,-1.0034942626953125,-0.0179290771484375,-0.0025482177734375
1738771807751639800,7.617639892578125,-1.0035400390625,-0.0196075439453125,-0.003173828125
1738771807761630700,7.627630615234375,-1.0044097900390625,-0.0172882080078125,-0.0029296875
1738771807771622700,7.63762255859375,-1.0038909912109375,-0.0174713134765625,-0.002227783203125
1738771807781613800,7.64761376953125,-1.0044708251953125,-0.0183868408203125,-0.0033416748046875
1738771807791604700,7.657604736328125,-1.004547119140625,-0.0172119140625,-0.0032806396484375
1738771807801596700,7.6675966796875,-1.0025634765625,-0.017913818359375,-0.0036468505859375
1738771807811587800,7.677587890625,-1.004730224609375,-0.0185546875,-0.0031280517578125
1738771807821579800,7.687579833984375,-1.00408935546875,-0.018463134765625,-0.0019989013671875
1738771807831570700,7.69757080078125,-1.0047607421875,-0.0184478759765625,-0.003509521484375
1738771807841562400,7.707562255859375,-1.0042724609375,-0.0183563232421875,-0.0029754638671875
1738771807851553300,7.71755322265625,-1.00396728515625,-0.0178985595703125,-0.00299072265625
1738771807861545200,7.727545166015625,-1.00384521484375,-0.01751708984375,-0.0046539306640625
1738771807871536000,7.7375361328125,-1.00372314453125,-0.018463134765625,-0.00274658203125
1738771807881527300,7.74752734375,-1.004638671875,-0.018157958984375,-0.0021820068359375
1738771807891519200,7.757519287109375,-1.0032196044921875,-0.0191192626953125,-0.0017547607421875
1738771807901510100,7.76751025390625,-1.003753662109375,-0.018341064453125,-0.003631591796875
1738771807911502000,7.777502197265625,-1.0052032470703125,-0.0185089111328125,-0.0043792724609375
1738771807921493200,7.7874931640625,-1.00506591796875,-0.0182952880859375,-0.0040435791015625
1738771807931485200,7.797485107421875,-1.0043792724609375,-0.0192718505859375,-0.0018463134765625
1738771807941476400,7.807476318359375,-1.0043487548828125,-0.019561767578125,-0.0028076171875
1738771807951467300,7.81746728515625,-1.0031280517578125,-0.01806640625,-0.0032806396484375
1738771807961459200,7.827459228515625,-1.0029144287109375,-0.0182952880859375,-0.002655029296875
1738771807971450400,7.837450439453125,-1.004638671875,-0.0184478759765625,-0.0030517578125
1738771807981442300,7.8474423828125,-1.003631591796875,-0.01861572265625,-0.001708984375
1738771807991433200,7.85743310546875,-1.004669189453125,-0.0189056396484375,-0.0029754638671875
1738771808001425200,7.867425048828125,-1.002777099609375,-0.0189056396484375,-0.005126953125
1738771808011416300,7.877416259765625,-1.00445556640625,-0.0184783935546875,-0.0028228759765625
1738771808021408300,7.887408203125,-1.00250244140625,-0.018890380859375,-0.00347900390625
1738771808031399200,7.897399169921875,-1.0034332275390625,-0.01776123046875,-0.00384521484375
1738771808041390000,7.90739013671875,-1.0040283203125,-0.0179901123046875,-0.0033721923828125
1738771808051382300,7.91738232421875,-1.002838134765625,-0.018524169921875,-0.0034637451171875
1738771808061373200,7.927373291015625,-1.00457763671875,-0.0174713134765625,-0.0039520263671875
1738771808071365000,7.937365234375,-1.005218505859375,-0.0182647705078125,-0.0023956298828125
1738771808081356300,7.947356201171875,-1.0045318603515625,-0.0188446044921875,-0.002471923828125
1738771808091348200,7.95734814453125,-1.0044708251953125,-0.0179901123046875,-0.00372314453125
1738771808101339400,7.96733935546875,-1.003509521484375,-0.017181396484375,-0.0016937255859375
1738771808111330300,7.977330322265625,-1.0033111572265625,-0.0187835693359375,-0.0025482177734375
1738771808121322200,7.987322265625,-1.0042724609375,-0.0181427001953125,-0.0019378662109375
1738771808131313400,7.9973134765625,-1.0034637451171875,-0.0182647705078125,-0.0027313232421875
1738771808141305000,8.00730517578125,-1.003448486328125,-0.0178375244140625,-0.002960205078125
1738771808151296300,8.017296142578125,-1.0045166015625,-0.0179901123046875,-0.0018768310546875
1738771808161288200,8.0272880859375,-1.0043182373046875,-0.0185546875,-0.0019073486328125
1738771808171279000,8.037279052734375,-1.005615234375,-0.0181884765625,-0.0030059814453125
1738771808181271300,8.047271240234375,-1.004241943359375,-0.0186920166015625,-0.002685546875
1738771808191262200,8.05726220703125,-1.0049285888671875,-0.01800537109375,-0.0023345947265625
1738771808201253000,8.067253173828124,-1.004730224609375,-0.018280029296875,-0.003173828125
1738771808211245300,8.077245361328124,-1.0050811767578125,-0.0186004638671875,-0.0022735595703125
1738771808221236200,8.087236328125,-1.0046539306640625,-0.0180511474609375,-0.002471923828125
1738771808231228200,8.097228271484376,-1.0042724609375,-0.018524169921875,-0.0028228759765625
1738771808241219300,8.10721923828125,-1.003936767578125,-0.01763916015625,-0.0034332275390625
1738771808251211300,8.117211181640625,-1.003143310546875,-0.0165863037109375,-0.001708984375
1738771808261202400,8.127202392578125,-1.0047760009765625,-0.0182037353515625,-0.002716064453125
1738771808271193300,8.137193359375,-1.003143310546875,-0.0189208984375,-0.0032196044921875
1738771808281185000,8.14718505859375,-1.005126953125,-0.018096923828125,-0.0029144287109375
1738771808291176200,8.15717626953125,-1.0048828125,-0.018646240234375,-0.00189208984375
1738771808301168000,8.167168212890624,-1.0036163330078125,-0.01812744140625,-0.00274658203125
1738771808311159000,8.177158935546874,-1.0056610107421875,-0.01800537109375,-0.0029754638671875
1738771808321151200,8.187151123046876,-1.0044403076171875,-0.0182647705078125,-0.0038299560546875
1738771808331142100,8.19714208984375,-1.0033111572265625,-0.0184783935546875,-0.0033111572265625
1738771808341133000,8.207133056640625,-1.0029296875,-0.0185394287109375,-0.00225830078125
1738771808351125200,8.217125244140625,-1.0040130615234375,-0.0182952880859375,-0.00384521484375
1738771808361116200,8.2271162109375,-1.003662109375,-0.0177764892578125,-0.0018310546875
1738771808371108400,8.2371083984375,-1.0037384033203125,-0.0179290771484375,-0.0029449462890625
1738771808381099300,8.247099365234375,-1.0046539306640625,-0.0193634033203125,-0.003814697265625
1738771808391091200,8.25709130859375,-1.005340576171875,-0.019378662109375,-0.002899169921875
1738771808401082400,8.267082275390624,-1.00506591796875,-0.01910400390625,-0.0025177001953125
1738771808411074000,8.277073974609374,-1.0060882568359375,-0.01873779296875,-0.002349853515625
1738771808421065200,8.287065185546876,-1.00469970703125,-0.0178070068359375,-0.003509521484375
1738771808431056400,8.297056396484376,-1.0037841796875,-0.0179901123046875,-0.003265380859375
1738771808441048000,8.307048095703125,-1.0027923583984375,-0.018951416015625,-0.0018768310546875
1738771808451039200,8.317039306640625,-1.0037384033203125,-0.0194091796875,-0.0031890869140625
1738771808461031200,8.32703125,-1.003631591796875,-0.0198516845703125,-0.00152587890625
1738771808471022000,8.33702197265625,-1.0058746337890625,-0.0191497802734375,-0.0028839111328125
1738771808481014300,8.34701416015625,-1.0048065185546875,-0.018646240234375,-0.003082275390625
1738771808491005200,8.357005126953124,-1.0036163330078125,-0.016876220703125,-0.0037384033203125
1738771808500997400,8.366997314453124,-1.0045623779296875,-0.0179595947265625,-0.0030059814453125
1738771808510988300,8.37698828125,-1.0039520263671875,-0.0180816650390625,-0.0039215087890625
1738771808520979200,8.386979248046876,-1.004364013671875,-0.018310546875,-0.0032958984375
1738771808530971400,8.396971435546876,-1.00445556640625,-0.0179901123046875,-0.0027313232421875
1738771808540962300,8.40696240234375,-1.0037994384765625,-0.019287109375,-0.0027923583984375
1738771808550954200,8.416954345703125,-1.0054779052734375,-0.017822265625,-0.003143310546875
1738771808560945200,8.426945068359375,-1.0049285888671875,-0.018890380859375,-0.002960205078125
1738771808570937000,8.43693701171875,-1.004241943359375,-0.0194549560546875,-0.002960205078125
1738771808580928300,8.44692822265625,-1.004150390625,-0.01837158203125,-0.002593994140625
1738771808590919200,8.456919189453124,-1.0035247802734375,-0.018341064453125,-0.0032958984375
1738771808600911000,8.4669111328125,-1.0042572021484375,-0.0191802978515625,-0.0030517578125
1738771808610902300,8.47690234375,-1.00360107421875,-0.0183868408203125,-0.00274658203125
1738771808620894200,8.486894287109376,-1.0055389404296875,-0.0188751220703125,-0.004058837890625
1738771808630885000,8.496885009765625,-1.0051116943359375,-0.01788330078125,-0.004241943359375
1738771808640877300,8.506877197265625,-1.0049591064453125,-0.017730712890625,-0.0028228759765625
1738771808650868200,8.5168681640625,-1.004547119140625,-0.018310546875,-0.00244140625
1738771808660860400,8.5268603515625,-1.0046234130859375,-0.017913818359375,-0.0038909912109375
1738771808670851300,8.536851318359375,-1.004791259765625,-0.018402099609375,-0.0025787353515625
1738771808680842200,8.54684228515625,-1.0032501220703125,-0.0179595947265625,-0.0027313232421875
1738771808690834200,8.556834228515624,-1.004638671875,-0.0182342529296875,-0.00177001953125
1738771808700825000,8.5668251953125,-1.0029144287109375,-0.019439697265625,-0.0027313232421875
1738771808710817300,8.5768173828125,-1.006134033203125,-0.0183563232421875,-0.001678466796875
1738771808720808200,8.58680810546875,-1.004547119140625,-0.017669677734375,-0.00213623046875
1738771808730800000,8.596800048828126,-1.003692626953125,-0.018463134765625,-0.002716064453125
1738771808740791300,8.606791259765625,-1.004608154296875,-0.0179290771484375,-0.0021514892578125
1738771808750783200,8.616783203125,-1.0029296875,-0.0183563232421875,-0.0032806396484375
1738771808760774100,8.626774169921875,-1.0037078857421875,-0.018524169921875,-0.0020904541015625
1738771808770765300,8.636765380859375,-1.0052032470703125,-0.0176849365234375,-0.00152587890625
1738771808780757200,8.64675732421875,-1.0045623779296875,-0.019012451171875,-0.0021209716796875
1738771808790748200,8.656748046875,-1.0041351318359375,-0.0188446044921875,-0.0021820068359375
1738771808800740400,8.666740234375,-1.004058837890625,-0.018798828125,-0.002777099609375
1738771808810731300,8.676731201171876,-1.003936767578125,-0.0188446044921875,-0.0034332275390625
1738771808820723200,8.68672314453125,-1.004425048828125,-0.0172119140625,-0.0025482177734375
1738771808830714000,8.696714111328125,-1.0046539306640625,-0.0178680419921875,-0.0036773681640625
1738771808840705000,8.706705078125,-1.0045623779296875,-0.018829345703125,-0.00146484375
1738771808850697000,8.716697021484375,-1.0035400390625,-0.018463134765625,-0.00225830078125
1738771808860688000,8.72668798828125,-1.0045318603515625,-0.018829345703125,-0.0029754638671875
1738771808870680000,8.73668017578125,-1.004638671875,-0.0189056396484375,-0.0028839111328125
1738771808880671000,8.7466708984375,-1.004180908203125,-0.0175628662109375,-0.002838134765625
1738771808890663000,8.756662841796874,-1.0038909912109375,-0.0179443359375,-0.0027618408203125
1738771808900654000,8.766654052734374,-1.004150390625,-0.01800537109375,-0.0028839111328125
1738771808910646000,8.77664599609375,-1.0040283203125,-0.0178375244140625,-0.0028228759765625
1738771808920637200,8.78663720703125,-1.00335693359375,-0.0179901123046875,-0.0037078857421875
1738771808930628000,8.796628173828125,-1.004119873046875,-0.0177001953125,-0.00274658203125
1738771808940620000,8.8066201171875,-1.0045318603515625,-0.018280029296875,-0.0021514892578125
1738771808950611200,8.816611083984375,-1.0038909912109375,-0.0190277099609375,-0.003143310546875
1738771808960603000,8.826602783203125,-1.0049896240234375,-0.0178985595703125,-0.00244140625
1738771808970594000,8.836593994140625,-1.003662109375,-0.017974853515625,-0.00213623046875
1738771808980586000,8.8465859375,-1.00543212890625,-0.0196685791015625,-0.002960205078125
1738771808990577000,8.856576904296874,-1.0037841796875,-0.0191497802734375,-0.0026397705078125
1738771809000567800,8.86656787109375,-1.0024871826171875,-0.0184326171875,-0.0024261474609375
1738771809010560000,8.87656005859375,-1.0031585693359375,-0.0179595947265625,-0.00262451171875
1738771809020551000,8.886551025390625,-1.002197265625,-0.018707275390625,-0.0029144287109375
1738771809030543000,8.896543212890625,-1.0039825439453125,-0.0175933837890625,-0.00299072265625
1738771809040534000,8.906533935546875,-1.0045623779296875,-0.0182647705078125,-0.003753662109375
1738771809050526000,8.91652587890625,-1.00445556640625,-0.0183563232421875,-0.0024566650390625
1738771809060517000,8.92651708984375,-1.0049896240234375,-0.018035888671875,-0.00213623046875
1738771809070509000,8.936509033203125,-1.0035247802734375,-0.0186920166015625,-0.0025482177734375
1738771809080500200,8.946500244140625,-1.0043792724609375,-0.0195465087890625,-0.0019073486328125
1738771809090491100,8.9564912109375,-1.004302978515625,-0.0190582275390625,-0.0017852783203125
1738771809100482800,8.96648291015625,-1.0038909912109375,-0.017822265625,-0.00311279296875
1738771809110474000,8.976473876953126,-1.00396728515625,-0.01824951171875,-0.0025482177734375
1738771809120466000,8.9864658203125,-1.00494384765625,-0.017181396484375,-0.002777099609375
1738771809130456800,8.996456787109375,-1.003662109375,-0.0177459716796875,-0.001800537109375
1738771809140449000,9.006448974609375,-1.0045318603515625,-0.0176849365234375,-0.002349853515625
1738771809150440000,9.01643994140625,-1.005523681640625,-0.019012451171875,-0.0032196044921875
1738771809160430800,9.026430908203125,-1.00506591796875,-0.01837158203125,-0.0030670166015625
1738771809170423000,9.036423095703125,-1.0042266845703125,-0.0185089111328125,-0.002532958984375
1738771809180414000,9.0464140625,-1.0038604736328125,-0.019134521484375,-0.004058837890625
1738771809190406100,9.05640625,-1.004119873046875,-0.0186309814453125,-0.0027313232421875
1738771809200397000,9.06639697265625,-1.0029144287109375,-0.01873779296875,-0.00238037109375
1738771809210389200,9.07638916015625,-1.0056304931640625,-0.0184478759765625,-0.0031280517578125
1738771809220380200,9.086380126953125,-1.003875732421875,-0.019317626953125,-0.0021514892578125
1738771809230371800,9.096371826171875,-1.0041961669921875,-0.0184478759765625,-0.0028228759765625
1738771809240363000,9.106363037109375,-1.00439453125,-0.018402099609375,-0.002838134765625
1738771809250354200,9.116354248046875,-1.0048675537109375,-0.0180511474609375,-0.003173828125
1738771809260345900,9.126345947265625,-1.0054779052734375,-0.0182647705078125,-0.0015106201171875
1738771809270337000,9.1363369140625,-1.0052337646484375,-0.0190277099609375,-0.0022125244140625
1738771809280329000,9.146328857421874,-1.00439453125,-0.0166015625,-0.0031280517578125
1738771809290320000,9.15631982421875,-1.002105712890625,-0.018310546875,-0.003326416015625
1738771809300312000,9.16631201171875,-1.003631591796875,-0.017791748046875,-0.003387451171875
1738771809310303000,9.176302978515626,-1.0040283203125,-0.018402099609375,-0.002044677734375
1738771809320294000,9.1862939453125,-1.00555419921875,-0.019317626953125,-0.0026702880859375
1738771809330286000,9.1962861328125,-1.0048675537109375,-0.0186309814453125,-0.0024871826171875
1738771809340277000,9.206277099609375,-1.004425048828125,-0.0174102783203125,-0.0018463134765625
1738771809350269200,9.216269287109375,-1.0034332275390625,-0.0200653076171875,-0.0024261474609375
1738771809360260000,9.226260009765625,-1.0045928955078125,-0.0192718505859375,-0.0026397705078125
1738771809370252000,9.236251953125,-1.00396728515625,-0.0178680419921875,-0.003875732421875
1738771809380243000,9.246242919921874,-1.0048370361328125,-0.01861572265625,-0.0030059814453125
1738771809390234000,9.256234130859376,-1.0049896240234375,-0.0194244384765625,-0.0021209716796875
1738771809400226000,9.26622607421875,-1.00335693359375,-0.018280029296875,-0.0033721923828125
1738771809410217000,9.276217041015625,-1.0037078857421875,-0.0188140869140625,-0.0023651123046875
1738771809420209000,9.286208984375,-1.004150390625,-0.0187225341796875,-0.0023193359375
1738771809430200000,9.296199951171875,-1.0046539306640625,-0.01934814453125,-0.0018157958984375
1738771809440192000,9.30619189453125,-1.0049285888671875,-0.018402099609375,-0.0038299560546875
1738771809450183000,9.316182861328125,-1.0047149658203125,-0.0181884765625,-0.003021240234375
1738771809460174000,9.326174072265625,-1.003662109375,-0.0191802978515625,-0.00384521484375
1738771809470166000,9.336166015625,-1.003875732421875,-0.0181121826171875,-0.0032196044921875
1738771809480157200,9.3461572265625,-1.0036773681640625,-0.0186920166015625,-0.002899169921875
1738771809490149000,9.356149169921874,-1.0041656494140625,-0.0179901123046875,-0.0035858154296875
1738771809500140000,9.36614013671875,-1.0057830810546875,-0.0178680419921875,-0.0013885498046875
1738771809510132000,9.376132080078126,-1.0037994384765625,-0.01800537109375,-0.0026092529296875
1738771809520123000,9.386122802734375,-1.0040740966796875,-0.0182037353515625,-0.0031280517578125
1738771809530115000,9.396114990234375,-1.0056915283203125,-0.018157958984375,-0.0039215087890625
1738771809540106000,9.40610595703125,-1.0038299560546875,-0.018798828125,-0.002777099609375
1738771809550097000,9.416096923828125,-1.00274658203125,-0.018768310546875,-0.0030670166015625
1738771809560089000,9.426089111328125,-1.0037841796875,-0.01788330078125,-0.0035400390625
1738771809570080000,9.436080078125,-1.0058135986328125,-0.018829345703125,-0.0028076171875
1738771809580072000,9.446072021484374,-1.0044097900390625,-0.0179901123046875,-0.0022125244140625
1738771809590063000,9.45606298828125,-1.0053863525390625,-0.018402099609375,-0.003509521484375
1738771809600055000,9.466054931640626,-1.0054168701171875,-0.018524169921875,-0.0036773681640625
1738771809610046000,9.4760458984375,-1.0039825439453125,-0.019256591796875,-0.0034942626953125
1738771809620037000,9.486037109375,-1.0049285888671875,-0.01812744140625,-0.002655029296875
1738771809630029000,9.496029052734375,-1.0042724609375,-0.01788330078125,-0.0030059814453125
1738771809640020200,9.506020263671875,-1.003875732421875,-0.0187530517578125,-0.0022430419921875
1738771809650012000,9.516011962890625,-1.0042877197265625,-0.0180511474609375,-0.002655029296875
1738771809660003000,9.526003173828125,-1.0048980712890625,-0.018218994140625,-0.00372314453125
1738771809669995000,9.5359951171875,-1.0042266845703125,-0.0186767578125,-0.003875732421875
1738771809679986000,9.54598583984375,-1.004180908203125,-0.0182342529296875,-0.0023956298828125
1738771809689976800,9.555976806640626,-1.004425048828125,-0.01800537109375,-0.0029754638671875
1738771809699969000,9.565968994140626,-1.00482177734375,-0.019287109375,-0.003570556640625
1738771809709960000,9.5759599609375,-1.003509521484375,-0.01861572265625,-0.0031585693359375
1738771809719952100,9.5859521484375,-1.0037689208984375,-0.0191497802734375,-0.003143310546875
1738771809729943000,9.595943115234375,-1.0026397705078125,-0.017852783203125,-0.0022430419921875
1738771809739935000,9.60593505859375,-1.005584716796875,-0.0196990966796875,-0.0016632080078125
1738771809749926100,9.615926025390625,-1.00537109375,-0.0172882080078125,-0.002532958984375
1738771809759917000,9.6259169921875,-1.003448486328125,-0.018768310546875,-0.00323486328125
1738771809769909000,9.635908935546874,-1.00457763671875,-0.0192413330078125,-0.002410888671875
1738771809779900200,9.645900146484376,-1.0045623779296875,-0.0194091796875,-0.00238037109375
1738771809789891800,9.655891845703126,-1.0059661865234375,-0.0181884765625,-0.0025177001953125
1738771809799883000,9.665883056640626,-1.004974365234375,-0.0179901123046875,-0.0026702880859375
1738771809809875000,9.675875,-1.0029754638671875,-0.0179901123046875,-0.002227783203125
1738771809819865900,9.685865966796875,-1.0036163330078125,-0.01885986328125,-0.004058837890625
1738771809829858000,9.695858154296875,-1.0028533935546875,-0.01776123046875,-0.0022735595703125
1738771809839850200,9.705850341796875,-1.0032958984375,-0.0189971923828125,-0.0023040771484375
1738771809849841200,9.715841064453125,-1.0040740966796875,-0.02001953125,-0.0042724609375
1738771809859833000,9.7258330078125,-1.0040283203125,-0.0189361572265625,-0.0018768310546875
1738771809869824300,9.73582421875,-1.0052337646484375,-0.017913818359375,-0.0018310546875
1738771809879816000,9.74581591796875,-1.006256103515625,-0.0174713134765625,-0.001922607421875
1738771809889807000,9.75580712890625,-1.0049896240234375,-0.0180511474609375,-0.0041046142578125
1738771809899799000,9.765799072265626,-1.00439453125,-0.018585205078125,-0.0029449462890625
1738771809909790000,9.7757900390625,-1.0041656494140625,-0.019500732421875,-0.002288818359375
1738771809919781000,9.785781005859375,-1.0036468505859375,-0.0184783935546875,-0.00225830078125
1738771809929773000,9.79577294921875,-1.003753662109375,-0.018798828125,-0.0029754638671875
1738771809939764000,9.805763916015625,-1.0037078857421875,-0.018585205078125,-0.003326416015625
1738771809949756200,9.815756103515625,-1.002838134765625,-0.018035888671875,-0.0018768310546875
1738771809959747000,9.8257470703125,-1.004852294921875,-0.01861572265625,-0.00262451171875
1738771809969739300,9.8357392578125,-1.0030517578125,-0.0193939208984375,-0.0030975341796875
1738771809979730200,9.845730224609374,-1.0040130615234375,-0.017486572265625,-0.003448486328125
1738771809989721000,9.85572119140625,-1.0043182373046875,-0.016571044921875,-0.003662109375
1738771809999713300,9.86571337890625,-1.0042724609375,-0.017608642578125,-0.0031280517578125
1738771810009704200,9.8757041015625,-1.0048370361328125,-0.0184173583984375,-0.002197265625
1738771810019695900,9.88569580078125,-1.0047760009765625,-0.01849365234375,-0.001922607421875
1738771810029687000,9.89568701171875,-1.0024566650390625,-0.017730712890625,-0.0029144287109375
1738771810039679000,9.905678955078125,-1.004730224609375,-0.0182342529296875,-0.00225830078125
1738771810049670100,9.915670166015625,-1.0058135986328125,-0.01837158203125,-0.0042572021484375
1738771810059661000,9.9256611328125,-1.002960205078125,-0.018585205078125,-0.003570556640625
1738771810069653000,9.935653076171874,-1.0042266845703125,-0.0176544189453125,-0.0018310546875
1738771810079644200,9.94564404296875,-1.0035552978515625,-0.0178680419921875,-0.003082275390625
1738771810089636000,9.955635986328126,-1.003265380859375,-0.0185546875,-0.00347900390625
1738771810099627000,9.965626953125,-1.0040283203125,-0.0183868408203125,-0.0028076171875
1738771810109619200,9.975619140625,-1.0034942626953125,-0.0185394287109375,-0.002593994140625
1738771810119610000,9.985610107421875,-1.00274658203125,-0.01861572265625,-0.002838134765625
1738771810129601000,9.99560107421875,-1.0065460205078125,-0.0184478759765625,-0.0041351318359375
1738771810139593200,10.00559326171875,-1.0051116943359375,-0.0174560546875,-0.002471923828125
1738771810149584100,10.015584228515625,-1.0047454833984375,-0.01824951171875,-0.003265380859375
1738771810159576000,10.025576171875,-1.0037841796875,-0.0180206298828125,-0.0022430419921875
1738771810169567200,10.035567138671874,-1.0031585693359375,-0.0193939208984375,-0.0027923583984375
1738771810179559000,10.045558837890624,-1.0042572021484375,-0.01788330078125,-0.0024871826171875
1738771810189550000,10.055550048828126,-1.0040435791015625,-0.019012451171875,-0.0037078857421875
1738771810199541000,10.065541015625,-1.00372314453125,-0.0196533203125,-0.00323486328125
1738771810209533200,10.075533203125,-1.004669189453125,-0.0199127197265625,-0.0039215087890625
1738771810219524000,10.085524169921875,-1.0060577392578125,-0.017120361328125,-0.0033111572265625
1738771810229516000,10.09551611328125,-1.004669189453125,-0.0181884765625,-0.0033111572265625
1738771810239507200,10.105507080078125,-1.0052032470703125,-0.0199432373046875,-0.003265380859375
1738771810249499100,10.1154990234375,-1.0052642822265625,-0.019775390625,-0.003173828125
1738771810259490000,10.125489990234374,-1.0036163330078125,-0.0181121826171875,-0.0032501220703125
1738771810269481200,10.135481201171874,-1.004150390625,-0.017791748046875,-0.0029144287109375
1738771810279473200,10.14547314453125,-1.0054779052734375,-0.018341064453125,-0.0031585693359375
1738771810289464000,10.155464111328126,-1.004425048828125,-0.017822265625,-0.0023651123046875
1738771810299456000,10.1654560546875,-1.003143310546875,-0.0184173583984375,-0.001983642578125
1738771810309447200,10.175447265625,-1.0043182373046875,-0.0189056396484375,-0.002349853515625
1738771810319439000,10.185439208984375,-1.0035858154296875,-0.0197601318359375,-0.0027618408203125
1738771810329430000,10.195429931640625,-1.0052642822265625,-0.0190277099609375,-0.003662109375
1738771810339421000,10.2054208984375,-1.004486083984375,-0.0183258056640625,-0.0038909912109375
1738771810349413000,10.2154130859375,-1.0041351318359375,-0.0183258056640625,-0.00164794921875
1738771810359404000,10.225404052734374,-1.003936767578125,-0.017730712890625,-0.00238037109375
1738771810369396200,10.235396240234374,-1.0034637451171875,-0.0181732177734375,-0.0031890869140625
1738771810379387100,10.24538720703125,-1.004638671875,-0.0185394287109375,-0.0028076171875
1738771810389379000,10.255379150390626,-1.003570556640625,-0.0192718505859375,-0.00384521484375
1738771810399370200,10.265370361328126,-1.0039520263671875,-0.0185546875,-0.0031280517578125
1738771810409361200,10.275361083984375,-1.0030975341796875,-0.017578125,-0.00164794921875
1738771810419353000,10.28535302734375,-1.004302978515625,-0.0186920166015625,-0.0028839111328125
1738771810429344300,10.29534423828125,-1.0040435791015625,-0.018463134765625,-0.0017547607421875
1738771810439336000,10.3053359375,-1.0034027099609375,-0.0181884765625,-0.0020599365234375
1738771810449327000,10.3153271484375,-1.0025787353515625,-0.0178985595703125,-0.003509521484375
1738771810459319000,10.325319091796874,-1.0035247802734375,-0.0173797607421875,-0.003936767578125
1738771810469310000,10.33531005859375,-1.0037994384765625,-0.018310546875,-0.00311279296875
1738771810479301000,10.345301025390626,-1.0051116943359375,-0.01812744140625,-0.002532958984375
1738771810489293000,10.35529296875,-1.00433349609375,-0.01800537109375,-0.0025787353515625
1738771810499284000,10.365283935546875,-1.004302978515625,-0.01727294921875,-0.0030975341796875
1738771810509276200,10.375276123046875,-1.0043487548828125,-0.0176544189453125,-0.00091552734375
1738771810519267000,10.38526708984375,-1.00347900390625,-0.01934814453125,-0.003326416015625
1738771810529259300,10.39525927734375,-1.0041351318359375,-0.0189666748046875,-0.0025177001953125
1738771810539250200,10.405250244140625,-1.0032196044921875,-0.0180511474609375,-0.0018157958984375
1738771810549241000,10.415240966796874,-1.003753662109375,-0.0178070068359375,-0.0040130615234375
1738771810559233300,10.4252333984375,-1.00531005859375,-0.0192413330078125,-0.0022735595703125
1738771810569224200,10.43522412109375,-1.0043487548828125,-0.0180511474609375,-0.0023651123046875
1738771810579216100,10.445216064453126,-1.00604248046875,-0.018890380859375,-0.00384521484375
1738771810589207300,10.455207275390626,-1.00543212890625,-0.0181427001953125,-0.0026397705078125
1738771810599199000,10.465198974609375,-1.003936767578125,-0.018310546875,-0.0028076171875
1738771810609190000,10.47518994140625,-1.0050811767578125,-0.018310546875,-0.0044403076171875
1738771810619181000,10.48518115234375,-1.0044403076171875,-0.0173492431640625,-0.0038604736328125
1738771810629173000,10.495173095703125,-1.0042266845703125,-0.01953125,-0.0032806396484375
1738771810639164200,10.5051640625,-1.0037689208984375,-0.0192413330078125,-0.0028228759765625
1738771810649156000,10.515156005859374,-1.002349853515625,-0.018585205078125,-0.0027008056640625
1738771810659147000,10.52514697265625,-1.00360107421875,-0.0186614990234375,-0.0030975341796875
1738771810669139200,10.53513916015625,-1.0047607421875,-0.0189056396484375,-0.0017852783203125
1738771810679130000,10.545130126953126,-1.004974365234375,-0.0176544189453125,-0.002960205078125
1738771810689121000,10.55512109375,-1.0047607421875,-0.0186920166015625,-0.0029754638671875
1738771810699113200,10.56511328125,-1.0048370361328125,-0.0178985595703125,-0.0030670166015625
1738771810709104000,10.575104248046875,-1.00567626953125,-0.018707275390625,-0.0028228759765625
1738771810719096000,10.585095947265625,-1.004730224609375,-0.01837158203125,-0.0028228759765625
1738771810729087200,10.595087158203125,-1.0047149658203125,-0.017578125,-0.0024566650390625
1738771810739079000,10.605078857421875,-1.0025177001953125,-0.0189666748046875,-0.0043182373046875
1738771810749070000,10.615070068359374,-1.0032501220703125,-0.01873779296875,-0.0028839111328125
1738771810759061000,10.62506103515625,-1.0045928955078125,-0.0187530517578125,-0.0021209716796875
1738771810769053000,10.635052978515626,-1.004913330078125,-0.01898193359375,-0.00311279296875
1738771810779044000,10.645044189453126,-1.0059814453125,-0.019073486328125,-0.003143310546875
1738771810789036000,10.6550361328125,-1.0052642822265625,-0.018341064453125,-0.003997802734375
1738771810799027200,10.665027099609375,-1.00299072265625,-0.0189361572265625,-0.0037994384765625
1738771810809019100,10.67501904296875,-1.0033721923828125,-0.019134521484375,-0.0019683837890625
1738771810819010000,10.685010009765625,-1.0038299560546875,-0.0170745849609375,-0.0039825439453125
1738771810829001200,10.695001220703125,-1.0038299560546875,-0.018707275390625,-0.00164794921875
1738771810838993000,10.704992919921875,-1.002685546875,-0.01898193359375,-0.002777099609375
1738771810848983800,10.71498388671875,-1.0038909912109375,-0.0178375244140625,-0.00286865234375
1738771810858975700,10.724975830078124,-1.0054473876953125,-0.017242431640625,-0.0015411376953125
1738771810868967000,10.734966796875,-1.0050506591796875,-0.0188140869140625,-0.0020904541015625
1738771810878958600,10.74495849609375,-1.006195068359375,-0.0186614990234375,-0.0029144287109375
1738771810888949800,10.75494970703125,-1.0042266845703125,-0.0171051025390625,-0.0030975341796875
1738771810898941000,10.76494091796875,-1.0011749267578125,-0.017608642578125,-0.003692626953125
1738771810908932600,10.7749326171875,-1.004486083984375,-0.019073486328125,-0.002227783203125
1738771810918923500,10.784923583984375,-1.0022125244140625,-0.018218994140625,-0.0022735595703125
1738771810928915700,10.794915771484375,-1.002685546875,-0.017547607421875,-0.0035247802734375
1738771810938906600,10.80490673828125,-1.0054779052734375,-0.018707275390625,-0.00494384765625
1738771810948898800,10.81489892578125,-1.003173828125,-0.0176849365234375,-0.0023956298828125
1738771810958889700,10.8248896484375,-1.005401611328125,-0.0182037353515625,-0.0029754638671875
1738771810968880600,10.834880615234376,-1.0043182373046875,-0.0183563232421875,-0.003753662109375
1738771810978872800,10.844872802734375,-1.0033416748046875,-0.01898193359375,-0.0025482177734375
1738771810988863700,10.85486376953125,-1.00384521484375,-0.0191497802734375,-0.0028076171875
1738771810998856000,10.86485595703125,-1.003265380859375,-0.0180816650390625,-0.002899169921875
1738771811008846800,10.874846923828125,-1.0047454833984375,-0.0180206298828125,-0.0034942626953125
1738771811018837800,10.884837646484375,-1.0044403076171875,-0.01849365234375,-0.0027923583984375
1738771811028829700,10.89482958984375,-1.004638671875,-0.0190277099609375,-0.002288818359375
1738771811038820900,10.90482080078125,-1.003631591796875,-0.01904296875,-0.00225830078125
1738771811048812500,10.9148125,-1.003814697265625,-0.019073486328125,-0.0028228759765625
1738771811058803700,10.9248037109375,-1.0035247802734375,-0.0196380615234375,-0.00311279296875
1738771811068795600,10.934795654296876,-1.003753662109375,-0.0192108154296875,-0.0031585693359375
1738771811078786600,10.94478662109375,-1.0020904541015625,-0.0186767578125,-0.0035400390625
1738771811088777700,10.95477783203125,-1.0052490234375,-0.0180206298828125,-0.00286865234375
1738771811098769700,10.964769775390625,-1.005035400390625,-0.0179443359375,-0.003173828125
1738771811108760800,10.9747607421875,-1.0072021484375,-0.017303466796875,-0.00299072265625
1738771811118752800,10.984752685546875,-1.004608154296875,-0.017181396484375,-0.00262451171875
1738771811128743700,10.99474365234375,-1.0037384033203125,-0.019622802734375,-0.003082275390625
1738771811138735900,11.00473583984375,-1.0042572021484375,-0.0188140869140625,-0.0023193359375
1738771811148726800,11.014726806640626,-1.0048980712890625,-0.0186004638671875,-0.003173828125
1738771811158717700,11.0247177734375,-1.0037078857421875,-0.01904296875,-0.00408935546875
1738771811168709600,11.034709716796876,-1.00531005859375,-0.0177001953125,-0.0025177001953125
1738771811178700800,11.04470068359375,-1.0029449462890625,-0.0180511474609375,-0.003326416015625
1738771811188692700,11.054692626953125,-1.0025482177734375,-0.0177001953125,-0.0036468505859375
1738771811198683600,11.06468359375,-1.0059051513671875,-0.0186614990234375,-0.002593994140625
1738771811208675600,11.074675537109375,-1.0056915283203125,-0.018798828125,-0.003509521484375
1738771811218666800,11.084666748046875,-1.0044097900390625,-0.0169830322265625,-0.0032501220703125
1738771811228657700,11.09465771484375,-1.00506591796875,-0.0184478759765625,-0.0029296875
1738771811238649900,11.10464990234375,-1.0040130615234375,-0.019317626953125,-0.0033721923828125
1738771811248640800,11.114640869140626,-1.0045166015625,-0.017547607421875,-0.0028076171875
1738771811258632700,11.1246328125,-1.0046234130859375,-0.01873779296875,-0.00299072265625
1738771811268624000,11.134623779296875,-1.004608154296875,-0.0187225341796875,-0.0020904541015625
1738771811278615800,11.14461572265625,-1.003143310546875,-0.0191192626953125,-0.0029296875
1738771811288606700,11.154606689453125,-1.0058441162109375,-0.018798828125,-0.003662109375
1738771811298598000,11.164597900390625,-1.002838134765625,-0.018798828125,-0.0034637451171875
1738771811308589800,11.17458984375,-1.0036163330078125,-0.0187225341796875,-0.003631591796875
1738771811318580700,11.184580810546874,-1.0036468505859375,-0.0189056396484375,-0.0027618408203125
1738771811328572700,11.19457275390625,-1.00445556640625,-0.0186004638671875,-0.0034942626953125
1738771811338563600,11.2045634765625,-1.0050201416015625,-0.0194854736328125,-0.00262451171875
1738771811348554500,11.214554443359376,-1.0050048828125,-0.018707275390625,-0.002685546875
1738771811358546700,11.224546630859376,-1.0028533935546875,-0.0181884765625,-0.0006256103515625
1738771811368537600,11.23453759765625,-1.005889892578125,-0.0178070068359375,-0.0032958984375
1738771811378529800,11.24452978515625,-1.0053863525390625,-0.0178985595703125,-0.00390625
1738771811388520700,11.254520751953125,-1.0048370361328125,-0.0189666748046875,-0.00390625
1738771811398513000,11.264512939453125,-1.00262451171875,-0.018524169921875,-0.0031280517578125
1738771811408503800,11.27450390625,-1.0035247802734375,-0.0185394287109375,-0.0028839111328125
1738771811418494700,11.28449462890625,-1.0035400390625,-0.0189666748046875,-0.0042724609375
1738771811428487000,11.29448681640625,-1.003753662109375,-0.0179443359375,-0.0040130615234375
1738771811438477800,11.304477783203126,-1.0041046142578125,-0.01898193359375,-0.0030975341796875
1738771811448469800,11.3144697265625,-1.00531005859375,-0.01983642578125,-0.0027923583984375
1738771811458461000,11.3244609375,-1.00445556640625,-0.01788330078125,-0.002838134765625
1738771811468452600,11.33445263671875,-1.0047454833984375,-0.0179901123046875,-0.0038299560546875
1738771811478443500,11.344443603515625,-1.0034027099609375,-0.018524169921875,-0.00311279296875
1738771811488434700,11.3544345703125,-1.0031890869140625,-0.018341064453125,-0.003662109375
1738771811498426600,11.364426513671875,-1.00341796875,-0.01873779296875,-0.002655029296875
1738771811508417800,11.374417724609375,-1.004547119140625,-0.0184478759765625,-0.00299072265625
1738771811518409700,11.38440966796875,-1.0043182373046875,-0.018402099609375,-0.0032958984375
1738771811528400600,11.394400634765624,-1.00372314453125,-0.018280029296875,-0.002532958984375
1738771811538392800,11.404392822265624,-1.005126953125,-0.0186767578125,-0.0027923583984375
1738771811548383700,11.4143837890625,-1.005279541015625,-0.017242431640625,-0.00347900390625
1738771811558374700,11.424374755859375,-1.0033721923828125,-0.0162353515625,-0.0036773681640625
1738771811568366800,11.434366943359375,-1.0035552978515625,-0.0175018310546875,-0.0027618408203125
1738771811578357800,11.444357666015625,-1.003875732421875,-0.018646240234375,-0.002410888671875
1738771811588349700,11.454349609375,-1.004119873046875,-0.0182037353515625,-0.003509521484375
1738771811598340900,11.4643408203125,-1.00457763671875,-0.01824951171875,-0.0027923583984375
1738771811608331800,11.474331787109374,-1.0035247802734375,-0.01910400390625,-0.002838134765625
1738771811618323700,11.48432373046875,-1.00201416015625,-0.0191650390625,-0.0025482177734375
1738771811628314600,11.494314697265626,-1.00408935546875,-0.0186004638671875,-0.002838134765625
1738771811638306600,11.504306640625,-1.0037994384765625,-0.0183563232421875,-0.0030975341796875
1738771811648297700,11.514297607421875,-1.0022430419921875,-0.0181884765625,-0.0024871826171875
1738771811658289700,11.52428955078125,-1.0044097900390625,-0.0184783935546875,-0.002838134765625
1738771811668280800,11.53428076171875,-1.006134033203125,-0.018280029296875,-0.0019378662109375
1738771811678271700,11.544271728515625,-1.006134033203125,-0.01837158203125,-0.002227783203125
1738771811688263700,11.554263671875,-1.006378173828125,-0.0189666748046875,-0.0026092529296875
1738771811698254800,11.5642548828125,-1.0054931640625,-0.0180816650390625,-0.00347900390625
1738771811708246800,11.574246826171875,-1.002410888671875,-0.019775390625,-0.001800537109375
1738771811718237700,11.58423779296875,-1.0007171630859375,-0.018463134765625,-0.0027313232421875
1738771811728230000,11.59422998046875,-1.001739501953125,-0.0186309814453125,-0.0026092529296875
1738771811738220800,11.604220703125,-1.00146484375,-0.01910400390625,-0.0029296875
1738771811748211700,11.614211669921875,-1.003936767578125,-0.019317626953125,-0.0021820068359375
1738771811758203600,11.62420361328125,-1.0051727294921875,-0.0197601318359375,-0.0027923583984375
1738771811768194600,11.634194580078125,-1.006011962890625,-0.0185089111328125,-0.0041046142578125
1738771811778186800,11.644186767578125,-1.00811767578125,-0.0193023681640625,-0.0031280517578125
1738771811788177700,11.654177734375,-1.0067138671875,-0.0189208984375,-0.00115966796875
1738771811798169600,11.664169677734375,-1.0023345947265625,-0.0179901123046875,-0.0029144287109375
1738771811808160800,11.674160888671874,-1.0021820068359375,-0.0181884765625,-0.0032196044921875
1738771811818151700,11.684151611328126,-1.0023040771484375,-0.0191802978515625,-0.0045928955078125
1738771811828143900,11.694143798828126,-1.00311279296875,-0.0185699462890625,-0.003692626953125
1738771811838134800,11.704134765625,-1.0048828125,-0.0175933837890625,-0.0038909912109375
1738771811848126200,11.714126220703125,-1.0049285888671875,-0.0180206298828125,-0.0029296875
1738771811858117400,11.724117431640625,-1.0042266845703125,-0.0192718505859375,-0.0022735595703125
1738771811868108300,11.7341083984375,-1.003173828125,-0.0185546875,-0.00213623046875
1738771811878100200,11.744100341796875,-1.004241943359375,-0.0178070068359375,-0.002838134765625
1738771811888091400,11.75409130859375,-1.0047760009765625,-0.018890380859375,-0.0019073486328125
1738771811898083300,11.764083251953124,-1.004425048828125,-0.0180816650390625,-0.0036468505859375
1738771811908074500,11.774074462890624,-1.0052337646484375,-0.017578125,-0.0031585693359375
1738771811918066200,11.784066162109376,-1.0055084228515625,-0.0183258056640625,-0.0024871826171875
1738771811928057000,11.79405712890625,-1.00433349609375,-0.01800537109375,-0.002655029296875
1738771811938048300,11.80404833984375,-1.004150390625,-0.017333984375,-0.0027618408203125
1738771811948040200,11.814040283203125,-1.003387451171875,-0.0181427001953125,-0.0033111572265625
1738771811958031000,11.824031005859375,-1.0025482177734375,-0.0191650390625,-0.002197265625
1738771811968023300,11.834023193359375,-1.0029296875,-0.01873779296875,-0.00244140625
1738771811978014200,11.84401416015625,-1.0038909912109375,-0.0178375244140625,-0.00384521484375
1738771811988006400,11.85400634765625,-1.004608154296875,-0.018463134765625,-0.002105712890625
1738771811997997300,11.863997314453124,-1.004302978515625,-0.017974853515625,-0.002288818359375
1738771812007988200,11.87398828125,-1.0050506591796875,-0.018463134765625,-0.0031585693359375
1738771812017980400,11.88398046875,-1.0058135986328125,-0.0186309814453125,-0.0029754638671875
1738771812027971300,11.893971435546876,-1.004150390625,-0.017547607421875,-0.002166748046875
1738771812037963300,11.90396337890625,-1.0043792724609375,-0.0181427001953125,-0.0036773681640625
1738771812047954400,11.913954345703125,-1.004638671875,-0.0191802978515625,-0.0032196044921875
1738771812057946000,11.923946044921875,-1.0044708251953125,-0.0179901123046875,-0.003753662109375
1738771812067937300,11.933937255859375,-1.002960205078125,-0.0185546875,-0.0032806396484375
1738771812077928200,11.94392822265625,-1.003875732421875,-0.0181121826171875,-0.0038299560546875
1738771812087920000,11.953920166015624,-1.0037994384765625,-0.017669677734375,-0.0027618408203125
1738771812097911300,11.963911376953124,-1.004180908203125,-0.017608642578125,-0.0033721923828125
1738771812107903200,11.9739033203125,-1.0063323974609375,-0.019439697265625,-0.0032196044921875
1738771812117894100,11.98389404296875,-1.0029449462890625,-0.019256591796875,-0.0030517578125
1738771812127886300,11.99388623046875,-1.0045166015625,-0.01812744140625,-0.002716064453125
1738771812137877200,12.003877197265625,-1.0030059814453125,-0.018310546875,-0.0042266845703125
1738771812147868200,12.0138681640625,-1.002716064453125,-0.019439697265625,-0.0040283203125
1738771812157860400,12.0238603515625,-1.0030517578125,-0.0190887451171875,-0.0040283203125
1738771812167851300,12.033851318359375,-1.004669189453125,-0.0192413330078125,-0.0029144287109375
1738771812177843500,12.043843505859375,-1.0049285888671875,-0.0188446044921875,-0.002777099609375
1738771812187834400,12.05383447265625,-1.005462646484375,-0.01776123046875,-0.0023040771484375
1738771812197825300,12.0638251953125,-1.004791259765625,-0.0186767578125,-0.0033111572265625
1738771812207817200,12.073817138671876,-1.005401611328125,-0.018157958984375,-0.002532958984375
1738771812217808100,12.08380810546875,-1.00347900390625,-0.0179290771484375,-0.0030517578125
1738771812227800300,12.09380029296875,-1.001373291015625,-0.0182952880859375,-0.0023956298828125
1738771812237791200,12.103791259765625,-1.0045013427734375,-0.0192108154296875,-0.002044677734375
1738771812247783200,12.113783203125,-1.0051422119140625,-0.01837158203125,-0.00408935546875
1738771812257774300,12.1237744140625,-1.00518798828125,-0.0183563232421875,-0.0028533935546875
1738771812269014300,12.13501416015625,-1.0057373046875,-0.0183563232421875,-0.0037689208984375
1738771812279006200,12.145006103515625,-1.004119873046875,-0.0174713134765625,-0.00323486328125
1738771812288997000,12.1549970703125,-1.0042724609375,-0.018646240234375,-0.004302978515625
1738771812298989300,12.1649892578125,-1.0042572021484375,-0.018157958984375,-0.0033416748046875
1738771812308980200,12.174980224609374,-1.0048065185546875,-0.01812744140625,-0.0018310546875
1738771812318971100,12.18497119140625,-1.004913330078125,-0.018646240234375,-0.0034332275390625
1738771812328963300,12.19496337890625,-1.00347900390625,-0.0171356201171875,-0.0014190673828125
1738771812338954200,12.204954345703126,-1.0033721923828125,-0.018890380859375,-0.0032958984375
1738771812348946400,12.214946533203126,-1.0039825439453125,-0.018951416015625,-0.0022125244140625
1738771812358937300,12.224937255859375,-1.003814697265625,-0.017791748046875,-0.003875732421875
1738771812368929300,12.23492919921875,-1.005035400390625,-0.0183258056640625,-0.00299072265625
1738771812378920200,12.244920166015625,-1.005035400390625,-0.019073486328125,-0.0027923583984375
1738771812388911400,12.254911376953125,-1.0041046142578125,-0.0185546875,-0.0035400390625
1738771812398903300,12.2649033203125,-1.0057220458984375,-0.0178070068359375,-0.0041046142578125
1738771812408894200,12.274894287109374,-1.0035400390625,-0.0177764892578125,-0.00384521484375
1738771812418886100,12.28488623046875,-1.00433349609375,-0.01763916015625,-0.003021240234375
1738771812428877300,12.294877197265626,-1.0037994384765625,-0.0180206298828125,-0.0036468505859375
1738771812438869200,12.304869140625,-1.0027923583984375,-0.0182037353515625,-0.002716064453125
1738771812448860200,12.314860107421875,-1.0060882568359375,-0.017364501953125,-0.0036468505859375
1738771812458851300,12.324851318359375,-1.004669189453125,-0.0184478759765625,-0.0030517578125
1738771812468843300,12.33484326171875,-1.0042266845703125,-0.0187835693359375,-0.0011444091796875
1738771812478834200,12.344834228515625,-1.0045623779296875,-0.0186614990234375,-0.003387451171875
1738771812488826400,12.354826416015625,-1.0053253173828125,-0.0174102783203125,-0.00421142578125
1738771812498817300,12.3648173828125,-1.0043792724609375,-0.01873779296875,-0.003448486328125
1738771812508809200,12.374809326171874,-1.00439453125,-0.01837158203125,-0.0025787353515625
1738771812518800400,12.38480029296875,-1.0042724609375,-0.017669677734375,-0.0026092529296875
1738771812528791300,12.394791259765626,-1.005615234375,-0.0189208984375,-0.0029296875
1738771812538783200,12.404783203125,-1.004119873046875,-0.0187835693359375,-0.0034942626953125
1738771812548774100,12.414774169921875,-1.0028076171875,-0.017120361328125,-0.0035552978515625
1738771812558766300,12.424766357421875,-1.004058837890625,-0.0177001953125,-0.00323486328125
1738771812568757200,12.43475732421875,-1.0065155029296875,-0.01934814453125,-0.0025177001953125
1738771812578749200,12.444749267578125,-1.0045013427734375,-0.0183868408203125,-0.0035552978515625
1738771812588740400,12.454740234375,-1.004852294921875,-0.018829345703125,-0.004058837890625
1738771812598731300,12.464731201171874,-1.0050506591796875,-0.01873779296875,-0.001434326171875
1738771812608723200,12.47472314453125,-1.0045928955078125,-0.0189208984375,-0.0022125244140625
1738771812618714400,12.48471435546875,-1.005218505859375,-0.0183563232421875,-0.0031280517578125
1738771812628706300,12.494706298828126,-1.006103515625,-0.0184173583984375,-0.0022430419921875
1738771812638697500,12.504697509765625,-1.0044708251953125,-0.0189361572265625,-0.0019378662109375
1738771812648689200,12.514689208984375,-1.0037994384765625,-0.0193023681640625,-0.001312255859375
1738771812658680300,12.524680419921875,-1.00396728515625,-0.0180511474609375,-0.00274658203125
1738771812668671500,12.53467138671875,-1.002838134765625,-0.018585205078125,-0.0024871826171875
1738771812678663200,12.5446630859375,-1.004364013671875,-0.0184478759765625,-0.0034942626953125
1738771812688654000,12.554654052734374,-1.0028228759765625,-0.019195556640625,-0.003204345703125
1738771812698646300,12.564646240234374,-1.004669189453125,-0.0181884765625,-0.0034942626953125
1738771812708637200,12.57463720703125,-1.0050506591796875,-0.0184783935546875,-0.0034027099609375
1738771812718629400,12.58462939453125,-1.00396728515625,-0.0174407958984375,-0.0024566650390625
1738771812728620300,12.594620361328126,-1.00311279296875,-0.018280029296875,-0.0014190673828125
1738771812738611200,12.604611083984375,-1.0049896240234375,-0.0196533203125,-0.0023956298828125
1738771812748603400,12.614603271484375,-1.004608154296875,-0.0185699462890625,-0.0015411376953125
1738771812758594300,12.62459423828125,-1.0030975341796875,-0.0172119140625,-0.0024566650390625
1738771812768586200,12.634586181640625,-1.0029754638671875,-0.0185546875,-0.0029754638671875
1738771812778577400,12.644577392578125,-1.0028839111328125,-0.019561767578125,-0.0018768310546875
1738771812788569000,12.654569091796875,-1.0048828125,-0.0183868408203125,-0.0030975341796875
1738771812798560300,12.664560302734374,-1.0053863525390625,-0.0185546875,-0.0030059814453125
1738771812808551400,12.674551513671876,-1.0032806396484375,-0.01800537109375,-0.0027923583984375
1738771812818543000,12.684543212890626,-1.002349853515625,-0.0185546875,-0.002716064453125
1738771812828534300,12.6945341796875,-1.00531005859375,-0.0181732177734375,-0.0024566650390625
1738771812838526200,12.704526123046875,-1.0035552978515625,-0.0189971923828125,-0.0019378662109375
1738771812848517600,12.714517578125,-1.0039215087890625,-0.0187530517578125,-0.0019683837890625
1738771812858509800,12.724509765625,-1.005096435546875,-0.0183563232421875,-0.003662109375
1738771812868500700,12.734500732421875,-1.0028839111328125,-0.0190277099609375,-0.0037994384765625
