time,seconds_elapsed,z,y,x
1738771800170617600,0.03661767578125,-0.02876782932281494,-0.006878069075942039,0.0028794918259140104
1738771800180608500,0.0466083984375,-0.0366992068439722,-0.009708506728895007,-0.005646122978057246
1738771800190600400,0.056600341796875,-0.04687397937774658,-0.00013728957884013651,-0.013216055908834096
1738771800200591600,0.066591552734375,-0.04807166472971439,0.011588730984926222,-0.00452187960492447
1738771800210583600,0.07658349609375,-0.04073883762359619,0.000760481244791299,0.005172299487807322
1738771800220574500,0.086574462890625,-0.051663551741838454,-0.00803173262309283,0.0026341204964090135
1738771800230566400,0.09656640625,-0.05719838951528072,-0.009760419579222798,0.0016136069258092902
1738771800240557300,0.106557373046875,-0.04417874894440174,-0.012203867208585142,0.0018574712848174384
1738771800250549500,0.116549560546875,-0.041783962762355804,-0.01103405624423176,-0.00914777442346094
1738771800260540400,0.12654052734375,-0.038790626165270806,0.002710866393893957,-0.005231712941289879
1738771800270532400,0.136532470703125,-0.045973231145739556,0.0008868110381998122,-0.002069428968487773
1738771800280523500,0.1465234375,-0.043725744479894635,-0.0091258480027318,-0.0035703327674418686
1738771800290515500,0.156515380859375,-0.0342985754430294,-0.004946863551344723,0.004818360067158937
1738771800300506600,0.166506591796875,-0.04806640403270721,0.0009514372396282851,0.009383800252596847
1738771800310497500,0.17649755859375,-0.030258944663405417,-0.006705507254321128,-0.00607152476629708
1738771800320489500,0.186489501953125,-0.0362462023794651,0.0019009199841879306,-0.006348279898043256
1738771800330480600,0.196480712890625,-0.04627309087514877,-0.004473181624989956,0.0005153473773039877
1738771800340472600,0.20647265625,-0.04193360036611557,-0.006302004487346857,-0.006036608716542833
1738771800350463500,0.21646337890625,-0.02726736163198948,0.0021400625023059545,-0.0007699112268397584
1738771800360455400,0.226455322265625,-0.05120879371166229,0.007633910678233951,0.00688372021530522
1738771800370446300,0.2364462890625,-0.050610827818512914,0.0022855171212926508,0.0038696993065066632
1738771800380438500,0.2464384765625,-0.05525076257884502,0.005191723424196243,-0.004097856923018116
1738771800390429400,0.256429443359375,-0.044476855108141894,-0.0007949680362828076,-0.009423534041363745
1738771800400421400,0.26642138671875,-0.045672202372550964,0.002536185680422932,-0.001140016330999788
1738771800410412500,0.27641259765625,-0.02577098559439182,0.010962379247508942,0.001160442631097976
1738771800420404500,0.286404541015625,-0.035498014360666276,0.0075401314475573595,0.004349546112166717
1738771800430395400,0.2963955078125,-0.05495031832754611,0.0021107450762763618,-0.005516071424179245
1738771800440387600,0.3063876953125,-0.0501624995291233,-0.007721698559541254,-0.008978034746588672
1738771800450378500,0.31637841796875,-0.04328033879995346,-0.011691022315621375,-0.006818128182785585
1738771800460370400,0.326370361328125,-0.03774316293895244,-0.006637081660609692,0.013813176985189784
1738771800470361300,0.336361328125,-0.04597264662384987,-0.002490921766590327,0.003318403832986951
1738771800480353500,0.346353515625,-0.05210720385611057,-0.002656250129826367,-0.0005774185787537135
1738771800490344400,0.356344482421875,-0.028763153147697448,0.004630016154516488,-0.0014452965876203961
1738771800500336400,0.36633642578125,-0.04013444198966026,-0.002442296851892024,-0.0034082329743308944
1738771800510327600,0.37632763671875,-0.02921089691519737,0.005763075305055826,0.0028779711556853726
1738771800520319500,0.386319580078125,-0.04941255794465541,-0.015121106362156569,0.0010144308896851725
1738771800530310400,0.396310302734375,-0.061384735289216036,-0.000875084067787975,0.004983798028249293
1738771800540302600,0.406302490234375,-0.04162964898347855,-0.005800685635395347,-0.0023956332821282555
1738771800550293500,0.41629345703125,-0.03833820622265339,0.0000655943158082664,-0.004304700040153694
1738771800560284400,0.426284423828125,-0.02277823351919651,0.009881835735496133,-0.007027939575142227
1738771800570276600,0.436276611328125,-0.038192660272121426,-0.005435268122795969,0.0023030984437558796
1738771800580267500,0.446267578125,-0.04223404461741447,-0.004328987381327897,-0.00772082862657262
1738771800590259500,0.456259521484375,-0.043430560925602914,-0.00733646210161969,-0.0023465608428581614
1738771800600250400,0.46625048828125,-0.05046586638987064,-0.00020237243799492714,-0.0075326765101752235
1738771800610242300,0.4762421875,-0.05211129550933838,0.0024792861277237533,0.0015946305139921606
1738771800620233500,0.4862333984375,-0.04642331300079822,0.0016408442758955061,0.015660332371969708
1738771800630225400,0.496225341796875,-0.0392395389765501,-0.00815143174631521,0.008165206826629582
1738771800640216600,0.506216552734375,-0.04058452384471893,-0.004540127647668123,-0.008828767035587225
1738771800650208500,0.51620849609375,-0.03699439039826393,0.014089735754113644,-0.003844553448806982
1738771800660199400,0.526199462890625,-0.03145663001537323,0.003411014019884169,0.01197769376989454
1738771800670191600,0.536191650390625,-0.04522445860505104,0.0028615817098878323,0.002968638263957109
1738771800680182500,0.5461826171875,-0.04821662615835667,-0.0036016412211582064,0.010067161140567623
1738771800690174500,0.556174560546875,-0.048666708013415334,0.0033377295879647136,0.0006937612676876597
1738771800700165600,0.56616552734375,-0.04791793547272682,-0.0058364510685205455,-0.0014327795993420295
1738771800710157300,0.5761572265625,-0.06093640699982643,-0.0047557796923443675,0.008688869941129815
1738771800720148500,0.5861484375,-0.048964229655265805,-0.005408380115870386,0.0030568348539294675
1738771800730140400,0.596140380859375,-0.04746610005199909,-0.0032716055491939186,0.005351115236990153
1738771800740131300,0.60613134765625,-0.04896130704581737,0.003994056338537484,0.003358226670010481
1738771800750123500,0.61612353515625,-0.04836158758699894,-0.007884122579637914,0.00843210043477593
1738771800760114400,0.626114501953125,-0.035492753663659095,-0.0037001514258794485,0.004710977002815343
1738771800770106600,0.636106689453125,-0.03953355348706245,0.0032084041198715565,0.010348174605611712
1738771800780097500,0.64609765625,-0.033549802902340886,0.0009089315384626388,0.011514784399303608
1738771800790089500,0.65608935546875,-0.034898294901847836,-0.009634071519505231,-0.012079309247154741
1738771800800080600,0.66608056640625,-0.05405073913931846,-0.0076123199009336525,-0.004254084097768646
1738771800810072300,0.676072265625,-0.03504500989615917,-0.00859239871315658,-0.003492639305174816
1738771800820063500,0.6860634765625,-0.05060790520906448,-0.005416289427690207,-0.0006640396995702758
1738771800830055700,0.6960556640625,-0.061980363094806666,0.0029630145240575074,-0.003937782406923361
1738771800840046600,0.706046630859375,-0.04058277027904987,0.001182506049145013,-0.010825639941229018
1738771800850037800,0.716037841796875,-0.03938566944897175,0.0065986858789809045,0.008550399902067147
1738771800860029700,0.72602978515625,-0.03968494465649128,0.002097081877104938,0.011838095786247867
1738771800870020600,0.7360205078125,-0.03370002502799034,-0.010423176070582121,-0.012218628669588361
1738771800880012800,0.7460126953125,-0.04357786044180393,-0.00524632142195478,0.009901889859547373
1738771800890003700,0.756003662109375,-0.04971241767406463,0.0020564028068445622,-0.007581945312267634
1738771800899996000,0.765995849609375,-0.05554828422069549,-0.012791804898064583,-0.005414159119396936
1738771800909986800,0.77598681640625,-0.035496260794997216,-0.002786543712299317,0.010205679128691553
1738771800919978500,0.785978515625,-0.03669394614696502,0.010687325165793298,0.00019340368025004862
1738771800929969700,0.7959697265625,-0.03340250338613987,-0.002591550863161683,-0.001570562368526589
1738771800939961600,0.805961669921875,-0.0485159013658762,0.008943933830875902,-0.00028066640517208723
1738771800949952800,0.815952880859375,-0.048965398699045176,-0.001811013211030513,-0.0005427468408830463
1738771800959944700,0.82594482421875,-0.05046235925853252,0.0016548545349389313,0.015011901233484967
1738771800969935600,0.835935546875,-0.04791851999461651,-0.001648662256170064,-0.006168043943331577
1738771800979927800,0.845927734375,-0.04761982930898666,0.007838091480825095,0.0026800008981721474
1738771800989918700,0.855918701171875,-0.05121230084300041,-0.0036212409707717594,0.005589577335095964
1738771800999911000,0.865910888671875,-0.0488163456171751,-0.0023759353511035443,0.0012447119646240025
1738771801009901800,0.87590185546875,-0.03968728274405002,-0.0022938282919116315,0.0068544575882027855
1738771801019893800,0.885893798828125,-0.04911328273713588,0.00003565583527088165,-0.0013695325042470357
1738771801029885000,0.895885009765625,-0.05659457840323448,0.002415189649257809,0.00756577962875599
1738771801039876600,0.905876708984375,-0.041482349467277524,0.0017200469919480383,0.006240867150947451
1738771801049867500,0.915867431640625,-0.040734745970368386,0.005465334467496722,0.011837203020392916
1738771801059859700,0.925859619140625,-0.04776537525951862,0.0047651685751974576,0.01317835424694931
1738771801069850600,0.9358505859375,-0.042377837002277374,-0.003951660235226154,-0.0005858667466905899
1738771801079842800,0.9458427734375,-0.047613984090089795,-0.00029072657488286494,-0.008453965206712018
1738771801089833700,0.955833740234375,-0.036840661141276355,-0.004018240931723266,0.0024795418560504914
1738771801099825700,0.96582568359375,-0.04911036012768745,-0.011067921981215477,0.008468219777639023
1738771801109816800,0.97581689453125,-0.04102992952466011,-0.006859802766889333,-0.0018023732468485831
1738771801119808800,0.985808837890625,-0.05075578924715519,0.004325662913080305,0.007739864403894171
1738771801129800000,0.995800048828125,-0.056440849146246905,-0.009513239885121583,-0.0001886361735872924
1738771801139791600,1.00579150390625,-0.03608896599113941,0.004790978869888931,-0.004786686287261545
1738771801149782800,1.01578271484375,-0.0396796839594841,0.007602766621299087,0.011275084758759475
1738771801159774000,1.02577392578125,-0.03399287049472332,-0.003368544851336628,-0.006324670693592634
1738771801169765600,1.035765625,-0.050153731700778005,-0.009951795699167995,-0.0006691999318776652
1738771801179756500,1.045756591796875,-0.03833236100375652,0.0026316819441504773,0.00038920481356326486
1738771801189748700,1.055748779296875,-0.037135844695568083,0.002664616099372506,-0.015013095393439289
1738771801199739600,1.06573974609375,-0.05060322903394699,-0.007990103704761713,0.004951012286788318
1738771801209731800,1.07573193359375,-0.055692076605558395,0.002382218961417675,-0.0021278195086633783
1738771801219722800,1.08572265625,-0.044620647493004796,0.0005195120957680046,0.001356855685764458
1738771801229714700,1.095714599609375,-0.0441717346817255,-0.003823960468638688,0.0030624289110768583
1738771801239705900,1.105705810546875,-0.04117722904086113,-0.012421857340820132,-0.006241501905187033
1738771801249697800,1.11569775390625,-0.03055237465202808,0.006837152543663978,0.004162190863501746
1738771801259688700,1.125688720703125,-0.03623801907300949,0.004111892298236489,-0.0025930281509063207
1738771801269680600,1.1356806640625,-0.050453591430187225,0.001271225512214005,0.0032121806792682036
1738771801279671600,1.145671630859375,-0.043269232884049415,0.005074892111495137,0.000539333324378822
1738771801289663700,1.155663818359375,-0.04282032007277012,-0.008243767938576637,0.007198889394989237
1738771801299654700,1.165654541015625,-0.051498716568946834,0.007874459702149034,0.010083267458574846
1738771801309646800,1.175646728515625,-0.04865384853184223,-0.0065798715806566176,0.0024614422270678913
1738771801319637800,1.1856376953125,-0.03668108666539192,-0.008471640144009142,0.0047679564706166275
1738771801329629700,1.195629638671875,-0.04266483725011348,-0.002269661965034902,0.0061969366776756935
1738771801339620900,1.205620849609375,-0.040269466546177864,-0.008318257946893573,0.0011688953656121155
1738771801349612800,1.21561279296875,-0.045506782677769655,0.000933938115555793,-0.004601255850913003
1738771801359603700,1.225603759765625,-0.04640343925654888,0.0008953048719093203,-0.001831795704155229
1738771801369595600,1.235595703125,-0.035032150414586065,0.0024473200868815183,-0.002176302859466523
1738771801379586800,1.2455869140625,-0.024556933629512785,-0.014334522561728954,-0.0033733214911539104
1738771801389578800,1.255578857421875,-0.051940615117549896,-0.0013372582194395362,0.0041343735581031065
1738771801399569700,1.265569580078125,-0.031140988194942473,0.007032583784218878,0.0006210225417511537
1738771801409560600,1.275560546875,-0.038622868382930754,-0.0014853614532388745,0.006150903295574244
1738771801419552800,1.285552734375,-0.061519175323843954,0.0017463687432929872,0.0066049329566769295
1738771801429543700,1.295543701171875,-0.05224164389073849,-0.006802994545735418,-0.0035000508600729514
1738771801439535600,1.30553564453125,-0.048050621941685676,-0.0014667480843141673,0.00011229213490150868
1738771801449526800,1.31552685546875,-0.05254033457636833,-0.012655465167295188,-0.011667684822517913
1738771801459518700,1.325518798828125,-0.043562662872672075,0.013261596100591123,-0.004769974897766951
1738771801469510000,1.335510009765625,-0.049099838733673094,-0.0006599800123833119,0.005615956168656702
1738771801479501800,1.345501708984375,-0.04146715189814568,-0.005496606388594955,-0.0016823339136200956
1738771801489492700,1.35549267578125,-0.038324177697300905,0.007475980170164257,-0.0017406719381571746
1738771801499484700,1.365484619140625,-0.05059270763993263,-0.008158628672081976,0.006336087136750575
1738771801509475600,1.3754755859375,-0.04041910414993763,0.004797408610675484,0.005153772883850615
1738771801519467800,1.3854677734375,-0.04790098433792591,-0.01164535654298961,0.005386255049030296
1738771801529458700,1.395458740234375,-0.05643149679601192,-0.009649944942072034,0.0011880087747471407
1738771801539450600,1.40545068359375,-0.052989831909537315,-0.00021225451119244096,0.013048266160453204
1738771801549441800,1.41544189453125,-0.04206804040074348,0.001513272373471409,-0.017135807185433803
1738771801559433700,1.425433837890625,-0.05029810860753059,-0.004183057838305831,-0.005850223865546286
1738771801569424600,1.435424560546875,-0.040272389155626295,-0.00554207123182714,0.004048818733077496
1738771801579416800,1.445416748046875,-0.04610708665847778,-0.007394512431789189,-0.008959989916533231
1738771801589407700,1.45540771484375,-0.03323649916946888,-0.005582129247579723,0.0028215122776920907
1738771801599399700,1.465399658203125,-0.04789981529414653,-0.0029415881435386833,0.007946410693507641
1738771801609390800,1.475390869140625,-0.03862345290482044,-0.004664539478626102,0.004790960603579878
1738771801619382500,1.485382568359375,-0.039222003319859505,-0.010048296609893441,0.009473894255422055
1738771801629373700,1.495373779296875,-0.03622866672277451,-0.018461247102916238,0.005005763264885172
1738771801639364600,1.505364501953125,-0.04296118984818458,-0.0007202405659481883,0.0031577173955389297
1738771801649356800,1.515356689453125,-0.03682780165970325,0.0002769720441661775,-0.002673963883030228
1738771801659347700,1.52534765625,-0.038325346741080284,0.00509799899244681,0.004246295800246298
1738771801669339600,1.535339599609375,-0.04071954840123653,-0.0011551979171112179,-0.0043140455405227835
1738771801679330800,1.545330810546875,-0.04371230047643184,-0.008945066342037171,-0.004969716987258289
1738771801689322800,1.55532275390625,-0.025756372547149655,-0.006980068145692348,0.002537455188902095
1738771801699313700,1.565313720703125,-0.04805120646357536,0.013795465515274554,-0.009519174152275081
1738771801709305900,1.575305908203125,-0.04715454988479614,0.009199388162977993,0.006145471351919695
1738771801719296800,1.585296875,-0.047153965362906454,0.0009418291610665619,0.009121685567556414
1738771801729288700,1.595288818359375,-0.045507951721549034,-0.00009502133969217539,0.003126863316260278
1738771801739280000,1.60527978515625,-0.032039398339390755,0.0065739532965235405,0.000555757019505836
1738771801749271600,1.615271484375,-0.04386018451452255,-0.0006374759196303784,0.008100532676139846
1738771801759262700,1.6252626953125,-0.04266308368444442,-0.00020918577127158642,-0.0033898616340011355
1738771801769254700,1.635254638671875,-0.03158990100622177,0.002363696924038231,0.0034100733049679545
1738771801779245600,1.64524560546875,-0.04685469015538692,-0.005931527207139879,0.00546607881959062
1738771801789237800,1.65523779296875,-0.05179506916701793,-0.0034146307490766047,0.005803583128668834
1738771801799228700,1.665228759765625,-0.05015080909132957,-0.01185233209086582,-0.0032747975867008787
1738771801809220900,1.675220947265625,-0.05060147546827793,0.0036305933210067447,0.0032247456166078336
1738771801819211800,1.685211669921875,-0.05658756414055824,0.00516861654324457,0.005635384671622887
1738771801829203000,1.695202880859375,-0.020526655200123787,-0.0026916502367705106,0.0015950940215843728
1738771801839195000,1.70519482421875,-0.045963878795504565,0.0021861301337368784,-0.0033779337341897186
1738771801849186000,1.71518603515625,-0.03593757482171058,-0.008737889864761381,0.004039678728685248
1738771801859177700,1.725177734375,-0.03369359528720379,0.000260861159581691,-0.003440927384246606
1738771801869168600,1.735168701171875,-0.03923018662631511,-0.011250311077106744,-0.0004625280613894574
1738771801879160800,1.745160888671875,-0.04790916764438152,-0.007793357289955019,-0.0008564455826883204
1738771801889151700,1.75515185546875,-0.039978374645113945,-0.010040332499146461,0.005411177144444081
1738771801899144000,1.76514404296875,-0.04805938977003097,0.006286971314996481,0.004580546423024498
1738771801909134800,1.775134765625,-0.05329845946729183,-0.009322758814319968,0.008787341329944319
1738771801919126800,1.785126708984375,-0.05195289007723331,0.010204053427185862,0.00040631121199112384
1738771801929118000,1.795117919921875,-0.03998305082023144,0.017280878211930393,0.0038515562950400635
1738771801939110000,1.80510986328125,-0.049559857460856435,-0.0023257578001357614,-0.0022473245523520744
1738771801949100800,1.815100830078125,-0.04133154281973839,0.001810574819613248,0.0028843712137197144
1738771801959092700,1.8250927734375,-0.05465104312002658,0.00790501923719421,-0.0019054157795035278
1738771801969084000,1.835083984375,-0.04447743963003158,0.006770699711330235,-0.006200987231708132
1738771801979075800,1.845075927734375,-0.03938917658030987,-0.015841419993340967,0.0010618182619451545
1738771801989066800,1.855066650390625,-0.04268120386302471,0.0017060184665955603,0.010079684978711884
1738771801999057700,1.8650576171875,-0.04522445860505104,0.013632621370069683,-0.002293953872786369
1738771802009049900,1.8750498046875,-0.047317631492018696,0.004239281537570059,0.009716635236423462
1738771802019040800,1.885040771484375,-0.03908756328523159,0.0036629064217209815,0.0019122702119755558
1738771802029033000,1.895032958984375,-0.051207624667882916,0.005889478163700551,-0.002494769107934553
1738771802039023900,1.90502392578125,-0.04881459205150604,-0.003325838220771402,-0.006092275293380953
1738771802049015800,1.915015869140625,-0.04552607190012931,-0.00031785204382613297,0.00502620326471515
1738771802059007000,1.925007080078125,-0.0401414562523365,-0.004692377333622426,-0.00315134930354543
1738771802068999000,1.9349990234375,-0.038946108987927434,0.00334277108926326,0.015102422211284282
1738771802078989800,1.94498974609375,-0.03969429700672626,-0.0030937282316386696,-0.0047412351437611504
1738771802088981800,1.954981689453125,-0.03939560632109642,0.00039025969291105867,0.000735168707021512
1738771802098972700,1.96497265625,-0.02802314843535423,-0.004241053369548171,0.008314668617164716
1738771802108964900,1.97496484375,-0.0438841499119997,-0.01189533098237589,-0.0016138375379610805
1738771802118955800,1.984955810546875,-0.03610357903838157,-0.010238558484986424,-0.005627877218602225
1738771802128947700,1.99494775390625,-0.042538580521941184,0.0113408206384629,0.005618549984542187
1738771802138939000,2.00493896484375,-0.06289046367704867,-0.005187686569895595,0.008194133810303173
1738771802148930800,2.014930908203125,-0.058252282482385634,-0.002749791898485273,0.00954761022889288
1738771802158922000,2.024921875,-0.05017302092313766,-0.005524754770845175,0.013770009130320976
1738771802168914000,2.034913818359375,-0.04837912324368954,0.0030635705553926527,-0.0027677111476659775
1738771802178904800,2.04490478515625,-0.03551087384223938,0.0028106552402488885,0.0007676873037125915
1738771802188896800,2.054896728515625,-0.031171383333206175,-0.007381525086052715,0.017000889943481888
1738771802198888000,2.064887939453125,-0.028777181673049924,0.0002484218031167984,-0.001475417731248308
1738771802208878800,2.07487890625,-0.04149754703640938,0.0010308774176985024,0.011412193957797717
1738771802218870800,2.084870849609375,-0.039403205105662344,-0.0035606698899529874,0.0006268723272252828
1738771802228861700,2.09486181640625,-0.04568739994168281,-0.0022629216969944537,0.007245701378514059
1738771802238854000,2.10485400390625,-0.05062602538764476,-0.003260828426852822,-0.005903760134091135
1738771802248844800,2.1148447265625,-0.051821957173943514,-0.002720547537691891,0.001415593285812065
1738771802258836700,2.124836669921875,-0.03551145836412906,0.00044094870053231714,-0.004979950686905067
1738771802268828000,2.134827880859375,-0.041946459847688675,0.006037617930117994,0.0015868193835834972
1738771802278819800,2.14481982421875,-0.048830958664417265,0.0005397694325074554,-0.00017578125859145073
1738771802288811000,2.15481103515625,-0.045239656174182886,0.00683311568936333,0.0016429860006319358
1738771802298803000,2.164802978515625,-0.04703764550685882,0.009058956778980791,0.00028769665086874734
1738771802308793900,2.1747939453125,-0.03342237713038921,-0.006133662183117121,0.010029993768222629
1738771802318785800,2.184785888671875,-0.043747956311702724,-0.001743153872899711,0.00839733964864863
1738771802328777000,2.19477685546875,-0.038810499909520145,0.010994509685132652,0.004017156369623263
1738771802338769000,2.204768798828125,-0.04150573034286499,0.012145634215325116,-0.0010364212424959986
1738771802348759800,2.214759765625,-0.048240591555833816,-0.0020265921904705463,-0.008920530122402124
1738771802358751700,2.224751708984375,-0.03447334748804569,-0.0038469394854269917,0.0024324239118490368
1738771802368743000,2.234742919921875,-0.03896130655705929,0.006567048631701618,-0.000912468352552969
1738771802378734800,2.24473486328125,-0.04524667043685913,-0.009423241780418902,0.0030243642062996513
1738771802388725800,2.254725830078125,-0.05527122084498405,0.0008510090724565088,0.009590179862140212
1738771802398717000,2.264717041015625,-0.045395723518729204,-0.013639343371801078,0.0023276186803705056
1738771802408708900,2.274708984375,-0.05527005180120468,-0.006090188367571681,0.00473078224840574
1738771802418699800,2.28469970703125,-0.0392570746332407,-0.005439231911860406,0.014030680776946245
1738771802428692000,2.29469189453125,-0.03506605268418789,0.004198565934691578,-0.0015169918506522662
1738771802438683000,2.304682861328125,-0.03356967664659023,-0.0017723799673840402,0.010851265289541332
1738771802448674800,2.3146748046875,-0.052124739512801166,-0.005339552663359791,0.004784585661720484
1738771802458665700,2.324665771484375,-0.05257423684597015,-0.004741276242956519,-0.001440444599278271
1738771802468658000,2.334657958984375,-0.058708209556341165,-0.010914411919936537,0.004962997268815525
1738771802478648800,2.34464892578125,-0.058408934348821634,0.00014779270654544232,0.001766043841431383
1738771802488640800,2.354640869140625,-0.06798398742377758,-0.0041206601265817875,0.009545299540797714
1738771802498632000,2.3646318359375,-0.04090075018703937,0.0010115699290297925,0.014942386511096264
1738771802508624000,2.374623779296875,-0.04089958114326,-0.0006807305394671857,-0.012974095812544691
1738771802518614800,2.38461474609375,-0.03760755386054516,-0.016238145959656683,0.00628858103348175
1738771802528607000,2.39460693359375,-0.029827567508816717,0.005374843172449619,0.009269005633355119
1738771802538598000,2.404597900390625,-0.04673837029933929,0.0051982810291461646,-0.0012938346362439915
1738771802548589800,2.41458984375,-0.03641396016180515,0.001369315591827035,-0.01233267665344756
1738771802558581000,2.4245810546875,-0.06080430505275726,-0.00539544756906107,0.01713179088073084
1738771802568572700,2.43457275390625,-0.054069443839788435,-0.010132705224025994,0.006637020011816639
1738771802578563800,2.444563720703125,-0.04224865766465664,-0.008742346844170242,0.003954238068091217
1738771802588554800,2.4545546875,-0.032224691778421403,-0.0020774455948732794,0.0048969554284354665
1738771802598546700,2.464546630859375,-0.02534311557114124,0.004611220122501254,0.009239242966042366
1738771802608537900,2.474537841796875,-0.031029929035902022,-0.011532050627935678,0.005340137185249477
1738771802618529800,2.48452978515625,-0.041653614380955696,-0.004358670133538544,0.005435434802866075
1738771802628521000,2.49452099609375,-0.04704115263819694,-0.00075123849241063,0.0018192239169497041
1738771802638513000,2.504512939453125,-0.05377426028549671,-0.0009197086608037352,0.0009790102331433445
1738771802648503800,2.51450390625,-0.047938393738865846,0.011942074467241763,0.01061787209219765
1738771802658496000,2.52449609375,-0.052128831166028976,-0.00762938063358888,-0.0008179607528029009
1738771802668487000,2.53448681640625,-0.04524550139307976,0.0030043329151347277,-0.0018643736663507297
1738771802678478800,2.544478759765625,-0.044048985084891315,-0.017200268990080803,-0.000876725752314087
1738771802688469800,2.5544697265625,-0.03895955299139023,-0.005456383976060897,0.0035699126423336565
1738771802698461700,2.564461669921875,-0.05137947410345077,-0.0032197840304113924,-0.005761506685765925
1738771802708452900,2.574452880859375,-0.04225158027410507,-0.005131207142304629,-0.006872310622013174
1738771802718444800,2.58444482421875,-0.041354339173436165,-0.006326298678386956,-0.004454456374922301
1738771802728435700,2.594435791015625,-0.04539396995306015,-0.010677662288304418,-0.006569521433289628
1738771802738428000,2.604427978515625,-0.03701601770818233,0.0021272030207328497,0.005731938097986858
1738771802748418800,2.614418701171875,-0.03836334066390991,-0.004848389879241586,-0.00015040707202861086
1738771802758411000,2.624410888671875,-0.04404840056300163,-0.0070246927387081085,-0.0022775781267206185
1738771802768402000,2.63440185546875,-0.063203182888031,-0.005756207172852009,0.01939827222470194
1738771802778393900,2.644393798828125,-0.04090717992782592,-0.004412683609407395,-0.01424225030154921
1738771802788385000,2.654385009765625,-0.05183189404606819,0.0035818405421450734,-0.007570058511651587
1738771802798376700,2.664376708984375,-0.044648704543709755,0.005210318526811897,0.00472674311081646
1738771802808367900,2.674367919921875,-0.015319734206795691,0.0011760215094313024,0.0006294433102244511
1738771802818358800,2.68435888671875,-0.042999768292903896,-0.004209909312613308,0.006998062743397895
1738771802828350700,2.694350830078125,-0.0392570746332407,0.0075433097853325306,0.0007620818301220424
1738771802838341000,2.704341064453125,-0.031028175470232962,-0.013056666379328816,0.0012914052171399816
1738771802848333300,2.714333251953125,-0.05362286911606788,-0.0030468203499913215,0.007799341789458412
1738771802858324200,2.72432421875,-0.060956280744075775,-0.00014952800590544937,0.009578802234889008
1738771802868316400,2.73431640625,-0.05302607226669788,-0.0005834624437615275,0.016623861908190884
1738771802878307300,2.744307373046875,-0.05452303282618522,-0.0005485737934708594,0.010314315718493889
1738771802888299500,2.754299560546875,-0.04180266746282577,0.012139021811448037,0.005342164745554327
1738771802898290400,2.76429052734375,-0.027885785791277883,0.008969287467841059,0.0009145118958782404
1738771802908282400,2.774282470703125,-0.042998599249124525,-0.003487348925415426,0.0028612688993453045
1738771802918273500,2.7842734375,-0.029531799432635307,0.006111797411181032,-0.00029245274108834565
1738771802928265200,2.79426513671875,-0.04150280773341655,-0.000154642572440207,0.0032263713181135243
1738771802938256400,2.80425634765625,-0.0455441920787096,-0.005311842672526836,0.0004930670468369498
1738771802948248300,2.814248291015625,-0.049286301216483114,-0.011969747925456613,0.00043183381231501697
1738771802958239200,2.8242392578125,-0.048538113197684286,-0.0076256543065421276,0.0014717781691695562
1738771802968231400,2.8342314453125,-0.03806289641261101,0.004462568899430334,0.007322666471707634
1738771802978222300,2.844222412109375,-0.04150397677719593,-0.008439838499948381,-0.00223502675978234
1738771802988213200,2.854213134765625,-0.045543607556819916,-0.0017548991096206009,-0.0020000375436851755
1738771802998205400,2.864205322265625,-0.06185410636663437,0.004371620946656912,-0.0002964028304209932
1738771803008196400,2.8741962890625,-0.04733867428004741,-0.004494443608727306,0.007882149818260221
1738771803018188300,2.884188232421875,-0.03342354617416859,-0.009516034630406647,0.007440296935429796
1738771803028179500,2.894179443359375,-0.0441980381667614,-0.0016991138017736374,0.007705893635633401
1738771803038171400,2.90417138671875,-0.037164486268162725,0.010674283021129667,-0.0008181982148205861
1738771803048162600,2.91416259765625,-0.03566577214300632,0.0026355909342877567,0.007324127776431851
1738771803058154200,2.924154296875,-0.0365641822874546,0.00580042990706861,-0.0012309117681346834
1738771803068145200,2.934145263671875,-0.044047231519222255,-0.0042999074173159894,0.0056321218521683475
1738771803078137300,2.944137451171875,-0.05197919356226921,0.0066767012849450105,0.014178299953555688
1738771803088128300,2.954128173828125,-0.058712885731458664,-0.006925798941496759,0.0006945490022655576
1738771803098120400,2.964120361328125,-0.04734101236760616,-0.0015178206844255328,-0.0027563380869920365
1738771803108111400,2.974111328125,-0.046591070783138275,-0.0022135661299340424,-0.000700796079961583
1738771803118103300,2.984103271484375,-0.041352001085877416,-0.0059074704781174655,0.008767988175502978
1738771803128094500,2.994094482421875,-0.028631635722517965,0.00555894930139184,-0.00876208130781306
1738771803138086400,3.00408642578125,-0.025039748710393904,0.00941924145873636,-0.0025304774588439613
1738771803148077300,3.014077392578125,-0.04104980326890945,0.01550880877180025,0.0021550614253268577
1738771803158068500,3.024068359375,-0.048829205098748205,0.002264145539700985,0.00862167047341354
1738771803168060400,3.034060302734375,-0.045238487130403515,-0.00742658807048574,0.0026288141336292025
1738771803178051300,3.04405126953125,-0.062146951833367346,-0.010278506902884692,0.005121948406903539
1738771803188043300,3.054043212890625,-0.06573825432360172,-0.0049001200664788485,-0.004443795700301416
1738771803198034200,3.0640341796875,-0.024738135415315627,-0.004577628380153328,-0.010699221099563873
1738771803208026400,3.0740263671875,-0.02728080563545227,-0.00043526787841692566,-0.004010847643134184
1738771803218017300,3.084017333984375,-0.030123335584998127,0.011076561945397407,0.009206774601701181
1738771803228009500,3.094009521484375,-0.034763270345330236,-0.00008818974010646343,-0.005810775487858336
1738771803238000400,3.10400048828125,-0.052419338545203205,-0.005060315596871078,0.01250786654028343
1738771803247992300,3.113992431640625,-0.04239361909329891,-0.0035564138399437066,-0.00836411551577039
1738771803257983500,3.1239833984375,-0.04463818314969539,0.0031963483558967707,-0.002847500668896828
1738771803267975400,3.133975341796875,-0.0343120194464922,-0.007806417700927704,0.007077765499660745
1738771803277966300,3.14396630859375,-0.036406361377239224,-0.004095087293907999,0.005077456244628411
1738771803287958300,3.153958251953125,-0.03969605057239532,0.00446260543204844,0.008487356019660365
1738771803297949400,3.163949462890625,-0.05406067601144313,0.015985267177131026,-0.00447632114685839
1738771803307941400,3.17394140625,-0.05061901112496853,0.005659724528435617,-0.00651891919063637
1738771803317932300,3.183932373046875,-0.04987199214994907,-0.002056530671007931,-0.001590063936728984
1738771803327923200,3.193923095703125,-0.03909750015735626,0.0011944704815745352,-0.0014458377270260825
1738771803337915400,3.203915283203125,-0.035056115812063214,0.0020429770696908235,-0.005653767428395804
1738771803347906300,3.21390625,-0.02727554493844509,-0.000007635317184031009,0.013291479782201349
1738771803357898200,3.223898193359375,-0.03191431065499782,0.0058274640444666145,-0.0042787664478761145
1738771803367889400,3.233889404296875,-0.04493336670398712,-0.0032476949506439266,0.0006024776714853942
1738771803377881300,3.24388134765625,-0.04463409149646759,-0.013426011148374526,-0.005523240950482431
1738771803387872500,3.25387255859375,-0.048076340904831885,-0.005171155560202896,-0.009681584472639952
1738771803397864400,3.263864501953125,-0.05810322940051555,-0.002719908216875046,0.0027606466526398435
1738771803407855400,3.27385546875,-0.03984685721993446,-0.0002043817319907248,-0.00012095949854701757
1738771803417847300,3.283847412109375,-0.05211714072823524,0.0033967480325140056,0.0038821409462601875
1738771803427838200,3.293838134765625,-0.051667058873176575,-0.002801960477139801,-0.002969914622302167
1738771803437830400,3.303830322265625,-0.0410433735281229,-0.0029297698415815827,0.01637557710239198
1738771803447821300,3.3138212890625,-0.044485622936487196,0.0029188100561499592,0.010416095592535566
1738771803457813200,3.323813232421875,-0.033412440258264536,0.006517053743824362,-0.004198127543274313
1738771803467804400,3.333804443359375,-0.03416004375517368,-0.0044368499362841245,-0.00031801415731897575
1738771803477795300,3.34379541015625,-0.041193011131882666,0.0007902005296200514,0.0028055498068686575
1738771803487787300,3.353787353515625,-0.04702887767851353,0.007236435793247073,-0.003539501521049533
1738771803497778400,3.3637783203125,-0.046129298490285874,0.002080313405394554,0.005437304816255346
1738771803507770400,3.373770263671875,-0.048072833773493764,-0.012844448400754481,0.0005148496203823015
1738771803517761500,3.383761474609375,-0.04732464575469494,-0.0034278555568307634,0.0004626787584391422
1738771803527753500,3.39375341796875,-0.05600070416331291,0.01095675322432071,0.007928909286146518
1738771803537744400,3.403744384765625,-0.049116789868474,0.008820800641551614,0.0038875477737397883
1738771803547736300,3.413736328125,-0.040886721661686894,-0.0010655286059714853,-0.009688158060610293
1738771803557727200,3.423727294921875,-0.04268354195058346,-0.011475662531889974,-0.01191113133970648
1738771803567719400,3.433719482421875,-0.03804536075592041,-0.0039751141760498284,-0.005210208928957581
1738771803577710300,3.44371044921875,-0.048370355415344235,0.00485584253333509,-0.002230859758029692
1738771803587702300,3.453702392578125,-0.05106266323924064,-0.008198376160580664,0.0072172881347825745
1738771803597693400,3.463693359375,-0.050313890698552126,-0.013026600034628062,0.0014190090856049209
1738771803607685400,3.473685302734375,-0.05510287854075432,0.0004743212471716106,-0.0011783550304127856
1738771803617676300,3.48367626953125,-0.035649405530095095,-0.01033094947617501,-0.0006005848252098075
1738771803627667500,3.49366748046875,-0.029215573090314865,0.008233502272889017,-0.004775906881631818
1738771803637659400,3.503659423828125,-0.041785131806135176,0.0016608093516901135,0.004240601278399117
1738771803647650300,3.513650390625,-0.04612403779327869,-0.006761639622040093,-0.003495450033480301
1738771803657642200,3.523642333984375,-0.040137364599108695,0.0009542685175314545,-0.003975166691688355
1738771803667633400,3.53363330078125,-0.041184243303537364,-0.003999791959580033,0.008031563659734092
1738771803677625300,3.543625244140625,-0.04297989454865456,-0.0026503135793842373,-0.003241500388586428
1738771803687616300,3.5536162109375,-0.03968552917838097,0.0027587606562301517,0.011393347693432587
1738771803697608400,3.5636083984375,-0.0443242948949337,-0.0032515491418540475,-0.0048346010991954244
1738771803707599400,3.573599365234375,-0.0486637854039669,-0.003410447764303535,-0.012588240583403966
1738771803717591300,3.58359130859375,-0.04118132069408893,-0.016885759680811314,0.00046397566638188434
1738771803727582500,3.59358251953125,-0.033249358651041984,-0.01186259775655344,0.0007432561153545975
1738771803737574400,3.603574462890625,-0.03474456564486027,0.004677216297108679,0.0044050368757802055
1738771803747565300,3.6135654296875,-0.03055295917391777,0.001153955808095634,-0.0024729294521734116
1738771803757556500,3.623556396484375,-0.0404290410220623,0.008180584775563328,-0.007512839298543986
1738771803767548400,3.63354833984375,-0.04267418960034847,-0.003456460596807301,0.0009991579720284788
1738771803777539300,3.643539306640625,-0.042077392750978465,0.006643200874142348,-0.00273085430257488
1738771803787531300,3.65353125,-0.048662616360187524,-0.004062975122593343,0.0024118195152375847
1738771803797522400,3.6635224609375,-0.043724575436115264,-0.001207403028383851,0.0011456606204970738
1738771803807514400,3.673514404296875,-0.048662616360187524,0.0027023360275663434,-0.003120287445001304
1738771803817505300,3.68350537109375,-0.04492167626619339,0.004931008395086973,0.0005135093299555592
1738771803827497200,3.693497314453125,-0.04222761487662792,-0.0013958930714987217,0.005227573339000809
1738771803837488600,3.703488525390625,-0.04327390905916691,-0.0019057240234687924,0.009466249805083498
1738771803847480600,3.71348046875,-0.040429625543951984,-0.003170903387386352,-0.0007490899178083055
1738771803857471700,3.7234716796875,-0.033546880292892454,0.001777987724263221,0.006167865846818312
1738771803867463700,3.733463623046875,-0.036837154009938235,0.0012332498556934296,-0.006395361309626605
1738771803877454600,3.74345458984375,-0.047911505731940265,-0.005428947979863733,-0.0001457834125496447
1738771803887445800,3.75344580078125,-0.03953238444328308,-0.007026848163176328,0.0003407762616872787
1738771803897437700,3.763437744140625,-0.03309913652539253,-0.007582838078122585,0.0039217856867704536
1738771803907428600,3.7734287109375,-0.051953474599123,-0.010706961448024958,0.0038645139580243265
1738771803918669800,3.784669921875,-0.052552609536051745,-0.0016799159109592437,0.004463253886019811
1738771803928660700,3.79466064453125,-0.04267594316601753,-0.007826090515777468,0.002931628438527696
1738771803938652400,3.80465234375,-0.03863514334261417,-0.010568685488495976,-0.0075279615191509944
1738771803948643600,3.8146435546875,-0.048810500398278237,0.002895849305670708,-0.00029876146757742386
1738771803958635500,3.824635498046875,-0.047613984090089795,0.0029340624242089686,0.007055859628529287
1738771803968626400,3.83462646484375,-0.045370589077472684,-0.0001552453606389463,0.015876123697252477
1738771803978618600,3.84461865234375,-0.04686754963696003,-0.004180244826711714,0.00005966004865476861
1738771803988609500,3.854609619140625,-0.04851414780020714,0.002276676227711141,-0.000013083243859000503
1738771803998601700,3.864601806640625,-0.030706688430905342,-0.0007599515218287705,0.0028840698196203446
1738771804008592600,3.874592529296875,-0.037889877933263774,-0.002045443021412939,-0.010612433298677205
1738771804018583600,3.88458349609375,-0.04223112200796604,-0.008259422165434807,-0.010268065423972439
1738771804028575700,3.89457568359375,-0.04282850337922573,-0.010864417032059282,0.007694454359589144
1738771804038566700,3.904566650390625,-0.04776654430329799,-0.0008399579554796219,-0.0016905628858483396
1738771804048558600,3.91455859375,-0.03474924181997776,-0.0007728658023290336,-0.007468545782379806
1738771804058549800,3.9245498046875,-0.0331049817442894,-0.00024979177629575134,-0.007344044903165195
1738771804068541400,3.93454150390625,-0.038194413837790486,0.003004826105479151,0.003337642822996713
1738771804078532600,3.94453271484375,-0.05091419467926025,-0.0007098653024062514,0.0070599969475297255
1738771804088524500,3.954524658203125,-0.03220890968739986,-0.005375719955284148,0.0013217387066106312
1738771804098515500,3.964515380859375,-0.032359131813049315,0.007209237259067595,0.001855372942565009
1738771804108507600,3.974507568359375,-0.045078328132629394,-0.006281418357044458,0.007480843574949539
1738771804118498600,3.98449853515625,-0.04193476940989494,-0.000054689329303801056,0.004887482063903007
1738771804128489500,3.994489501953125,-0.041785131806135176,0.003376107103284448,0.0014557175169349647
1738771804138481700,4.004481689453125,-0.045377018818259236,0.001609371425397694,-0.0021424576720804906
1738771804148472600,4.01447265625,-0.028767244800925254,-0.00617901742849499,0.005703170944517478
1738771804158464800,4.02446484375,-0.048369770893454546,0.0074562160237692295,-0.0001813501995638944
1738771804168455700,4.03445556640625,-0.0597439823448658,-0.003399086120072752,0.0014204292911337687
1738771804178447400,4.044447265625,-0.05405833792388439,0.003204330732952803,0.003969574917829595
1738771804188438500,4.0544384765625,-0.047027124112844466,-0.0008846921463496983,0.003184374790312722
1738771804198430500,4.064430419921875,-0.052713353055715555,-0.01031239090617746,0.004664836306148209
1738771804208421600,4.074421630859375,-0.051368368187546726,0.001928100252058357,0.012893080165318678
1738771804218413600,4.08441357421875,-0.03715396487414837,0.0030445005287416276,0.0033154675238067284
1738771804228404500,4.094404541015625,-0.03910276085436344,-0.004594104590918868,0.0063546457067481235
1738771804238396700,4.104396728515625,-0.04538870925605297,-0.0075193443878553805,0.012955069168377667
1738771804248387600,4.1143876953125,-0.0464373415261507,-0.0037210115508176382,0.009935682531294877
1738771804258378500,4.12437841796875,-0.05317161821722984,-0.0030754253899678585,0.01150604853699915
1738771804268370700,4.13437060546875,-0.04554068494737148,0.002178147756680846,0.008379093889193608
1738771804278361600,4.144361572265625,-0.046887423381209374,0.010425002701487392,0.008968970090721267
1738771804288353800,4.154353759765625,-0.04509177213609218,-0.0017010134979151188,0.0065845683053717945
1738771804298344700,4.1643447265625,-0.042995092117786404,-0.012263415376096962,-0.000046391858416609466
1738771804308336400,4.17433642578125,-0.0425467638283968,-0.012392302452772855,0.004286257917876355
1738771804318327600,4.18432763671875,-0.05062719443142414,-0.01029396020034328,-0.004004059426032472
1738771804328319500,4.194319580078125,-0.05945581305325031,-0.006693853349145501,-0.0005621388112311251
1738771804338310700,4.204310546875,-0.041648938205838204,0.013492774507962166,0.007526566429797094
1738771804348302600,4.214302490234375,-0.056464814543724054,0.007755326834507286,-0.0023553789035533554
1738771804358293500,4.22429345703125,-0.05212590855658054,-0.004793919745646417,0.007934487360273487
1738771804368284700,4.23428466796875,-0.044943303576111794,0.0058254912830889224,-0.00464137551545864
1738771804378276600,4.244276611328125,-0.05092822320461273,-0.004806304303184151,0.01252510536945192
1738771804388267500,4.254267578125,-0.04554243851304054,0.004668740729708225,0.017058812409488016
1738771804398259700,4.264259765625,-0.04539396995306015,-0.005146349912509322,0.000896875774487853
1738771804408250600,4.274250732421875,-0.03985679409205913,0.0002231046987697482,-0.00544832396719139
1738771804418242800,4.284242919921875,-0.05033142635524273,-0.0008190064989961683,-0.011914229762379545
1738771804428233700,4.294233642578125,-0.051228082934021944,0.003007218991965055,0.0008053478664020076
1738771804438225400,4.304225341796875,-0.04150280773341655,0.007560224387515336,0.006496351165801752
1738771804448216600,4.314216552734375,-0.035517888104915615,-0.0028811083942651746,-0.00160575697949389
1738771804458208500,4.32420849609375,-0.052127077600359915,0.007721625494305044,0.004551795252575539
1738771804468199400,4.334199462890625,-0.04808686229884624,0.0006898088950663805,0.007053889150440227
1738771804478191600,4.344191650390625,-0.03506897529363632,0.00969738254668191,-0.003003262052766513
1738771804488182500,4.3541826171875,-0.0543716416567564,-0.006939790934231132,-0.009318098622222897
1738771804498173700,4.364173583984375,-0.049883682587742804,0.005382332359161228,0.013424328364653047
1738771804508165600,4.37416552734375,-0.05332417843043804,-0.002760587287135422,0.01593814694964094
1738771804518156500,4.384156494140625,-0.042998599249124525,0.006627546647284179,0.00010663871224969625
1738771804528148700,4.394148681640625,-0.03536708145737648,-0.0030931619760580357,-0.0024453039430198257
1738771804538139600,4.4041396484375,-0.0344686713129282,0.002998688625637442,0.008905206972395534
1738771804548131600,4.414131591796875,-0.04000467813014984,-0.004942680566571653,0.005720103813009336
1738771804558122800,4.424122802734375,-0.043595980620384216,0.008367138589918614,0.006667143438733182
1738771804568114400,4.434114501953125,-0.03656301324367523,0.0011899404369294642,-0.008646581152384168
1738771804578105600,4.444105712890625,-0.0465899017393589,0.0006511025861836969,0.008491052663954906
1738771804588097500,4.45409765625,-0.0362637380361557,0.004808258798252791,-0.005318245013849809
1738771804598088400,4.46408837890625,-0.04404313986599445,-0.01278164883023128,0.00804725898578763
1738771804608080600,4.47408056640625,-0.049580315726995464,0.0005563917737454176,-0.006145302388560958
1738771804618071600,4.484071533203125,-0.03132218998074531,-0.004213379911333322,-0.004371264753630384
1738771804628062500,4.4940625,-0.04314239163398743,0.0021719372116029262,0.002963519130845088
1738771804638054700,4.5040546875,-0.040298108118772505,-0.0010057247101329266,-0.012834753557224757
1738771804648045600,4.514045654296875,-0.04822890111804008,-0.009983798272628337,0.002409698340098839
1738771804658037800,4.524037841796875,-0.031169629767537115,-0.015097104432061314,-0.006436204776668455
1738771804668028700,4.534028564453125,-0.04538461760282516,0.0006993439083918929,-0.004734410394041333
1738771804678020600,4.5440205078125,-0.04867664488554001,-0.000488514169305563,0.001038581233541481
1738771804688011500,4.554011474609375,-0.04987316119372844,-0.0036387400948442515,-0.005718144751363434
1738771804698003500,4.56400341796875,-0.05286649779081344,0.006125643273442984,0.008413028124836273
1738771804707994600,4.57399462890625,-0.04703063124418259,0.0049240671976469455,0.0029978780581732278
1738771804717986600,4.583986572265625,-0.04209317484200001,0.0018113602709025143,0.0024461556096794083
1738771804727977500,4.5939775390625,-0.04972527715563774,-0.006820164876244962,-0.004431838117737789
1738771804737969700,4.6039697265625,-0.0467336941242218,-0.013377130505349485,0.0016225208846270107
1738771804747960600,4.613960693359375,-0.03880114755928516,0.004948982443194836,0.006573366491345223
1738771804757951500,4.623951416015625,-0.04822714755237102,0.012668087186850606,-0.0013346803865744732
1738771804767943700,4.633943603515625,-0.03535831362903118,-0.01070109796281904,-0.0012177234929986297
1738771804777934600,4.6439345703125,-0.05062134921252727,-0.0035229682280682024,0.008829390373383648
1738771804787926800,4.6539267578125,-0.05421323622465133,-0.00020081980172544716,0.0024871863063890484
1738771804797917700,4.663917724609375,-0.035358898150920866,0.004453070418722927,0.003319956469256431
1738771804807909400,4.673909423828125,-0.047779988306760786,0.003306275003775954,0.004546648719999939
1738771804817900500,4.683900634765625,-0.023536942932009697,0.014745130922924727,-0.0028711167232133446
1738771804827892500,4.693892578125,-0.0319154796987772,-0.00987304964084178,0.013428821876680012
1738771804837883100,4.703883056640625,-0.0350567003339529,0.008918470596056431,0.006361214728141203
1738771804847875000,4.713875,-0.04268704908192158,0.006193192084319889,0.009405907053127884
1738771804857866200,4.7238662109375,-0.053310734426975245,-0.004154489330947399,0.004699608508718665
1738771804867857200,4.733857177734375,-0.03774842363595962,0.004519906843546777,-0.006561854150064755
1738771804877849300,4.743849365234375,-0.05630290198028087,-0.010000347548630087,0.0010112205858691596
1738771804887840300,4.75384033203125,-0.037897476717829705,-0.003724683078937232,0.004066482253931462
1738771804897832200,4.763832275390625,-0.048372693502902984,0.0008088686974719166,0.002289917018485721
1738771804907823400,4.7738232421875,-0.03490530916452408,-0.00876441254550591,0.0159649322085781
1738771804917815300,4.783815185546875,-0.023981764090061187,-0.005308719133678823,-0.00913990849412512
1738771804927806200,4.79380615234375,-0.033410102170705794,-0.01244878188036382,0.0024204457796877248
1738771804937798100,4.803798095703125,-0.05091770181059837,-0.0043709085606038565,-0.008811233662185258
1738771804947789300,4.813789306640625,-0.05061901112496853,0.008677337050251662,0.003382536844071001
1738771804957781200,4.82378125,-0.04239011196196079,-0.003537088084965944,0.016133116965892258
1738771804967772200,4.833772216796875,-0.04358662827014923,0.0032998087303712964,0.01047935867065098
1738771804977763000,4.84376318359375,-0.03415887471139431,-0.0024180757260881362,-0.012991083479963708
1738771804987755300,4.85375537109375,-0.030418519139289855,-0.00628514468409121,0.002580209768528584
1738771804997746200,4.86374609375,-0.03595394143462181,0.006241853531636297,-0.0008592654441483318
1738771805007738000,4.873738037109375,-0.043135961893200875,0.005302143262419849,0.009136880853399634
1738771805017729300,4.883729248046875,-0.04642915821969509,-0.004046188384573907,0.002174871237494517
1738771805027721200,4.89372119140625,-0.048373862546682356,0.0026471717742271718,0.004744650943554006
1738771805037712400,4.90371240234375,-0.041938861063122744,0.0017404321928508578,0.005180322964058723
1738771805047704300,4.913704345703125,-0.039544659402966496,-0.011279993829317391,-0.0021362083110958337
1738771805057695200,4.9236953125,-0.043137130936980246,-0.008259367366507649,-0.002522161721647717
1738771805067687200,4.933687255859375,-0.04194003010690212,0.00013959113378077744,0.0022443745434400624
1738771805077678000,4.943677978515625,-0.03774959267973899,-0.005880472873337567,-0.002323917469498701
1738771805087669200,4.953669189453125,-0.046129298490285874,0.005640490105003118,0.0029015940598677843
1738771805097661200,4.9636611328125,-0.0325122765481472,-0.009728380473144352,-0.002277534744236618
1738771805107652000,4.973652099609375,-0.037001989182829854,0.010189623043034226,0.003954089654330164
1738771805117644300,4.983644287109375,-0.05121814606189728,-0.002489423929248005,0.000001854030368849635
1738771805127635200,4.99363525390625,-0.0507680642068386,-0.007017806340195238,-0.00852081989784492
1738771805137627100,5.003627197265625,-0.04074117571115494,-0.014420922203548252,0.016187509467673954
1738771805147618300,5.013618408203125,-0.04732523027658462,0.0002316533314064145,0.0037744268050650133
1738771805157610200,5.0236103515625,-0.037899230283498765,-0.0011866890339180826,0.009306695878796744
1738771805167601200,5.03360107421875,-0.04702653959095478,-0.006016849136725067,0.0060220299186301415
1738771805177593300,5.04359326171875,-0.030269466057419776,-0.0041136093312874435,0.00011875840830616652
1738771805187584300,5.053584228515625,-0.04044540763497352,0.002794562621973455,0.013708086342632304
1738771805197575400,5.063575439453125,-0.04718026884794235,0.0015205240981653332,-0.008601360621035564
1738771805207567000,5.073567138671875,-0.04822714755237102,-0.008228552103135734,0.008709755182242951
1738771805217558300,5.083558349609375,-0.04164192394316196,-0.008436733227409421,0.008108834713604301
1738771805227550200,5.09355029296875,-0.04687924007475376,-0.00845278931306675,0.0006424512055586091
1738771805237541000,5.103541015625,-0.03595569500029087,0.0003743314714170992,0.002312679122854024
1738771805247533300,5.113533203125,-0.025479893693327902,-0.004758848432265221,0.012488613850541877
1738771805257524200,5.123524169921875,-0.04134264873564243,-0.005602203921228647,-0.014597616777592338
1738771805267516200,5.13351611328125,-0.042240474358201024,0.0060851651325821874,0.007964519455644766
1738771805277507300,5.14350732421875,-0.03416121279895305,-0.011229542283713817,0.0021591644949978217
1738771805287499300,5.153499267578125,-0.04373918848335743,0.004695683535560965,0.0061318926344276405
1738771805297490200,5.163490234375,-0.05122340675890445,0.0016526077789254486,0.00303783332593739
1738771805307481300,5.1734814453125,-0.04463818314969539,0.009232614579144864,-0.001984070506284479
1738771805317473300,5.183473388671875,-0.04179448415637016,0.0003627871640957892,-0.0052508080841158515
1738771805327464400,5.19346435546875,-0.054962593287229536,0.001262768211122602,-0.0028959748865454455
1738771805337456000,5.2034560546875,-0.042993338552117344,0.004758062980975955,-0.0008735474145389161
1738771805347447000,5.213447021484375,-0.03775543789863586,-0.0033063663353212177,0.0079791302195983
1738771805357439200,5.223439208984375,-0.04987666832506656,0.009144698833674192,-0.015416429197054821
1738771805367430100,5.23343017578125,-0.04119827182888985,-0.0003763407654128969,-0.0047220144200604405
1738771805377422300,5.24342236328125,-0.031472996628284455,-0.013165095189865677,0.006102495293295942
1738771805387413200,5.253413330078125,-0.037159225571155544,-0.00899515256145969,0.0012558133139507844
1738771805397405200,5.2634052734375,-0.053469724380969995,0.0016483334626071155,0.004233596148877404
1738771805407396400,5.273396240234375,-0.0340156668484211,-0.008885280712507665,-0.009335465315554755
1738771805417387300,5.28338720703125,-0.03566226501166821,0.00024542612843215465,0.007770238992560189
1738771805427379200,5.293379150390625,-0.03297054170966148,-0.0056383712131530045,0.0012067728407215326
1738771805437370400,5.303370361328125,-0.04284603903591633,0.005240531001985072,-0.009826529918261804
1738771805447362300,5.3133623046875,-0.05257248328030109,-0.007048420674167573,-0.012289787359791807
1738771805457353200,5.323353271484375,-0.034465748703479765,-0.002276785825565457,-0.006551177492423448
1738771805467345200,5.33334521484375,-0.04060147497951984,-0.005407448534108698,-0.002949983795837033
1738771805477336000,5.343336181640625,-0.03566226501166821,-0.012488766830880195,-0.0002720424240105785
1738771805487328300,5.353328369140625,-0.04613631275296211,-0.002352974600624293,0.005440033346170094
1738771805497319200,5.363319091796875,-0.05092588511705398,0.0011488047089427708,0.006292339326569345
1738771805507310000,5.37331005859375,-0.034465748703479765,0.005194408571626991,0.0005556223054765723
1738771805517302300,5.38330224609375,-0.040301030728220937,0.005031400029640644,-0.002747636474017054
1738771805527293200,5.393293212890625,-0.04463993671536445,0.001984890206903219,-0.01203469607058214
1738771805537285400,5.403285400390625,-0.05406652123034,-0.004762446895148605,0.009045996832707896
1738771805547276300,5.4132763671875,-0.038054128584265705,0.013306987878587096,-0.005941712957725394
1738771805557268200,5.423268310546875,-0.02832768433988094,-0.002540149469487369,-0.0064986550040310245
1738771805567259400,5.43325927734375,-0.04224456601142883,-0.005511511696781963,0.0030323077674489466
1738771805577251000,5.4432509765625,-0.03820493523180485,-0.002961808947660029,0.007291876324510667
1738771805587242200,5.4532421875,-0.03925181393623352,0.0015247070829384028,-0.006055667326750699
1738771805597234200,5.463234130859375,-0.0518225416958332,-0.00862209973167628,-0.007811214890342671
1738771805607225000,5.47322509765625,-0.043590719923377035,0.0008850026736035942,-0.009934008880727924
1738771805617216000,5.483216064453125,-0.03865267899930477,-0.00944706104742363,-0.011834387725510168
1738771805627208200,5.493208251953125,-0.04448796102404594,-0.0036469416676089164,-0.010749499115231447
1738771805637199000,5.50319921875,-0.050773909425735474,0.007330087159760296,0.0033805184169206767
1738771805647191300,5.51319140625,-0.04374269561469555,0.00458581168660894,-0.00604720089250477
1738771805657182200,5.52318212890625,-0.046884500771760936,-0.008039769799076021,0.006862373749888502
1738771805667174400,5.53317431640625,-0.040001170998811716,0.0019730719049461183,-0.0035474496487760913
1738771805677165300,5.543165283203125,-0.05197217929959297,-0.003102715255692601,0.006498600205103866
1738771805687157200,5.5531572265625,-0.05002630592882633,0.005968406885117292,0.0025306806715321727
1738771805697148400,5.5631484375,-0.03865267899930477,-0.007697587031591683,0.00013762750555761156
1738771805707139300,5.573139404296875,-0.04807867899239063,0.003916351459827274,-0.0007148405883344822
1738771805717131300,5.58313134765625,-0.036707974672317505,-0.0030303076066076754,0.0034795720443362367
1738771805727122400,5.593122314453125,-0.04134615586698055,0.001152147443499416,0.005075531432311982
1738771805737114000,5.603114013671875,-0.04568564637601375,-0.005447305620461702,-0.0028206902937847186
1738771805747105000,5.61310498046875,-0.03910100728869438,-0.0001144384262152016,-0.007667863180185668
1738771805757097200,5.62309716796875,-0.03491056986153126,-0.005833272730745374,-0.00042398843257687984
1738771805767088000,5.633088134765625,-0.03969780413806438,-0.004419204681739211,-0.000982722860458307
1738771805777080300,5.643080322265625,-0.05137129079699516,-0.0025287147600203752,0.003415178738348186
1738771805787071200,5.6530712890625,-0.034462241572141644,0.0022460253611207006,0.0037959171176655216
1738771805797063200,5.663063232421875,-0.052119478815793985,-0.0019335436121560633,0.002191772139945533
1738771805807054300,5.673054443359375,-0.04598550610542297,0.005594659935589879,0.01726946861863835
1738771805817045200,5.683045166015625,-0.039700142225623125,-0.013436623873934149,0.003364535396499559
1738771805827037400,5.693037353515625,-0.05541325966417789,-0.005771185546275228,0.005938660200824961
1738771805837028900,5.70302880859375,-0.04209551292955875,0.0056049986665137105,0.0025992501124273986
1738771805847021000,5.71302099609375,-0.05720891090929508,0.005903524955362081,-0.002752661992295179
1738771805857012000,5.723011962890625,-0.04568564637601375,-0.005352832270041108,-0.002024802092183381
1738771805867004000,5.73300390625,-0.05720598829984665,-0.001989054925367236,-0.0011622464291169308
1738771805876995000,5.7429951171875,-0.03969780413806438,0.00394703885903582,0.0010296467251260765
1738771805886987000,5.752987060546875,-0.034310265880823136,-0.0017731106197461485,0.00820721248758491
1738771805896978000,5.76297802734375,-0.04852525371611118,0.00869655320737511,-0.006603884927195031
1738771805906969000,5.772968994140625,-0.031167876201868054,0.003643872927688062,-0.00036154505508020516
1738771805916961000,5.7829609375,-0.050771571338176724,-0.01214389891596511,-0.00174473390863277
1738771805926952200,5.7929521484375,-0.04313829998075962,-0.002675959477294236,0.008140670606994535
1738771805936944000,5.802944091796875,-0.04927168816924095,-0.008143284972477703,0.006780504152714274
1738771805946935000,5.81293505859375,-0.05555705204904079,-0.0006501527381129563,0.0004194766542408615
1738771805956927000,5.822927001953125,-0.04553191711902618,0.0031249818864278493,-0.003799036089936271
1738771805966918000,5.83291796875,-0.04538227951526642,-0.012582856588810682,-0.004836217667546589
1738771805976910000,5.84291015625,-0.0494219102948904,-0.0043831104550510645,-0.004526615145546384
1738771805986901000,5.85290087890625,-0.038947278031706806,-0.009493621869198977,0.007737645047344267
1738771805996892000,5.862891845703125,-0.03715279583036899,-0.006103248778544366,-0.0038422107946709727
1738771806006884000,5.872884033203125,-0.044785482665896416,0.01248589902035892,-0.008008479611668735
1738771806016875000,5.882875,-0.04403729464709759,-0.00427709279730916,-0.0015557324088644236
1738771806026867000,5.892866943359375,-0.039548751056194306,-0.010971092276927084,0.00939119354118593
1738771806036858000,5.902858154296875,-0.04179331511259079,-0.004546867915708571,-0.0015301298934384249
1738771806046850000,5.91285009765625,-0.03775251528918743,-0.001273326137755066,-0.0013387629066477528
1738771806056841200,5.92284130859375,-0.043887657043337816,-0.002936729305330664,0.00543683674208587
1738771806066833000,5.9328330078125,-0.03012158201932907,0.004442749954108149,0.00286432393953437
1738771806076824000,5.942823974609375,-0.046133974665403366,0.0003020516864955425,0.003790391559177078
1738771806086815200,5.952815185546875,-0.04448854554593563,0.0022642734038643537,0.0039480298063019285
1738771806096807000,5.962806884765625,-0.05570961226224899,-0.0015429185930639505,0.0034406967720948156
1738771806106797800,5.9727978515625,-0.03984802626371384,-0.006758169023320078,0.003448820713046007
1738771806116790000,5.9827900390625,-0.04089432044625282,-0.008635854262392967,-0.005513114565401338
1738771806126781000,5.992781005859375,-0.05062076469063759,-0.006971008056402206,-0.00012232033857144414
1738771806136773000,6.002773193359375,-0.04104395805001258,-0.003965341700706631,0.002902411477197893
1738771806146764000,6.012763916015625,-0.03296469649076462,-0.0040343335499987,-0.004918991447018925
1738771806156756000,6.022755859375,-0.043588966357707974,-0.010935052849166094,0.005814040590601507
1738771806166747100,6.0327470703125,-0.043588381835818285,-0.0018503953733481466,-0.0032398221714422105
1738771806176739000,6.042739013671875,-0.04059329167306423,-0.0010435542361810803,0.004906931116466876
1738771806186730000,6.05272998046875,-0.023685411491990088,-0.005475527067948132,0.0013029769239248708
1738771806196721200,6.06272119140625,-0.025182956573367117,0.0052127662122249604,0.0035538245906354855
1738771806206713000,6.072713134765625,-0.04957330146431923,0.004130450868234038,0.008417263625247869
1738771806216704300,6.082704345703125,-0.04897358200550079,0.007353321904875337,0.0014606699699768796
1738771806226696000,6.092696044921875,-0.04897533557116985,-0.002113338892161846,0.0015621963989804499
1738771806236686800,6.102686767578125,-0.03655658350288868,-0.0008477394031360745,0.004063767423748504
1738771806246679000,6.112678955078125,-0.04568564637601375,-0.012472235821187495,0.005473787202010862
1738771806256670000,6.122669921875,-0.041646015596389765,-0.005407612930890172,-0.002905055525433272
1738771806266662100,6.132662109375,-0.037305356043577195,-0.00950350394239649,0.0009456491029472089
1738771806276653000,6.142653076171875,-0.017703414472937582,0.009086593704577536,0.004947473189409356
1738771806286644000,6.15264404296875,-0.03431435753405094,0.0033216917686164377,-0.0007617781527340412
1738771806296636200,6.16263623046875,-0.04434007698595523,0.004795070523116738,0.0004458029721630737
1738771806306627000,6.172626953125,-0.03880407016873359,-0.00398943496234715,0.006536594127933494
1738771806316619000,6.182618896484375,-0.04344166684150696,-0.0004458258050493896,-0.00530240355732385
1738771806326610200,6.192610107421875,-0.053018473482131956,0.0025402225347235796,-0.002334032438136637
1738771806336601900,6.202601806640625,-0.03296761910021305,-0.0004335143127478659,-0.008306240998825523
1738771806346593000,6.212593017578125,-0.04568623089790344,-0.008068064311798661,-0.008255869368324056
1738771806356584200,6.222584228515625,-0.038652094477415085,-0.008423106560856104,-0.0019996471013291736
1738771806366575900,6.232575927734375,-0.035658757880330086,0.009652173431776464,0.004129304657340981
1738771806376567000,6.242567138671875,-0.04209375936388969,-0.002870806195959449,0.0020987920602899973
1738771806386559000,6.25255908203125,-0.04822890111804008,-0.0011933927693404257,-0.006221829090337269
1738771806396550000,6.2625498046875,-0.05152092840075492,0.0034364407220855353,0.004647268683416769
1738771806406542000,6.2725419921875,-0.044187516772747036,-0.0012557722147554158,-0.0070003140659886404
1738771806416533000,6.282532958984375,-0.03476093225777149,0.0024915610874071716,0.00026953765638172624
1738771806426525200,6.292525146484375,-0.050473465174436564,-0.0027205840703099964,0.004457575347193051
1738771806436516000,6.30251611328125,-0.05152326648831367,0.004284600250329822,-0.0040833968561142684
1738771806446508000,6.312508056640625,-0.028929741886258124,0.000940769715141505,-0.0032624175957404076
1738771806456499200,6.322499267578125,-0.0425467638283968,0.005738141793198883,0.0036914109969977287
1738771806466490000,6.332489990234375,-0.03551321192979812,-0.004002203112374991,0.0009851910954690537
1738771806476481800,6.342481689453125,-0.040001755520701406,-0.017057225523889063,0.0013641873255604876
1738771806486473000,6.352472900390625,-0.045987844192981714,0.0005123882352374493,-0.0035949740183539684
1738771806496465000,6.36246484375,-0.061549570462107656,0.0037598457238636907,-0.0013782455336651765
1738771806506456000,6.3724560546875,-0.05421791239976883,-0.0005191467695869505,0.0033197852226090614
1738771806516448000,6.382447998046875,-0.05796002153754234,-0.0016799889761954544,0.003994531262572855
1738771806526439000,6.39243896484375,-0.03521452124416828,-0.007855261811334639,-0.004532124721014406
1738771806536431000,6.40243115234375,-0.03341770095527172,-0.008673227130714804,-0.009400454559875652
1738771806546422000,6.412422119140625,-0.038653848043084145,0.005620287567190825,0.003516433456004597
1738771806556413000,6.422412841796875,-0.03895370777249336,0.0028186193509958683,-0.0027982638328452594
1738771806566405000,6.432405029296875,-0.03880407016873359,-0.009899353125877678,-0.008621042569039854
1738771806576396000,6.44239599609375,-0.04897942722439766,-0.0014943119446747003,0.00339705627647927
1738771806586388200,6.45238818359375,-0.03655775254666805,-0.001282148765027523,-0.0002116129070869647
1738771806596379100,6.462379150390625,-0.05122340675890445,-0.0007844283759593963,0.0005673949416610412
1738771806606370800,6.472370849609375,-0.054365796437859534,0.0013031002215109764,-0.0012008340069907717
1738771806616362000,6.482362060546875,-0.04733341358304023,-0.007647847872041165,-0.006310123861720785
1738771806626354000,6.49235400390625,-0.04793137947618961,0.0065555408569984135,-0.008264191955386194
1738771806636344800,6.5023447265625,-0.028330022427439688,-0.00522836564015597,0.006261887106089852
1738771806646336000,6.5123359375,-0.03581190261542797,-0.003856200504116714,0.0066791215708944945
1738771806656328000,6.522327880859375,-0.04224690409898758,-0.004575472955685109,-0.009264128528838046
1738771806666319000,6.532319091796875,-0.045240240696072576,-0.014246259756386279,-0.001986054684105329
1738771806676311000,6.54231103515625,-0.04703530741930008,-0.010386552120931446,0.006943407663423567
1738771806686302000,6.552302001953125,-0.05316869560778141,0.004946973149199039,-0.01163708875485463
1738771806696294100,6.562294189453125,-0.0323684841632843,0.004920870593562722,0.0013641188269015402
1738771806706285000,6.57228515625,-0.04209375936388969,0.0008129055517725646,0.0048482939811190584
1738771806716277200,6.58227734375,-0.03820551975369453,-0.0008772942911833524,-0.003214694580051582
1738771806726268200,6.59226806640625,-0.046285950356721874,-0.00265809502704069,-0.0011383449637214652
1738771806736259000,6.602259033203125,-0.042993338552117344,-0.008833075601235032,-0.002603544978343416
1738771806746251000,6.6122509765625,-0.054365211915969845,0.008936499443091451,0.012837730965600348
1738771806756242000,6.622241943359375,-0.04314063806831837,0.0010742599016986788,-0.0024443335453514007
1738771806766233900,6.63223388671875,-0.035359482672810555,0.006293638517800718,0.005500638676318339
1738771806776225000,6.64222509765625,-0.043590135401487345,0.0037970541954040525,-0.0052888659390271636
1738771806786217000,6.652217041015625,-0.04493687383532524,0.004256871993187815,-0.003726902435487136
1738771806796207900,6.662207763671875,-0.03416179732084274,-0.0025164032677188514,-0.017568380783265454
1738771806806199000,6.672198974609375,-0.048825697967410084,0.012268018485978246,-0.003160870617139153
1738771806816191000,6.68219091796875,-0.047777065697312354,0.001277125530038029,0.002644283414108213
1738771806826182100,6.69218212890625,-0.04702829315662384,0.006938914151396602,-0.00020131070878123863
1738771806836173800,6.702173828125,-0.051067339414358134,-0.00510218197721988,-0.0011057327521964908
1738771806846164700,6.712164794921875,-0.05989361994862556,0.008550240071862936,0.00025730836247093975
1738771806856157000,6.722156982421875,-0.04044073145985603,-0.000006849865894764661,0.0013970187327940948
1738771806866147800,6.73214794921875,-0.03804536075592041,0.004594853509590029,0.011390925124194472
1738771806876139500,6.742139404296875,-0.03744681034088135,0.0044383843062445515,0.009116064110945444
1738771806886130700,6.752130615234375,-0.035651159095764155,0.00967955462904647,0.002075388351816218
1738771806896121900,6.762121826171875,-0.04627542896270752,-0.0012389672104269266,0.005106257647427264
1738771806906113500,6.772113525390625,-0.05106266323924064,-0.012508366580493747,-0.003012454572797287
1738771806916104700,6.782104736328125,-0.05121346988677978,-0.0012148191498592496,0.006565313332341611
1738771806926096600,6.7920966796875,-0.040888475227355954,0.0016140841331332922,0.0006461546997190453
1738771806936087600,6.802087646484375,-0.05091302563548088,0.009336659475509077,0.00169355399395572
1738771806946079700,6.812079833984375,-0.0435790294855833,-0.001984890206903219,0.0011454254417680204
1738771806956070700,6.822070556640625,-0.027568974927067755,-0.0028417810308746993,0.0037279025159077718
1738771806966062800,6.832062744140625,-0.03101122433543205,-0.002361541499570012,-0.007632632036600261
1738771806976053800,6.8420537109375,-0.046722003686428065,0.009693035165127366,-0.008660002322960644
1738771806986044700,6.852044677734375,-0.03789280054271221,0.0032567733062431213,0.007103826956101693
1738771806996036900,6.862036865234375,-0.03100947076976299,-0.0036259171458892523,-0.00012161936896154657
1738771807006027800,6.87202783203125,-0.057794601842761036,-0.007660689087305218,0.0016710019521415233
1738771807016019700,6.882019775390625,-0.04986380884349346,0.003238488730881363,0.00024351958242477847
1738771807026010600,6.8920107421875,-0.02412789456248283,-0.005504387836251408,-0.007862184742465615
1738771807036002600,6.90200244140625,-0.04208440701365471,0.003937631709873676,-0.0031714079941739326
1738771807045993700,6.91199365234375,-0.04462707723379135,-0.007806308103073388,-0.004542171190993394
1738771807055985700,6.921985595703125,-0.061984454748034476,-0.008413681145384906,-0.013719936610630246
1738771807065976600,6.9319765625,-0.04881576109528541,0.0021729235922917723,0.004632281176839024
1738771807075967700,6.9419677734375,-0.05375555558502674,0.002850439261365682,0.00719854918498313
1738771807085959700,6.951959716796875,-0.04552490285634994,0.005212547016516328,-0.0011526041012257337
1738771807095950800,6.961950927734375,-0.04492401435375214,0.005111808322090655,-0.0018344283359474501
1738771807105942800,6.97194287109375,-0.04133388090729713,-0.015620635115820914,0.00897009575201664
1738771807115933700,6.98193359375,-0.03879004164338112,-0.005138130073435604,0.0006120400842744857
1738771807125926000,6.99192578125,-0.037294250127673144,-0.0037490138025954366,-0.013724379890307318
1738771807135916800,7.001916748046875,-0.03669745327830314,-0.01352722476683557,-0.0071749376972438765
1738771807145907700,7.01190771484375,-0.04806991116404533,-0.00020849165152758359,0.0030776538796722886
1738771807155899600,7.021899658203125,-0.060490416797995564,0.0013249101945199072,-0.005074988009617663
1738771807165890800,7.031890869140625,-0.05001578453481197,-0.010198810996487737,0.008404860801401083
1738771807175882800,7.0418828125,-0.03534954580068588,-0.002656231863517314,0.013769029599498024
1738771807185873700,7.051873779296875,-0.04747019170522689,-0.003546294304728508,-0.004684506837709341
1738771807195865600,7.061865478515625,-0.0435790294855833,0.0013584654042497275,-0.00477346604608465
1738771807205856800,7.071856689453125,-0.0331049817442894,-0.005623995627928525,0.0021170218367245978
1738771807215848700,7.0818486328125,-0.061385319811105725,0.004042717785853893,0.005673248447000514
1738771807225839600,7.091839599609375,-0.04671966559886932,-0.011134484411403536,-0.0013167314546415581
1738771807235830800,7.101830810546875,-0.05240414097607136,-0.0014987871903926133,-0.013003890445898286
1738771807245822700,7.11182275390625,-0.045671617850661275,-0.015388397262524812,0.009498309460759628
1738771807255814000,7.12181396484375,-0.03669219258129597,-0.0009313625659793615,0.0030472130756359545
1738771807265805800,7.131805908203125,-0.04133212734162807,-0.0036948724625632165,-0.0159938089599018
1738771807275796700,7.141796630859375,-0.05015957691967487,-0.0015098200410604476,-0.002006083691981621
1738771807285788700,7.15178857421875,-0.04776362169384956,-0.00473561368715018,0.008437861171993426
1738771807295779600,7.161779541015625,-0.0558440522968769,0.007995437467005104,0.009700467269623186
1738771807305771800,7.171771728515625,-0.060631871095299716,-0.00010199906975030899,-0.006509726670605596
1738771807315762700,7.1817626953125,-0.036839492097496984,0.0022811149408109486,-0.006219449903583154
1738771807325753600,7.191753662109375,-0.026963410249352452,0.0021518077390268444,-0.00342048966770526
1738771807335745800,7.201745849609375,-0.040728900751471515,-0.004511157281510532,-0.017390055941138415
1738771807345736700,7.21173681640625,-0.03653670975863933,-0.0011883147354237735,-0.00631333644882543
1738771807355728600,7.221728759765625,-0.022321721923351287,-0.002800882764905691,-0.0004529017165186815
1738771807365719800,7.2317197265625,-0.028157588469982144,-0.006100253103859722,-0.001025495706393849
1738771807375711700,7.241711669921875,-0.051800329864025114,-0.0026379472881555557,-0.0015508849870995618
1738771807385702700,7.25170263671875,-0.05329729042351246,-0.003808963828906417,0.0024739226827281526
1738771807395694800,7.26169482421875,-0.046264323046803474,-0.011298698529787361,0.008825657196471002
1738771807405685800,7.271685791015625,-0.04940846629142761,-0.0028350042302161455,-0.0074698175741476
1738771807415677000,7.281677001953125,-0.0497094950646162,-0.00827942377384752,-0.007181691665016115
1738771807425668600,7.291668701171875,-0.022176175972819328,-0.00033385333055630325,-0.00042555248528951777
1738771807435659500,7.301659423828125,-0.0497094950646162,0.01103878721827641,-0.007391672020731493
1738771807445651700,7.311651611328125,-0.04806289690136909,-0.005426865620631724,-0.004568362794886343
1738771807455642600,7.321642578125,-0.06018412732779979,-0.0015166333743371068,-0.007256307254207786
1738771807465634800,7.331634765625,-0.04701601819694042,0.007314853058010339,-0.0004995493032620288
1738771807475625700,7.341625732421875,-0.035944004562497134,0.0019958682586438954,-0.007877763620798941
1738771807485617700,7.35161767578125,-0.027115970462560653,-0.0021629867201671004,-0.0029200841312063855
1738771807495608800,7.36160888671875,-0.04911445178091526,-0.0025364414087496695,0.0020119197777239604
1738771807505599700,7.371599853515625,-0.05913900218904018,-0.0021464374441653488,-0.002954810668004211
1738771807515591700,7.381591796875,-0.04582242449820041,-0.003994750458281487,0.004034838156786282
1738771807525582800,7.391582763671875,-0.045672786894440646,-0.001163947479147464,-0.007609134713292587
1738771807535574800,7.40157470703125,-0.056149172723293304,0.0013275405430234967,-0.00489412871710956
1738771807545566000,7.41156591796875,-0.04597498471140861,0.005130841816123575,0.0049444843645906076
1738771807555557600,7.4215576171875,-0.050913610157370566,0.009470533254556357,0.0014718695007148199
1738771807565548500,7.431548583984375,-0.04223462913930416,-0.000406936833076179,-0.004202280845295172
1738771807575539700,7.441539794921875,-0.04193593845367431,-0.011599836900830269,0.00010776894012233242
1738771807585531600,7.45153173828125,-0.03535071484446525,0.004816442104708403,-0.0008967890095198526
1738771807595522600,7.4615224609375,-0.030712533649802205,-0.011307575955986976,-0.014220992884389124
1738771807605514800,7.4715146484375,-0.04073883762359619,-0.0005264898258261383,0.0038446950127021405
1738771807615505700,7.481505615234375,-0.04702303245961666,-0.00011354337707161903,0.003522589202155359
1738771807625497900,7.491497802734375,-0.03998831151723861,0.00877803921205923,-0.0030520216814940793
1738771807635488800,7.50148876953125,-0.045973231145739556,0.007391242762468755,-0.005045202509418595
1738771807645480700,7.511480712890625,-0.02726911519765854,-0.010841017890162766,-0.00770152113790391
1738771807655471900,7.521471923828125,-0.037895138630270955,-0.0021953911524266005,-0.00891486071672989
1738771807665462800,7.531462890625,-0.0446294153213501,0.0011170213311910628,0.0008230365034309215
1738771807675454700,7.541454833984375,-0.03699906657338142,0.00026624972075223923,0.005652306123671587
1738771807685446000,7.55144580078125,-0.046128713968396184,-0.007857161507476122,0.0047471283117192795
1738771807695437600,7.5614375,-0.03550327505767345,-0.0016299758220091462,0.0011428498921915889
1738771807705428700,7.5714287109375,-0.03640110068023204,-0.009558010608609765,0.0007579947434714995
1738771807715420700,7.581420654296875,-0.03221124777495861,0.005850534392800181,0.00291684186134953
1738771807725411600,7.59141162109375,-0.046428573697805404,0.0004167823736555874,0.0024421941039036027
1738771807735403800,7.60140380859375,-0.04179156154692173,0.003927420843113214,-0.008708309860539156
1738771807745394700,7.611394775390625,-0.042539165043830866,0.0034660686753690243,0.007716944752610288
1738771807755385600,7.621385498046875,-0.04313829998075962,-0.012957626451645046,-0.0012497466160566546
1738771807765377800,7.631377685546875,-0.043588966357707974,0.012261607011500746,0.008467180881311652
1738771807775368700,7.64136865234375,-0.04119418017566204,-0.004659571042563766,-0.0007780009184614754
1738771807785361000,7.65136083984375,-0.05122106867134571,0.010032076127454638,-0.0017549082427751272
1738771807795351800,7.661351806640625,-0.04164367750883102,0.001924246060848236,-0.0040728001135750674
1738771807805343700,7.67134375,-0.0379021528929472,0.0027999877157621083,-0.005861724790383596
1738771807815335000,7.6813349609375,-0.04254267217516899,-0.005499218470789492,-0.003026072106196079
1738771807825325800,7.691325927734375,-0.04314122259020805,0.0006354848919436335,0.007265223496314138
1738771807835317200,7.701317138671875,-0.04673427864611149,-0.0024218568520620464,-0.010841433448693715
1738771807845308400,7.711308349609375,-0.03820493523180485,0.002945351003203541,0.0056662319010356435
1738771807855300000,7.721300048828125,-0.039701895791292185,0.01047704341597855,-0.017443893603782634
1738771807865291000,7.731291015625,-0.03566168048977852,-0.00390113562438637,-0.013768881185736973
1738771807875283200,7.741283203125,-0.03655950611233711,0.0023731954047456383,-0.001474668812577147
1738771807885274000,7.751274169921875,-0.04912964935004711,0.002528842624183744,0.009168392519804183
1738771807895266300,7.761266357421875,-0.029826398465037342,-0.00810119939642027,0.0028001932117389513
1738771807905257200,7.77125732421875,-0.04838263037502765,0.004967066089157015,-0.0055092991900979535
1738771807916497200,7.7824970703125,-0.0546679942548275,0.008596417301148176,-0.008768387751013506
1738771807926489000,7.792489013671875,-0.046288872966170305,-0.00019219810385257005,0.004715986538073048
1738771807936480300,7.802480224609375,-0.0437444491803646,-0.007110781853273511,0.0005113402057555504
1738771807946472200,7.81247216796875,-0.04643851056993007,-0.007541063029319048,-0.0015866161708952859
1738771807956463400,7.82246337890625,-0.02204758115708828,0.012529190172813832,-0.0044223396370303815
1738771807966455300,7.832455322265625,-0.0376098919481039,-0.005438482993189245,-0.005647417602711357
1738771807976446200,7.8424462890625,-0.04000467813014984,0.0035841786297038194,0.0024165459227049723
1738771807986438400,7.8524384765625,-0.040005262652039526,0.005727291605621576,0.003535332236008253
1738771807996429300,7.86242919921875,-0.03701251057684421,-0.009859441240597516,-0.01814914894644171
1738771808006420200,7.872420166015625,-0.043594227054715155,0.003059698097873479,-0.014902837668708525
1738771808016412200,7.882412109375,-0.03162263423204422,-0.007598766299616545,0.0006693643286591395
1738771808026403000,7.892403076171875,-0.02863105120062828,0.004722681140340864,-0.010742642399470786
1738771808036395300,7.902395263671875,-0.045240240696072576,0.010226886313501745,-0.004987896531342994
1738771808046386200,7.91238623046875,-0.03476619295477867,-0.004688340479321778,-0.010416301088512409
1738771808056378000,7.922378173828125,-0.0398538714826107,0.0035164471557363867,-0.013804137445497326
1738771808066369300,7.932369384765625,-0.053470308902859684,0.00302385959951207,-0.013562558658409397
1738771808076360200,7.942360107421875,-0.04778524900376797,0.0017310798426158724,0.006124686575506348
1738771808086352100,7.95235205078125,-0.05032908826768398,0.0006721088415943086,-0.002390002692362759
1738771808096343300,7.96234326171875,-0.03925590558946133,0.007262173022702336,-0.0031183169669122433
1738771808106335200,7.972335205078125,-0.03790682906806469,0.0046012101851403715,0.0046522097200155255
1738771808116326400,7.982326416015625,-0.03521276767849922,0.0023155286670662463,0.007520250853442121
1738771808126318300,7.992318359375,-0.0440408017784357,-0.0013071736084297298,0.0033499885646277104
1738771808136309200,8.002309326171876,-0.04284253190457821,-0.000029262627102434632,0.0010615511171752586
1738771808146300400,8.012300537109375,-0.04613514370918274,0.0020703217343427237,0.0015213940311339684
1738771808156292000,8.0222919921875,-0.04658464104235172,-0.0013680186838842927,0.009807503274094779
1738771808166283000,8.032282958984375,-0.04868015201687813,-0.0020699746744707224,0.0020085998760536313
1738771808176275200,8.042275146484375,-0.05182312621772289,-0.006525821572169661,-0.0012828132020193152
1738771808186266000,8.05226611328125,-0.03940203606188297,0.007781246727053075,0.003547413116157986
1738771808196258300,8.06225830078125,-0.05451426499783992,0.003389478041511029,0.0032868876000051385
1738771808206249200,8.072249267578124,-0.04808101707994938,0.006708393331151455,-0.0061330616782070135
1738771808216241200,8.0822412109375,-0.045536593294143675,-0.007669639578741044,0.008367604380799457
1738771808226232300,8.092232421875,-0.05391513006091118,0.006341057856101543,0.0028358513302984647
1738771808236223200,8.10222314453125,-0.046881578162312504,-0.00041689197150990363,-0.009337435793643817
1738771808246215400,8.11221533203125,-0.03655658350288868,0.0090121036962606,0.013308634129690472
1738771808256206300,8.122206298828125,-0.039548751056194306,0.011820256452169269,0.002834634337457828
1738771808266198300,8.1321982421875,-0.04448503841459751,-0.007575969945918768,-0.004122651154268533
1738771808276189400,8.142189453125,-0.03355973977446556,0.0002702865750528872,-0.003981573599588591
1738771808286181000,8.15218115234375,-0.06094283674061298,0.002170768167823553,0.007728256164491176
1738771808296172000,8.162172119140624,-0.04298632428944111,-0.0023134097752161324,-0.0036175260601681654
1738771808306163200,8.1721630859375,-0.04882277535796165,0.006984214597847312,0.002823201911279466
1738771808316155100,8.182155029296876,-0.051662967219948765,-0.00034908743230625984,-0.0007763249846058898
1738771808326146000,8.19214599609375,-0.03804419171214103,-0.00045300446450710294,-0.006238364666607231
1738771808336138200,8.20213818359375,-0.03310439722239971,-0.002348006164561957,0.004904878439987078
1738771808346129200,8.212129150390625,-0.03280512201488018,-0.007295088911615312,-0.006270650367857888
1738771808356121300,8.222121337890625,-0.04357844496369362,0.0008996522534638643,0.00676870868364349
1738771808366112300,8.2321123046875,-0.040434301719069476,0.002765756652597338,0.009711947644862811
1738771808376104200,8.242104248046875,-0.04836567924022674,-0.0109985465394333,-0.0035475044477032494
1738771808386095400,8.252095458984375,-0.05210720385611057,-0.0037934191999025643,-0.009762698301277123
1738771808396086300,8.262086181640624,-0.048965398699045176,-0.0058290532133542,-0.00003514437861740589
1738771808406078500,8.272078369140624,-0.058094461572170256,-0.013251513097994029,0.00013063150919042526
1738771808416069400,8.2820693359375,-0.05704758286774158,-0.006058003131020814,-0.0005814371667453087
1738771808426061000,8.29206103515625,-0.0390916549384594,0.005355225156527013,-0.014167949806188698
1738771808436052200,8.30205224609375,-0.032359131813049315,-0.002684928235039115,0.00528418748062104
1738771808446044200,8.312044189453125,-0.03864508021473884,-0.010691142824385314,-0.0011430531048798002
1738771808456035000,8.32203515625,-0.032960020315647126,-0.013012717639748006,0.006764101007184944
1738771808466027300,8.33202734375,-0.04927051912546158,-0.008078037716541439,-0.0021660623099538498
1738771808476018200,8.34201806640625,-0.05675356835722923,-0.007437876649480313,-0.001999747566028964
1738771808486009000,8.352009033203124,-0.04732523027658462,0.014811254961695521,-0.01422481054298114
1738771808496001300,8.362001220703124,-0.046726095339655875,0.005337232842110097,-0.0007818482598057016
1738771808505992200,8.3719921875,-0.036700375887751574,0.004591291579324752,-0.010783862609136849
1738771808515984400,8.381984375,-0.04133855708241462,0.00006537512009963392,-0.005557503979688044
1738771808525975300,8.391975341796876,-0.04687514842152595,0.0050189789394848045,-0.0039186507314792835
1738771808535967200,8.40196728515625,-0.032360885378718375,-0.005567644064500927,0.0035337179509457198
1738771808545958400,8.41195849609375,-0.05286065257191658,-0.0003612710604444146,-0.005324912216654047
1738771808555949300,8.42194921875,-0.05794716205596923,0.005857420791313052,-0.0072275081346975635
1738771808565941200,8.431941162109375,-0.0437315896987915,-0.006875146466493606,0.003093212208407931
1738771808575932200,8.44193212890625,-0.03834405144155025,-0.007039068323932588,0.0042556161844404415
1738771808585924000,8.451924072265625,-0.035949265259504315,0.008322313067503273,-0.000206354493368417
1738771808595915300,8.461915283203124,-0.04597440018951893,-0.009358597312681377,-0.006533399807137902
1738771808605907200,8.4719072265625,-0.03520166176259518,0.004020323290955275,0.0040783096890430895
1738771808615898000,8.481898193359376,-0.048967736786603926,-0.0031608021184802056,-0.0013540472407476045
1738771808625890300,8.491890380859376,-0.05899228719472885,-0.000837218009121716,-0.010697147873486391
1738771808635881200,8.501881103515625,-0.05764437971711158,0.008380637392308562,-0.003921059600985609
1738771808645872000,8.5118720703125,-0.04312953215241432,0.0037340354291722174,0.009994054805161431
1738771808655864300,8.5218642578125,-0.042380759611725806,0.01059566482696682,-0.004660751502786297
1738771808665855200,8.531855224609375,-0.04447451702058315,0.0013850428839214145,-0.003747968056402169
1738771808675847200,8.54184716796875,-0.03609481121003628,-0.0018963351406157017,0.0006558815092896111
1738771808685838300,8.55183837890625,-0.041482349467277524,0.009207553203124552,0.006011962899053469
1738771808695830300,8.561830322265624,-0.042079730838537215,-0.01044759812578559,0.0045921752120251765
1738771808705821200,8.5718212890625,-0.047018356284499165,-0.005336940581165254,0.00880950977926841
1738771808715813000,8.581813232421876,-0.05854045177400112,0.007068659744597971,0.005641200207767542
1738771808725804300,8.59180419921875,-0.0317541516572237,0.0020914558539167046,0.001415559036482591
1738771808735795200,8.601795166015625,-0.05195522816479206,-0.0046698549745604395,0.005995644235203508
1738771808745787100,8.611787109375,-0.038187399575114245,0.007552242010459303,-0.007342531082802452
1738771808755778300,8.6217783203125,-0.03310089009106159,-0.011399218028504401,-0.0002439237245125696
1738771808765770200,8.631770263671875,-0.0486637854039669,0.006736833974346518,0.01173537976386724
1738771808775761200,8.64176123046875,-0.0425292281717062,0.0030131738087162373,0.006961868052009958
1738771808785753300,8.65175341796875,-0.04791618190705776,-0.009540712413936853,0.0019201429911772719
1738771808795744300,8.661744140625,-0.04118132069408893,-0.001370356771443039,0.004293954883853439
1738771808805735200,8.671735107421876,-0.047018356284499165,-0.005961410888750106,-0.008344040842121467
1738771808815727400,8.681727294921876,-0.03774024032950401,0.0053767246022820465,-0.0009203548314864747
1738771808825718300,8.69171826171875,-0.050906011372804635,0.0037648872251622376,-0.006792420636082533
1738771808835710000,8.7017099609375,-0.04821253450512886,-0.0005839008351787925,0.008514604786189739
1738771808845700900,8.711700927734375,-0.042674774122238156,0.006238035873044282,0.0015127266674884595
1738771808855693000,8.721693115234375,-0.044022097077965734,-0.008708937764912843,0.004797203114698641
1738771808865684000,8.73168408203125,-0.047014849153161044,-0.011869064029958099,0.0015692129449453203
1738771808875675000,8.7416748046875,-0.041028175958991046,0.00022158859511837363,0.0020971115598571485
1738771808885667000,8.7516669921875,-0.04701368010938167,0.007257058456167578,0.0044054250348475755
1738771808895658000,8.761657958984374,-0.03998071273267269,0.005760170961916446,-0.00263262037577806
1738771808905650000,8.77164990234375,-0.03668868544995785,0.004694916350580751,0.005348615035938565
1738771808915641000,8.78164111328125,-0.029804186633229254,0.006432024075184017,-0.0019533922402304596
1738771808925633000,8.791633056640626,-0.03533902440667152,0.0015638883158564567,-0.00004320438748691231
1738771808935624200,8.801624267578125,-0.04282207363843918,0.008934106556605547,0.008520794781669973
1738771808945616100,8.8116162109375,-0.04805938977003097,-0.0028842319331131875,-0.0004198351305560209
1738771808955607000,8.82160693359375,-0.045215106254816055,-0.005354293574765324,0.0021414164924644864
1738771808965598200,8.83159814453125,-0.036685762840509416,0.0018527699935249984,0.014077721089334227
1738771808975590000,8.84158984375,-0.05434241556227207,-0.012707944273203611,-0.00019304748722352087
1738771808985580800,8.851580810546874,-0.04925473703444004,-0.010446502147242426,0.006678505082963965
1738771808995573000,8.861572998046874,-0.028904022923111915,-0.005963474981673061,0.0014212033259798772
1738771809005564000,8.87156396484375,-0.03698211543858051,0.0016772124972194433,0.004295144477230496
1738771809015556000,8.88155615234375,-0.02755260831415653,-0.0069525042853318154,-0.002583088995493017
1738771809025547000,8.891547119140625,-0.03473521329462528,0.004732179621048271,0.0061117083629244
1738771809035538000,8.901537841796875,-0.04281505937576294,0.0012632248688489198,0.0006620578050380572
1738771809045530000,8.911530029296875,-0.04476034822463989,0.003060757543798536,-0.000456020688789431
1738771809055521000,8.92152099609375,-0.051342649224400516,0.0022278321173042057,0.010117452855966984
1738771809065513200,8.93151318359375,-0.04266483725011348,0.008588507989328354,-0.004224056568974629
1738771809075504000,8.941504150390625,-0.04191606470942497,-0.009071944124717264,0.0030235856048762798
1738771809085496000,8.95149609375,-0.04311375006139278,-0.010083240059111266,0.01042840936812572
1738771809095487200,8.9614873046875,-0.03937280996739864,0.0032395299104973673,-0.0006598658479517325
1738771809105479000,8.97147900390625,-0.04895020112991333,-0.007824099488090723,0.004341835446457844
1738771809115469800,8.9814697265625,-0.047754269343614576,0.007220288376044481,-0.0016816740432055667
1738771809125461000,8.9914609375,-0.03997369846999645,0.0027588702540844675,0.003513013089634478
1738771809135453000,9.001452880859375,-0.042217093482613564,-0.0013220241176895796,0.00026445505588781085
1738771809145443800,9.01144384765625,-0.057928457355499265,0.003423124582786113,-0.00020025354614481327
1738771809155436000,9.02143603515625,-0.04565700480341911,-0.0009731193484738468,-0.011037599908187985
1738771809165427000,9.031427001953125,-0.05044482360184192,-0.0012803404004313051,0.008633717104233801
1738771809175419100,9.041419189453125,-0.044458734929561615,-0.011504176240321249,-0.005576137898210436
1738771809185410000,9.05141015625,-0.04071837935745716,-0.005634133429452777,-0.015792564466490876
1738771809195401000,9.06140087890625,-0.031741292175650596,-0.0010732187220826744,0.003788854905928019
1738771809205393200,9.07139306640625,-0.04490881678462028,-0.003932243148703128,-0.007139062666264362
1738771809215384000,9.081384033203125,-0.046852352067828174,-0.01600384401343763,-0.00415115572954528
1738771809225376300,9.091376220703125,-0.029645196679234504,-0.0005353672520257533,0.004964997429656796
1738771809235367200,9.1013671875,-0.053587213280797,-0.0024762356541119515,0.00284990497182589
1738771809245358800,9.11135888671875,-0.03877367503046989,-0.0000415010541677475,0.00008826508863130584
1738771809255350000,9.12135009765625,-0.05194295320510864,-0.005206373004056513,0.0034819968968629834
1738771809265342000,9.131342041015625,-0.04999883340001106,-0.007111914364434778,0.015077838042587973
1738771809275332900,9.141332763671874,-0.04790332242548465,0.002899338170699775,0.0028841817007632924
1738771809285324000,9.151323974609374,-0.026505729609727857,0.006942129021789878,-0.00965320319494931
1738771809295316000,9.16131591796875,-0.03353811246454715,-0.004761515313386917,-0.008451391940424218
1738771809305307000,9.171306884765626,-0.03623100481033325,0.0037595534629188475,-0.0002665237153880298
1738771809315299000,9.181299072265626,-0.04595861809849739,-0.010850461571943014,0.0007186536803492345
1738771809325290000,9.1912900390625,-0.04700666584670543,-0.003473630927316844,0.00032367671312531456
1738771809335282200,9.2012822265625,-0.0411696302562952,0.008293251369800417,0.003849412287015002
1738771809345273000,9.211273193359375,-0.03952420113682747,0.0005298690930008888,0.004954430369869806
1738771809355264000,9.221263916015625,-0.0516442625194788,-0.01221188611825928,0.005124247678555548
1738771809365256200,9.231256103515625,-0.04625789330601692,-0.0044254517594352364,-0.010885996392916422
1738771809375247000,9.2412470703125,-0.05194529129266739,-0.004664703875407576,0.0017061874299542977
1738771809385239000,9.251239013671874,-0.05134615635573864,-0.014270681811589747,0.009327001164597459
1738771809395230000,9.26122998046875,-0.04221884704828262,-0.0009073606358841061,-0.004091422615654301
1738771809405222000,9.271221923828126,-0.02994856353998184,-0.0033345512501895425,0.003897804306272883
1738771809415213000,9.281213134765625,-0.04221767800450325,-0.005339552663359791,0.0006097887616837397
1738771809425204000,9.291203857421875,-0.04745557865798473,-0.012496822273172437,0.011467623072618153
1738771809435196000,9.30119580078125,-0.04835398880243301,-0.0060161184843629594,0.0018741118923644535
1738771809445187000,9.31118701171875,-0.049850364840030664,0.003671436788048595,-0.009993908674689009
1738771809455179000,9.321178955078125,-0.03952361661493778,-0.006755027218163013,-0.002769428180716932
1738771809465170000,9.331169921875,-0.03622983576655388,-0.006101403881330043,-0.011846331608342007
1738771809475162000,9.341162109375,-0.03323533012568951,-0.00288067000284791,-0.008459620912652462
1738771809485153000,9.351153076171874,-0.037275545427203176,-0.0027470154195092618,-0.003089036073500756
1738771809495145000,9.36114501953125,-0.05448328533768654,-0.002911704461928457,0.004944993537955452
1738771809505136000,9.37113623046875,-0.047449733439087864,0.00380149290850386,0.008781528077088296
1738771809515127000,9.381126953125,-0.04131517620682716,0.005322217936068773,0.0030971508812974204
1738771809525119000,9.391118896484375,-0.049694297495484346,0.0022915815358981488,-0.012975118725851643
1738771809535110000,9.40110986328125,-0.047600540086627,-0.00872707620980218,-0.010134725934464949
1738771809545102000,9.41110205078125,-0.032037644773721695,-0.01161841373713687,-0.00468920584571315
1738771809555093000,9.421093017578125,-0.030241993528604506,0.006191073192469775,0.0011513414426124653
1738771809565085000,9.4310849609375,-0.049992403659224506,-0.005859393552690744,-0.007057028672308661
1738771809575076000,9.441076171875,-0.05178747038245201,0.0023316943505778905,0.000010108118772041051
1738771809585067000,9.45106689453125,-0.04894494043290615,-0.006450125987455249,-0.0013204121159156783
1738771809595059000,9.461058837890626,-0.05507949766516685,0.005045812147483229,-0.0010001854519126937
1738771809605050000,9.471050048828126,-0.05178922394812107,-0.011199969129357487,-0.005759469992306549
1738771809615042000,9.4810419921875,-0.04460603444576263,0.002532185358740389,0.005049791919568088
1738771809625033000,9.491032958984375,-0.04221183278560638,-0.005232694755401462,-0.0003257408060482703
1738771809635025200,9.501025146484375,-0.04625204808712005,-0.003447692768462002,0.0035445886881207114
1738771809645016000,9.51101611328125,-0.04400689950883388,-0.008562862091418355,0.012207538736704736
1738771809655007200,9.52100732421875,-0.04011632181107998,-0.00031430837986990806,-0.002515339255216531
1738771809664999000,9.5309990234375,-0.0525374119669199,0.0010749540214426815,-0.0036471425970084964
1738771809674989800,9.54098974609375,-0.03966916256546974,-0.0054881490875035525,-0.00508018705783179
1738771809684982000,9.55098193359375,-0.05164017086625099,0.00006645283233374357,0.008681289422872942
1738771809694973000,9.560972900390626,-0.04759937104284763,-0.004780987198837101,-0.005971943699207622
1738771809704965000,9.570965087890626,-0.03712415425777435,-0.011985639614332466,0.0016144311930052935
1738771809714956000,9.5809560546875,-0.04445405875444412,-0.00702746921768412,-0.004543837991694454
1738771809724947000,9.590947021484375,-0.035924130818247794,0.004620736869517713,-0.0026321477350313214
1738771809734939100,9.600939208984375,-0.0386164386421442,-0.009655333503242582,0.005268699933832977
1738771809744930000,9.610929931640625,-0.060464113312959665,-0.002739416634943336,0.008826691526221111
1738771809754922000,9.620921875,-0.03682195644080639,-0.0006194653389044105,-0.006561561889119912
1738771809764913200,9.6309130859375,-0.04953823015093803,-0.007364190358761698,-0.00665867243790999
1738771809774905000,9.640905029296874,-0.034277532655000685,-0.006648936495184898,0.0025344640807947144
1738771809784896300,9.650896240234376,-0.06136252345740795,-0.009476871663797647,-0.0007322278312640264
1738771809794887200,9.66088720703125,-0.05702420199215412,0.004061312888469547,0.002120131675840821
1738771809804878800,9.67087890625,-0.03936754927039146,0.006166048349067569,0.012025487567530944
1738771809814870000,9.6808701171875,-0.032333997371792794,-0.003436349390540272,-0.00937055032866774
1738771809824862000,9.690862060546875,-0.031136896541714667,-0.00043809915632009506,-0.00102730863756733
1738771809834852900,9.700852783203125,-0.03412906409502029,0.0005957008708268403,0.0031741936063044702
1738771809844846000,9.71084619140625,-0.03727320733964443,-0.01638014824623242,-0.010250634798558894
1738771809854837200,9.720837158203125,-0.026949381723999976,-0.011100509076565504,-0.008192224981007166
1738771809864829200,9.7308291015625,-0.056578796312212944,0.0033166685336269435,0.014596118940250017
1738771809874820000,9.740820068359374,-0.05702595555782318,0.002341302429139614,0.01144080813092878
1738771809884811300,9.750811279296874,-0.052986909300088876,0.0005925042667426168,-0.00865257706833072
1738771809894803000,9.760802978515626,-0.041166123124957085,0.0076742792212404305,-0.003659508888237178
1738771809904794000,9.770794189453126,-0.049395022287964815,-0.013648513058945535,0.006261976154346484
1738771809914786000,9.7807861328125,-0.03712532330155372,-0.016481033071130514,0.006083683278260287
1738771809924777000,9.79077685546875,-0.036377135282754894,-0.007806417700927704,0.008099667309748475
1738771809934769200,9.80076904296875,-0.03353343628942966,-0.0004970628019422292,-0.004429732925619464
1738771809944760000,9.810760009765625,-0.03308510800004005,-0.0016578502096235752,0.004518721816746983
1738771809954751000,9.8207509765625,-0.038921559068560596,-0.0028554990289732813,0.0050318863701191725
1738771809964743200,9.8307431640625,-0.04535656055212021,-0.006265526668168604,-0.0008586512395064346
1738771809974734000,9.840734130859374,-0.041914895665645595,-0.010030377360712736,-0.00017997109323041513
1738771809984726300,9.850726318359374,-0.047451487004756925,0.015866463103052227,-0.0032546224483521653
1738771809994717200,9.86071728515625,-0.03712824591100216,0.007152282907441258,-0.004179781319119501
1738771810004709000,9.870709228515626,-0.04461129514276981,-0.0038486930510960517,0.002482521547714714
1738771810014700300,9.8807001953125,-0.0467073906391859,-0.0025703984772786495,0.017554518937983085
1738771810024691200,9.890691162109375,-0.03069675155878067,0.005556227621342986,-0.007467504602763801
1738771810034683000,9.900682861328125,-0.03608195172846317,0.003344104529824108,0.014674849015555809
1738771810044674000,9.910674072265625,-0.0655599751472473,0.003768960612080991,-0.0037098668190068563
1738771810054666000,9.920666015625,-0.04131868333816528,-0.009416848572250456,-0.01594817971988814
1738771810064657200,9.9306572265625,-0.029198621955513954,0.001393828978575766,0.005979761679482181
1738771810074649000,9.940649169921874,-0.03802782509922981,0.0023187435374595225,0.0068756054075085555
1738771810084640000,9.950639892578126,-0.03219371211826801,-0.002201930491067469,-0.0020568503314163534
1738771810094631200,9.960631103515626,-0.03398994788527489,0.00009043649611994623,0.004258031903812662
1738771810104623000,9.970623046875,-0.04072480909824371,-0.0016377938022837041,-0.0022248501423513516
1738771810114614000,9.980614013671875,-0.03114975602328777,-0.009916815717332064,-0.006227649193059187
1738771810124606200,9.990606201171875,-0.0543453381717205,-0.004463317818101495,-0.012111540149478241
1738771810134597000,10.00059716796875,-0.0582365003913641,0.006209102039504796,-0.004331099423312116
1738771810144589300,10.01058935546875,-0.05748831237256526,-0.003536832356639206,-0.0005966941013815812
1738771810154580200,10.020580322265625,-0.04192483253777027,0.003126662386860698,0.0010993030114099384
1738771810164571100,10.030571044921874,-0.03833411456942558,-0.014362762275524436,0.0007232704899623058
1738771810174563000,10.04056298828125,-0.041328035688400266,0.006646634940244257,0.003936254886828828
1738771810184554000,10.050553955078126,-0.0411783980846405,-0.004747176260780543,-0.006641488407668658
1738771810194546000,10.0605458984375,-0.039383915883302686,-0.014396792409289627,-0.0048647953080595465
1738771810204537000,10.070537109375,-0.03728840490877628,-0.01831455037491396,-0.011961719882627949
1738771810214529000,10.080529052734375,-0.056740708875656125,0.00637614743579179,-0.005744733647478279
1738771810224520200,10.090520263671875,-0.05195230555534362,0.008775664591882377,-0.0028238846145803107
1738771810234511000,10.100510986328125,-0.04746434648633003,-0.0050982181881554425,-0.008192279779934324
1738771810244503000,10.1105029296875,-0.05419686961174011,-0.014734792192000894,0.0015028491608682088
1738771810254494200,10.120494140625,-0.038485505738854404,-0.009320566857233642,0.0009017734286026097
1738771810264486100,10.130486083984374,-0.03923369375765323,0.006086662969924509,-0.0032598283464321865
1738771810274477000,10.14047705078125,-0.05330021303296089,-0.0027467231585644185,-0.0023887811329448595
1738771810284469200,10.15046923828125,-0.04866086279451847,-0.002637344499956816,-0.0008236529913614503
1738771810294460200,10.160460205078126,-0.04102992952466011,0.006832933026272803,0.006060517031804193
1738771810304451000,10.170451171875,-0.03953472253084182,-0.007606109355855733,0.002762528082472272
1738771810314443000,10.180443115234375,-0.041481764945387835,-0.010678612136375158,0.009958362437272444
1738771810324434000,10.190433837890625,-0.052854222831130025,-0.013960885210055857,-0.005368730808782856
1738771810334426000,10.200426025390625,-0.043426469272375104,0.0027562216392718253,-0.011979241839586756
1738771810344417000,10.2104169921875,-0.03669277710318565,-0.005321268087998032,0.0055677422459120855
1738771810354409200,10.2204091796875,-0.045072482913732524,0.013968812788184732,0.016895475073938723
1738771810364400000,10.230400146484374,-0.03594517360627651,0.004268416300509125,-0.005631971155118662
1738771810374391000,10.24039111328125,-0.0395358915746212,0.0037786965548060832,0.001174304476380348
1738771810384383200,10.25038330078125,-0.04192950871288776,-0.012270192176755517,-0.002398852719098795
1738771810394374100,10.2603740234375,-0.03923778541088104,-0.00691345091657713,-0.011625889224116689
1738771810404366000,10.270365966796875,-0.036245617857575414,0.002546469612419605,0.007140704350790474
1738771810414357200,10.280357177734375,-0.03639467093944549,0.003698142131883651,-0.0017988661155104637
1738771810424349200,10.29034912109375,-0.045672786894440646,-0.0007404065711423755,0.005797004974121228
1738771810434340000,10.300340087890625,-0.03699439039826393,0.004995616330206394,0.008530126582307274
1738771810444331300,10.310331298828125,-0.0241249719530344,-0.00133026222307235,0.003906793613615445
1738771810454323000,10.320322998046874,-0.0350479325056076,0.008199545204360038,-0.013763061083015053
1738771810464313900,10.33031396484375,-0.04058277027904987,-0.003094331019837409,-0.007491419767891056
1738771810474306000,10.34030615234375,-0.05539689305126667,-0.0004035392995923757,-0.005891291094874031
1738771810484297000,10.350296875,-0.04746434648633003,0.0066974883446469895,0.007409330975008197
1738771810494289200,10.3602890625,-0.048213119027018546,0.005058123639784753,-0.005904604950884822
1738771810504280000,10.370280029296875,-0.05524550188183784,0.0070992558122612535,0.014398271980322896
1738771810514271000,10.38027099609375,-0.028010288953781125,0.004221691081952303,0.002877423166413791
1738771810524263200,10.39026318359375,-0.040131519380211825,-0.012983162751700729,-0.007259736753732432
1738771810534254000,10.400254150390625,-0.031602175965905185,-0.00654039808679372,0.006983579843607731
1738771810544246300,10.410246337890625,-0.03788753984570503,0.0033741708745248615,-0.010753679816715885
1738771810554237200,10.4202373046875,-0.047614568611979484,-0.015291658889781682,-0.0020818888745503497
1738771810564229000,10.43022900390625,-0.047615153133869166,-0.007937953392416238,0.007014723900542594
1738771810574220300,10.44022021484375,-0.05404840105175972,0.0005663834447972476,0.0035843042105785567
1738771810584211200,10.450211181640626,-0.06467208639681339,-0.002591404732689261,-0.006051219480496365
1738771810594203000,10.460202880859375,-0.03205167329907417,-0.0015272826325148344,0.006610979104973376
1738771810604194000,10.470194091796875,-0.04417231920361519,-0.0009023556672036647,-0.012586875176802277
1738771810614186000,10.48018603515625,-0.05569558373689651,-0.00025881533296778797,-0.017637948021292687
1738771810624177200,10.49017724609375,-0.042377252480387685,0.0007604081795550882,-0.006831097262213006
1738771810634169000,10.500169189453125,-0.0414788423359394,-0.017964056436810642,-0.006699764783412683
1738771810644160000,10.510159912109375,-0.03040565965771675,0.0013165076923556626,0.005997950356721412
1738771810654151200,10.520151123046874,-0.030705519387125967,-0.005377035129535943,-0.010592541288118809
1738771810664143000,10.53014306640625,-0.05195464364290237,-0.010729447274468838,0.00263568226583302
1738771810674134000,10.540134033203126,-0.05135726227164268,0.007122271361667662,0.0023173621478374115
1738771810684126200,10.550126220703126,-0.051956981730461115,-0.010308628046512603,-0.0013773893004283308
1738771810694117000,10.5601171875,-0.05001227740347385,0.0007926664813421666,-0.004244505701959133
1738771810704109300,10.570109375,-0.054500820994377135,-0.002242974887508899,0.004061682781227864
1738771810714100200,10.580100341796875,-0.05255728571116924,-0.0032198753619566557,0.00848749530026689
1738771810724091100,10.590091064453125,-0.05240706358551979,0.0054512694095261395,0.006544432657805736
1738771810734083000,10.6000830078125,-0.036545477586984634,0.00006095467330887914,-0.008100386545667424
1738771810744074000,10.610073974609374,-0.027868834656476972,-0.011659074541088194,-0.008852373956749215
1738771810754066000,10.62006591796875,-0.04358019852936268,-0.004337736943364143,0.008909798665833659
1738771810764057000,10.63005712890625,-0.046722588208317754,-0.004354213154129684,0.0023334798822877926
1738771810774049000,10.640049072265626,-0.048368601849675175,-0.011533676329441368,-0.009569228405656759
1738771810784040200,10.650040283203126,-0.05764730232656002,-0.009382325248140842,-0.0037568043834064154
1738771810794031000,10.660031005859375,-0.04208557605743408,-0.004541406289301812,-0.01902876762545202
1738771810804023000,10.67002294921875,-0.033407764083147044,-0.0023808124556206167,0.002138573798118159
1738771810814014200,10.68001416015625,-0.03804652979969978,0.004198638999927788,-0.0032553416842711156
1738771810824006100,10.690006103515625,-0.04552899450957775,0.0012386384168639778,0.003579459072102327
1738771810833997000,10.6999970703125,-0.033708208334445953,-0.005735913303494453,0.009854915762529708
1738771810843988700,10.70998876953125,-0.03415770566761493,0.004166599893849343,-0.004227575116755906
1738771810853980000,10.71997998046875,-0.05630348650217056,0.012377378878276795,0.008779676330008078
1738771810863970800,10.729970703125,-0.05794716205596923,-0.0007837525225244462,0.012070112160546704
1738771810873962800,10.739962646484376,-0.060789107483625406,-0.009851878988649695,-0.0014483150951913558
1738771810883954000,10.749953857421875,-0.050315059742331504,0.006798555832635611,-0.0011874790517846122
1738771810893945600,10.759945556640625,-0.014402034839987754,0.008777272027079015,-0.006784308111574501
1738771810903936500,10.7699365234375,-0.03490297107696533,-0.0010792283377610147,0.005676860609615687
1738771810913927700,10.779927734375,-0.03744797938466072,0.0016726459199562667,0.008177324239397422
1738771810923919600,10.789919677734375,-0.018445172750949857,0.006993439083918929,-0.005607147241116036
1738771810933910500,10.79991064453125,-0.052561961886286736,-0.00635568916965276,-0.012924948024749755
1738771810943902700,10.80990283203125,-0.05271218401193618,-0.0006357406202703714,-0.010283368024381343
1738771810953893600,10.8198935546875,-0.037599370554089545,0.008830737513676285,0.005534289784170687
1738771810963885800,10.8298857421875,-0.05181669647693634,0.005762746511492878,-0.004639822879189159
1738771810973876700,10.839876708984375,-0.03924655323922634,-0.005320482636708766,-0.0030486903633805923
1738771810983867600,10.84986767578125,-0.03999532577991485,-0.006495079374033957,0.00416691270439187
1738771810993859800,10.85985986328125,-0.026379472881555555,0.0014946590045467017,0.00026347552506485953
1738771811003850800,10.869850830078125,-0.036254385685920716,0.00414902770454064,-0.013199346802628133
1738771811013843000,10.879843017578125,-0.04523381095528602,0.0053735645308159285,-0.006433419164537917
1738771811023833900,10.889833740234375,-0.05481237116158008,-0.00559871505619958,0.004954660982021596
1738771811033825500,10.899825439453124,-0.03550912027657032,0.0023335757804103193,-0.0005735598209663294
1738771811043816700,10.909816650390624,-0.0440408017784357,-0.013872585872095078,0.000040733869187533855
1738771811053807600,10.9198076171875,-0.027432196804881095,-0.012925222019385545,-0.0039405999850947405
1738771811063799600,10.929799560546876,-0.036409283986687656,-0.0012798106774687765,-0.0062719175930484195
1738771811073790700,10.939790771484375,-0.02817746221423149,-0.008093746742326765,-0.005976715772447642
1738771811083782700,10.94978271484375,-0.04269230977892875,-0.0030102329329587518,-0.011058434916951227
1738771811093773800,10.95977392578125,-0.05257014519274234,-0.0006834704858250916,-0.0004502211356651969
1738771811103765800,10.969765869140625,-0.06783318077623844,0.005013407715223729,-0.0021323449867311863
1738771811113756700,10.979756591796875,-0.06139876381456852,0.004403038998227566,0.008753633139876182
1738771811123747800,10.989747802734374,-0.036409283986687656,-0.0015830131414346397,-0.0031140472171711734
1738771811133739800,10.99973974609375,-0.041347324910759924,-0.008914178013429044,0.0015939135613618417
1738771811143730700,11.009730712890626,-0.052120063337683674,0.0018106113522313534,0.001137959087942727
1738771811153723000,11.019722900390626,-0.04314122259020805,-0.0068701049651950594,-0.011639696270471903
1738771811163713800,11.0297138671875,-0.045535424250364304,-0.0003207015880383551,-0.010352394123002887
1738771811173705700,11.039705810546875,-0.04059679880440235,0.013135905627999454,-0.004975201446551364
1738771811183696600,11.049696533203125,-0.026231004321575165,-0.003948938555177301,-0.0032655890836496837
1738771811193687600,11.0596875,-0.05316577299833297,0.0013054383090697229,-0.0033313409463735294
1738771811203679700,11.0696796875,-0.062143444702029225,-0.014891096998564899,0.0033601743152132254
1738771811213670700,11.079670654296875,-0.04433832342028617,0.0022703926173970102,-0.007301315439713653
1738771811223662600,11.08966259765625,-0.04628244322538375,0.0029636721111834046,0.0028598897930118255
1738771811233653800,11.09965380859375,-0.043588966357707974,-0.014721293389610946,-0.0035357774772914125
1738771811243645700,11.109645751953124,-0.04927344173491001,0.007795713643822819,-0.006049201053346041
1738771811253636900,11.119636962890626,-0.03969721961617469,-0.005180288714729249,0.002846954962913878
1738771811263627800,11.129627685546875,-0.03969780413806438,-0.008902030917908995,0.006514544409618247
1738771811273619700,11.13961962890625,-0.037004327270388604,0.005618168675340712,-0.005760390157625079
1738771811283611000,11.14961083984375,-0.05601064103543758,-0.007588939025346189,-0.012233011104678735
1738771811293602800,11.159602783203125,-0.044191608425974846,-0.006266074657440186,-0.010188794209260959
1738771811303593700,11.16959375,-0.02354337267279625,-0.0058490730880759656,0.001004592198971659
1738771811313585000,11.1795849609375,-0.04344751206040382,0.0017354272241704165,-0.006962153463088907
1738771811323576600,11.18957666015625,-0.04404489343166351,-0.003991553854197263,-0.004270311430073343
1738771811333567700,11.199567626953124,-0.04898351887762546,-0.007389945854526013,0.005346642274560872
1738771811343559700,11.2095595703125,-0.05856091004014015,-0.0037524113360792397,-0.0042120738702360536
1738771811353550600,11.219550537109376,-0.04015490025579929,0.0005565744368359446,0.014440601868263911
1738771811363542800,11.229542724609376,-0.04928279408514499,-0.00020929536912590264,0.008543438155029434
1738771811373533700,11.23953369140625,-0.06005670155584812,0.009252488323394209,-0.008879013085213956
1738771811383524600,11.249524658203125,-0.05347264699041843,0.004028543130028993,-0.006098609136044979
1738771811393516800,11.259516845703125,-0.03431961823105812,0.00223974175080657,-0.004099220046331175
1738771811403507700,11.2695078125,-0.029532383954524993,0.003923128260485828,-0.005343552985042333
1738771811413500000,11.2795,-0.03641454468369484,-0.0007722630141302943,-0.005192547691392246
1738771811423490800,11.28949072265625,-0.03955693436264991,-0.000770856508333236,-0.011649957369582261
1738771811433482800,11.299482666015624,-0.03342120808660984,-0.005738233124744147,-0.007454804951394908
1738771811443474000,11.309473876953126,-0.05886135429143905,-0.01853126186551526,-0.004690868079836946
1738771811453464800,11.31946484375,-0.04300093733668327,0.003965104238688946,0.0012245162766776046
1738771811463456500,11.32945654296875,-0.050632455128431314,0.00099514851719141,-0.0022870081087690776
1738771811473447700,11.33944775390625,-0.04389759391546249,-0.0032427447808906435,-0.006948229969013482
1738771811483439600,11.349439697265625,-0.03222644534409046,0.0012773995246738194,-0.0036215606311801817
1738771811493430500,11.359430419921875,-0.03626666064560413,-0.00021163345668464897,0.0008192713604774325
1738771811503422700,11.369422607421875,-0.04314940589666366,0.004397376442421228,0.009179016661806963
1738771811513413600,11.37941357421875,-0.04374737178981304,-0.00026285218726843594,-0.0006142525909584946
1738771811523404800,11.38940478515625,-0.03970715648829937,0.001811068009957671,-0.003212527739140205
1738771811533396700,11.399396728515624,-0.0453916318655014,-0.007428104174137115,0.001594783494330477
1738771811543387600,11.4093876953125,-0.05496785398423672,0.0019753551935777066,0.0007968289165175519
1738771811553379800,11.4193798828125,-0.045989597758650774,0.017244126398116347,-0.002816952550294809
1738771811563370800,11.429370849609375,-0.0338671982884407,0.014746080770995467,-0.002004320993158035
1738771811573361700,11.439361572265625,-0.0474830511868,0.0013649682102724909,0.005681486552383284
1738771811583353900,11.449353759765625,-0.04897884270250797,0.0004332403181120753,0.0001816812764154747
1738771811593344800,11.4593447265625,-0.04763093522489071,0.0035399924281053242,-0.006838570465904194
1738771811603336700,11.469336669921875,-0.04628302774727344,-0.010002155913226306,-0.004353509901231154
1738771811613327600,11.47932763671875,-0.029672084686160085,0.0008340214050374925,0.0026210189862409606
1738771811623319600,11.489319580078124,-0.033710546422004696,-0.0049315198517404495,-0.0074012138839229
1738771811633310700,11.499310791015626,-0.04597849184274673,-0.0032675504285842177,0.004767091104225255
1738771811643301600,11.509301513671875,-0.026525603353977203,0.004082099948171526,0.00042502961219288406
1738771811653293600,11.51929345703125,-0.04732698384225368,0.00042732203397899865,0.0025477414041873998
1738771811663284700,11.52928466796875,-0.0528641597032547,0.00463083813842386,0.0022434520948329006
1738771811673276700,11.539276611328125,-0.0589987169355154,0.0002810454310849309,0.00958465887022903
1738771811683267800,11.549267822265625,-0.06663023472726344,-0.010524681949988008,0.005308662051463034
1738771811693259800,11.559259765625,-0.06917407399117946,0.002186111867427826,-0.001075033936544787
1738771811703250700,11.569250732421875,-0.035656419792771336,-0.008819174940045922,-0.0032546155984862707
1738771811713241900,11.579241943359374,-0.010965630650520324,-0.00658920566458255,0.00585303231056314
1738771811723233800,11.58923388671875,-0.019496143108606336,-0.0017336736585013568,-0.0003875585624598898
1738771811733224700,11.599224609375,-0.0135112234801054,-0.002878733774088323,0.006666889993695076
1738771811743216600,11.609216552734376,-0.02473404376208782,-0.007631006335094571,-0.003350057063286658
1738771811753207800,11.619207763671875,-0.05017360544502735,-0.01564578782338649,-0.0016481622159597463
1738771811763199700,11.62919970703125,-0.04927577982246875,0.0057607737501151855,-0.004678145595581736
1738771811773190700,11.639190673828125,-0.07845452803373336,-0.005217570251505822,-0.0062863822265295305
1738771811783181600,11.649181640625,-0.07740589576363563,-0.01021437389180064,0.015085961983539163
1738771811793173800,11.659173828125,-0.040893151402473446,0.003933393926173448,-0.001225080248969607
1738771811803164700,11.66916455078125,-0.022038228806853292,0.0009104659084230661,-0.006324974370980635
1738771811813156900,11.679156982421874,-0.026378303837776184,-0.006553239302057773,-0.010736450120701919
1738771811823147800,11.689147705078126,-0.026080197674036024,-0.0005122969036921858,-0.004350071268551982
1738771811833138700,11.699138671875,-0.04628127418160438,0.008629333190061152,-0.007588037126336712
1738771811843130400,11.70913037109375,-0.049423663860559464,-0.004523742768447846,-0.006971049155597575
1738771811853121300,11.719121337890625,-0.039250644892454147,-0.0027494448386132715,0.008011420487426221
1738771811863113200,11.72911328125,-0.033417116433382035,-0.006254713013209403,0.007072835879505146
1738771811873104400,11.7391044921875,-0.039402620583772655,0.005107935864571481,0.004594574948376976
1738771811883096300,11.749096435546875,-0.049129064828157425,-0.0035623138577677307,0.003833125589205883
1738771811893087500,11.75908740234375,-0.039403205105662344,0.006621244770660996,-0.0004869934990769252
1738771811903078400,11.769078369140624,-0.05676116714179515,0.0013789236703887582,-0.005167132405634038
