time,seconds_elapsed,z,y,x
1738771800168119600,0.03411962890625,0.0018301242962479591,0.0023497070651501417,-0.001175252953544259
1738771800178110500,0.0441103515625,0.0027593011036515236,0.00336117553524673,0.0005318332696333528
1738771800188102400,0.054102294921875,0.0016969662392511964,0.005803028121590614,0.0005161206354387105
1738771800198093300,0.06409326171875,0.000609863898716867,0.0052232579328119755,0.0011044129496440291
1738771800208085500,0.07408544921875,0.001901230658404529,0.0037947380915284157,-0.00017177389236167073
1738771800218076400,0.084076416015625,0.0008157262345775962,0.0025656893849372864,0.001228782464750111
1738771800228068600,0.094068603515625,0.0020743361674249172,0.0043920851312577724,-0.0001174454009742476
1738771800238059500,0.1040595703125,0.0008559399866499007,0.005550294183194637,0.00026498452643863857
1738771800248051500,0.114051513671875,0.000049801110435510054,0.005563343409448862,0.000028762138754245825
1738771800258042600,0.124042724609375,0.0009632653673179448,0.003245328087359667,-0.0006269080913625658
1738771800268034600,0.13403466796875,-0.00007137271313695237,0.0024261397775262594,-0.0006138586322776973
1738771800278025500,0.144025390625,0.002213353058323264,0.00446905056014657,-0.00009906959166983142
1738771800288017400,0.154017333984375,0.0017614146927371621,0.0032812808640301228,0.0003201119543518871
1738771800298008300,0.16400830078125,0.001800030586309731,0.0025718146935105324,-0.00022450447431765497
1738771800307999500,0.17399951171875,0.001145159243606031,0.003988882526755333,-0.0007427555974572897
1738771800317991400,0.183991455078125,0.0017920411191880703,0.003525226376950741,-0.0001227717293659225
1738771800327982300,0.193982421875,0.0012010856298729777,0.0033388049341738224,-0.0005488775204867125
1738771800337974500,0.203974609375,0.0009672601008787751,0.00264824740588665,-0.000330231967382133
1738771800347965400,0.21396533203125,0.003058107802644372,0.0038389465771615505,0.0004977448261342943
1738771800357957400,0.223957275390625,0.0017467673169448972,0.002513757674023509,-0.0008085357258096337
1738771800367948500,0.233948486328125,0.000895621080417186,0.005093029234558344,0.0016623451374471188
1738771800377940500,0.2439404296875,0.0008349010022357106,0.004203533288091421,-0.0011970909545198083
1738771800387931600,0.253931640625,0.0015795208746567369,0.0024077638518065214,-0.00002157160452043172
1738771800397923600,0.263923583984375,0.0013187973527237773,0.003608316881582141,-0.00027057717670686543
1738771800407914500,0.27391455078125,0.000707868195604533,0.004107393324375153,0.001044758129864931
1738771800417906400,0.283906494140625,0.0025361282750964165,0.004462925251573324,0.00010945591930067167
1738771800427897300,0.2938974609375,0.0011054781498387456,0.0036426717415452003,-0.0008852347382344306
1738771800437889500,0.3038896484375,0.000365918327588588,0.003257578704506159,0.002522812457755208
1738771800447880400,0.31388037109375,0.0013883059145882726,0.005327919963747263,0.001270061475224793
1738771800457872400,0.323872314453125,0.0011965582380071282,0.0038637141697108746,-0.0001608549355296418
1738771800467863600,0.333863525390625,0.0004966795677319169,0.00452737370505929,-0.00027856664382852614
1738771800477855500,0.34385546875,-0.00005725796290789731,0.00427117757499218,-0.0006559365428984165
1738771800487846400,0.353846435546875,0.0021321268286556005,0.0036722328513860703,0.0012980246683582664
1738771800497838600,0.363838623046875,0.0011267834343016148,0.0036064526066184044,-0.0015931029338389635
1738771800507829500,0.37382958984375,0.0007006776868365705,0.004737230949103832,0.001050084363669157
1738771800517821400,0.383821533203125,0.0026735474821180105,0.003855191869661212,0.0010109359864145517
1738771800527812600,0.3938125,0.0005933523061685264,0.0032988577149808407,-0.0007544735562987626
1738771800537804300,0.40380419921875,0.002734533743932843,0.003719637170433998,-0.0017323862994089723
1738771800547795500,0.41379541015625,0.0018690064316615462,0.0041183121502399445,0.0006647250265814364
1738771800557786400,0.423786376953125,0.0022178804501891136,0.0046789078041911125,0.0006194512825459242
1738771800567778600,0.433778564453125,0.0005129248020239174,0.004197674337774515,0.0015819176333025098
1738771800577769500,0.44376953125,0.00023142869758885354,0.0024258734192699194,-0.0000804274677648209
1738771800587761400,0.453761474609375,0.0027944548055529594,0.004947354551404715,0.0010373012628406286
1738771800597752600,0.463752685546875,0.0007294398383237422,0.003611779073253274,0.0017627463676035404
1738771800607744500,0.47374462890625,0.000931041082367301,0.00452817277982831,-0.0005142564186826348
1738771800617735400,0.4837353515625,0.00020506340661086142,0.004344148561358452,0.0003890878288075328
1738771800627727600,0.4937275390625,0.0016442356863990426,0.004798483569175005,0.0004266384057700634
1738771800637718500,0.503718505859375,0.0025563682429492474,0.00379021093249321,-0.0012040151050314307
1738771800647710500,0.51371044921875,0.0012373046483844519,0.0038000645581632853,0.0003129214164800942
1738771800657701400,0.523701416015625,0.001422128058038652,0.003769704606384039,0.0006617955514229834
1738771800667693300,0.533693359375,0.00213585514575243,0.003944940399378538,0.0012450277572497725
1738771800677684500,0.5436845703125,0.0013688647886738181,0.003465837799012661,0.0016277240356430411
1738771800687676400,0.553676513671875,0.00361817074008286,0.004316451493650675,0.00130894361063838
1738771800697667300,0.563667236328125,0.0010040117194876075,0.0027204190846532583,0.0006703176186420023
1738771800707659500,0.573659423828125,0.0017006946727633476,0.004400340840220451,-0.0006263754912652075
1738771800717650400,0.583650390625,0.0004655205411836505,0.003954794257879257,0.0007486145477741957
1738771800727642600,0.593642578125,0.0015552861150354147,0.003997937310487032,-0.0006625944515690207
1738771800737633500,0.603633544921875,0.0019646140281111,0.004065315239131451,0.00030067088664509356
1738771800747625500,0.61362548828125,0.0022205437999218702,0.0016591493040323257,-0.0004676510870922357
1738771800757616600,0.62361669921875,0.0011675298446789384,0.00347542529925704,0.0016319850692525506
1738771800767608300,0.6336083984375,0.001990446588024497,0.002522812457755208,0.0013960290234535933
1738771800777599500,0.643599609375,0.001731320982798934,0.003578755771741271,0.0019947076216340065
1738771800787591400,0.65359130859375,0.0021028320770710707,0.0034474621061235666,0.0008474178612232208
1738771800797582300,0.663582275390625,0.0018847191240638494,0.0036493295338004827,-0.0010772485984489322
1738771800807574500,0.673574462890625,0.002698581200093031,0.0027973842807114124,0.000996554852463305
1738771800817565400,0.6835654296875,0.0004916195175610483,0.0036903421860188246,0.0005715143634006381
1738771800827558000,0.693557861328125,0.0019976370967924595,0.002570216776803136,-0.00022530343267135322
1738771800837548800,0.703548828125,-0.0001483380765421316,0.004507932811975479,0.0006570018595084548
1738771800847539700,0.713539794921875,0.001746501075103879,0.0038360171020030975,-0.0006399576086550951
1738771800857532000,0.723531982421875,0.0009267800487577915,0.003742273896932602,0.0005523395957425237
1738771800867522800,0.733522705078125,0.0012117383303120732,0.0027630296535789967,0.0012831110507249832
1738771800877514800,0.7435146484375,-0.00017789915727917105,0.0025129588320851326,0.00012383698776829988
1738771800887505700,0.753505615234375,0.0010514160385355353,0.0031907332595437765,-0.0010373012628406286
1738771800897497600,0.76349755859375,-0.00007936220208648592,0.0030447919853031635,0.0007592672482132912
1738771800907488800,0.77348876953125,0.0009068063227459788,0.0016919062472879887,0.00005166532355360687
1738771800917480700,0.783480712890625,0.0005416869535110891,0.003343332326039672,0.0008066715090535581
1738771800927471600,0.7934716796875,0.0015076154377311468,0.0030455910600721836,-0.000624777574557811
1738771800937463800,0.8034638671875,0.0018002968281507492,0.003977164626121521,-0.00017896443023346364
1738771800947454700,0.813454833984375,0.0016767261549830437,0.005013134330511093,0.0011659319279715419
1738771800957447000,0.823447021484375,0.0008458199445158243,0.003412840887904167,0.0005193164106458426
1738771800967437800,0.833437744140625,0.0014586133183911443,0.003937483765184879,0.000480434246128425
1738771800977429500,0.843429443359375,-0.00005219795639277436,0.003203782718628645,0.001344363670796156
1738771800987420700,0.853420654296875,0.0001728391507640481,0.0035092474427074194,0.000045273736759554595
1738771800997412600,0.86341259765625,0.0014002900570631027,0.0041060615330934525,-0.00041784998029470444
1738771801007403500,0.873403564453125,0.0007235808880068362,0.003082342678681016,0.0008364989189431071
1738771801017395700,0.883395751953125,0.0008633967954665422,0.0038155107758939266,0.00002370213405811228
1738771801027386600,0.89338671875,0.002234392100945115,0.002692722249776125,0.0014982944121584296
1738771801037378800,0.90337890625,0.001041562296450138,0.0041284323669970036,0.001874066423624754
1738771801047369700,0.91336962890625,0.0008362325606867671,0.004538292996585369,-0.0009776464430615306
1738771801057362000,0.92336181640625,0.0020655477419495583,0.002270344877615571,0.0004889564006589353
1738771801067352800,0.933352783203125,-0.00012197277828818187,0.004683967679738998,-0.00026258768048137426
1738771801077344800,0.9433447265625,0.0009840379934757948,0.0035297537688165903,0.000006125270374468528
1738771801087336000,0.9533359375,0.0011709919199347496,0.00475320965051651,0.001008539111353457
1738771801097327600,0.96332763671875,0.0015361113473773003,0.003537476761266589,0.000036751622246811166
1738771801107318500,0.973318603515625,0.000862864195369184,0.003460245206952095,0.00039468047907575965
1738771801117310700,0.983310791015625,-0.0005203816690482199,0.0034996599424630404,-0.00019707392493728548
1738771801127301600,0.993301513671875,-0.0012743226252496243,0.003865045728161931,-0.00035260253935121
1738771801137293800,1.0032939453125,0.001948634977452457,0.0029579729307442904,0.00022556974727194756
1738771801147284700,1.01328466796875,0.00119575927965343,0.004508199170231819,-0.00010439591278554872
1738771801157275600,1.023275634765625,0.001047687605023384,0.005271194502711296,-0.0011267834343016148
1738771801167267800,1.033267822265625,-0.0004756405542138964,0.004580903332680464,0.0009723200928419828
1738771801177258800,1.0432587890625,0.0012399677652865648,0.0034117756877094507,0.0005462143453769386
1738771801187250700,1.053250732421875,0.0006207828409969807,0.0035537220537662506,-0.00028628981090150774
1738771801197241900,1.063241943359375,-0.0004040015337523073,0.0024668860714882612,-0.0008506136364303529
1738771801207233800,1.07323388671875,0.0007470166892744601,0.0031009847298264503,-0.0005486111622303724
1738771801217225000,1.083224853515625,0.0019180085510015488,0.0030309436842799187,-0.00027324032271280885
1738771801227216600,1.093216552734375,-0.0007576693315058947,0.0037886130157858133,-0.00039228363311849535
1738771801237207600,1.10320751953125,0.0013598100049421191,0.004572647623717785,-0.00010466222738614306
1738771801247199700,1.11319970703125,0.0006026733317412436,0.00580648984760046,0.0009824400767683983
1738771801257190700,1.123190673828125,0.0016743293963372707,0.005167864263057709,0.00016165387933142483
1738771801267182800,1.133182861328125,0.0010775149567052722,0.00390259618870914,-0.0010269149206578732
1738771801277173800,1.143173828125,-0.0005510080372914672,0.0033577135764062405,0.0013619405217468739
1738771801287165700,1.153165771484375,0.0016849819803610444,0.002659166231751442,0.000477504770969972
1738771801297156900,1.163156982421875,0.00018908442871179432,0.0030887341126799583,0.000245543458731845
1738771801307148800,1.173148681640625,0.0009246495319530368,0.003221359569579363,0.0002234392159152776
1738771801317139700,1.1831396484375,-0.0006101301987655461,0.0036418726667761803,-0.0013084110105410218
1738771801327131600,1.193131591796875,0.0019443739438429475,0.004077832214534283,0.0005811017472296953
1738771801337122600,1.20312255859375,0.002570216776803136,0.003096457337960601,0.0018141453620046377
1738771801347114800,1.21311474609375,0.0007265103631652892,0.002727875951677561,-0.0005171858938410878
1738771801357105700,1.223105712890625,0.0009853695519268513,0.003976631909608841,0.00007403588097076863
1738771801367097600,1.23309765625,0.0005944175645709038,0.003343598684296012,-0.0004290352517273277
1738771801377088800,1.2430888671875,0.00010679275874281302,0.003939347807317972,0.0012506204657256603
1738771801387080700,1.253080810546875,0.0010436928132548928,0.0033457293175160885,0.00045566685730591416
1738771801397072000,1.26307177734375,0.0015166702214628458,0.003954794257879257,0.00025060345069505274
1738771801407062800,1.273062744140625,0.00004873584839515388,0.0031792817171663046,0.0006258428329601884
1738771801417054700,1.2830546875,0.0038477350026369095,0.003704457078129053,0.00046845004544593394
1738771801427046000,1.2930458984375,0.001829591696150601,0.003207511268556118,0.00021971078240312636
1738771801437037800,1.303037841796875,0.0007864314829930663,0.004047472029924393,-0.0011488876771181822
1738771801447028700,1.31302880859375,0.0007691209320910275,0.004853610880672932,-0.0004218447138555348
1738771801457020700,1.323020751953125,0.002100435085594654,0.003269562730565667,0.0003802994033321738
1738771801467011600,1.333011474609375,0.0026852653827518225,0.0025590313598513603,-0.0005568669876083732
1738771801477003800,1.343003662109375,0.000006391586794052273,0.002238120650872588,0.0009992180857807398
1738771801486994700,1.35299462890625,-0.0010210559703409672,0.0030948594212532043,-0.0014807175612077117
1738771801496986600,1.362986572265625,0.00041731735109351575,0.003916444722563028,0.00046072687837295234
1738771801506977800,1.372977783203125,0.001216798322275281,0.004907939583063126,0.0005374259199015796
1738771801516969700,1.3829697265625,0.002389654517173767,0.005318598821759224,0.0008314388687722385
1738771801526960600,1.392960693359375,0.0011667308863252401,0.0037358824629336596,0.0006982808117754757
1738771801536952800,1.402952880859375,0.0005736448802053928,0.004197940696030855,0.0010181264951825142
1738771801546943700,1.41294384765625,-0.000854075769893825,0.002418416552245617,-0.000404534162953496
1738771801556935700,1.422935791015625,0.0008367652189917862,0.0030775489285588264,0.0008287757518701255
1738771801566926600,1.432926513671875,0.0022000374738126993,0.002907639369368553,-0.000571248063351959
1738771801576918800,1.442918701171875,0.0023089605383574963,0.004808603785932064,-0.0010934938909485936
1738771801586909700,1.45290966796875,0.002377670258283615,0.0031899344176054,0.00004021373388241045
1738771801596901600,1.462901611328125,0.0007382282637991011,0.002410160843282938,-0.00006657902849838138
1738771801606892800,1.472892822265625,0.0022927154786884785,0.00253426400013268,0.00005699164830730297
1738771801616884700,1.482884765625,0.0032711606472730637,0.004004328977316618,0.0008394283941015601
1738771801626875600,1.492875732421875,0.0018080200534313917,0.0032527849543839693,0.0005246427026577294
1738771801636866800,1.50286669921875,0.0010932276491075754,0.001838912721723318,-0.000070307454734575
1738771801646858800,1.512858642578125,0.0015195996966212988,0.0032495891209691763,0.0013233247445896268
1738771801656849700,1.522849609375,0.0012799152173101902,0.003293264890089631,-0.0002884203568100929
1738771801666841900,1.532841796875,0.0013877731980755925,0.0038072550669312477,0.0000500674286740832
1738771801676832800,1.542832763671875,0.0008223841432482004,0.00464721629396081,0.00027537086862139404
1738771801686824700,1.55282470703125,0.0009020126308314502,0.003322559641674161,-0.0017182715237140656
1738771801696815600,1.562815673828125,0.0013134710025042295,0.004744953941553831,-0.0005962817813269794
1738771801706807600,1.5728076171875,0.00119575927965343,0.00424321461468935,0.00047883635852485895
1738771801716798700,1.582798828125,0.002237055217847228,0.004346811678260565,0.0009259810904040933
1738771801726790700,1.592790771484375,0.0008615325787104666,0.0052381716668605804,-0.00008202536264434457
1738771801736781800,1.60278173828125,0.001377919572405517,0.0032836776226758957,-0.0002641855680849403
1738771801746773800,1.612773681640625,0.0017787253018468618,0.0035510589368641376,0.0006732470938004553
1738771801756764700,1.6227646484375,0.001668736687861383,0.003916711080819368,0.0007379619055427611
1738771801766756900,1.6327568359375,0.001790975802578032,0.003859453136101365,-0.00004793690095539205
1738771801776747800,1.642747802734375,0.0006748450105078518,0.002573412610217929,0.0012903015594929457
1738771801786739700,1.65273974609375,0.00035499935620464385,0.0031100395135581493,0.0017627463676035404
1738771801796731000,1.66273095703125,0.001264202524907887,0.004375307355076075,0.00007616640505148098
1738771801806722600,1.67272265625,0.0018128136871382594,0.003228283952921629,0.001668736687861383
1738771801816713700,1.682713623046875,0.0024290692526847124,0.00421205535531044,0.0014644722687080503
1738771801826704600,1.69270458984375,0.002316950121894479,0.004884770140051842,0.0020719394087791443
1738771801836696800,1.70269677734375,0.0022628880105912685,0.00466505903750658,-0.00037284253630787134
1738771801846687700,1.712687744140625,0.0029348034877330065,0.003867708845064044,0.0014383733505383134
1738771801856680000,1.722679931640625,0.0016474314033985138,0.003352387109771371,-0.0012724583502858877
1738771801866670800,1.7326708984375,0.0009715211344882846,0.0037907434161752462,0.000014913702216290403
1738771801876663000,1.7426630859375,0.0003741741238627583,0.0038392129354178905,0.00005832322858623229
1738771801886654000,1.752654052734375,0.0004290352517273277,0.00458729499951005,0.0005302353529259562
1738771801896646000,1.76264599609375,-0.0005387574783526361,0.003940679598599672,0.0008412926108576357
1738771801906637000,1.772636962890625,0.0014535533264279366,0.00324852392077446,0.0008918926469050348
1738771801916628700,1.782628662109375,0.0018975022248923779,0.0035515916533768177,0.0007843009079806507
1738771801926619600,1.79261962890625,-0.00004926848123432137,0.003937483765184879,0.0007736482657492161
1738771801936611800,1.80261181640625,0.0020271982066333294,0.004463724326342344,0.0008111988427117467
1738771801946602800,1.812602783203125,0.001175519311800599,0.0044115264900028706,0.002129996195435524
1738771801956595000,1.822594970703125,0.0007555388147011399,0.0025782061275094748,-0.00025513084256090224
1738771801966585900,1.8325859375,0.0018759306985884905,0.003376355627551675,0.0006910903030075133
1738771801976577800,1.842577880859375,0.001588575541973114,0.004369448404759169,0.000669252360239625
1738771801986569000,1.85256884765625,0.0020700751338154078,0.004493019077926874,-0.001680720946751535
1738771801996560000,1.862559814453125,0.0011965582380071282,0.0034442662727087736,0.0006689860601909459
1738771802006551800,1.8725517578125,0.00148151651956141,0.004207261838018894,-0.0018815232906490564
1738771802016543000,1.88254296875,0.0016892430139705539,0.004627508576959372,0.0006093312404118478
1738771802026535000,1.892534912109375,0.002037584548816085,0.0043739755637943745,-0.0007712514488957822
1738771802036526000,1.902526123046875,0.003406449221074581,0.0035712989047169685,0.002418949268758297
1738771802046517800,1.912517822265625,0.0018010957865044475,0.0031342741567641497,0.0014703312190249562
1738771802056508700,1.9225087890625,0.0009523464250378311,0.002793123247101903,0.0006375607335940003
1738771802066500900,1.9325009765625,0.0019094864837825298,0.00421471893787384,0.00014940333494450897
1738771802076491800,1.94249169921875,0.0020751350093632936,0.0037473340053111315,-0.0001174454009742476
1738771802086484000,1.95248388671875,0.0008114652009680867,0.002305764937773347,0.0024053670931607485
1738771802096475000,1.962474853515625,0.0004809668753296137,0.0037766287568956614,0.000437291048001498
1738771802106466800,1.972466796875,0.0016237293602898717,0.0037294907961040735,-0.0003283677506260574
1738771802116458000,1.9824580078125,0.003150519449263811,0.003564108395949006,0.0007494135061278939
1738771802126450000,1.992449951171875,0.0008870989549905062,0.002812031889334321,-0.0009243832319043577
1738771802136440800,2.00244091796875,0.0008335694437846541,0.003965180367231369,0.0013800500892102718
1738771802146432800,2.012432861328125,0.0006937534781172872,0.0049252500757575035,0.0008146609761752188
1738771802156423700,2.022423583984375,0.0018413095967844129,0.002507632365450263,0.0006585997180081904
1738771802166416000,2.032415771484375,0.0020069582387804985,0.0023731428664177656,0.0018442390719428658
1738771802176406800,2.04240673828125,-0.00012969593808520585,0.0038543930277228355,-0.0004111920716241002
1738771802186398700,2.052398681640625,0.0017294568242505193,0.003856257302686572,-0.0016468988033011556
1738771802196390000,2.062389892578125,0.0015518239233642817,0.003482881933450699,0.000185888638952747
1738771802206380800,2.072380859375,0.0012146678054705262,0.003923369105905294,0.0009648632840253413
1738771802216373000,2.082373046875,0.0013438310706987977,0.003245061729103327,0.0006974819116294384
1738771802226364000,2.092364013671875,0.00011930961773032323,0.0038485340774059296,0.00020053602929692715
1738771802236355800,2.10235595703125,0.0019267969764769077,0.003852528752759099,-0.0012689962750300765
1738771802246347000,2.112346923828125,-0.00008442220860160887,0.003287672298029065,-0.0011134676169604063
1738771802256339000,2.1223388671875,0.0017038905061781406,0.004589691758155823,-0.00032623723382130265
1738771802266329900,2.132329833984375,0.0006956176948733628,0.003629622282460332,-0.0009717874927446246
1738771802276321800,2.14232177734375,0.002171541564166546,0.0025662221014499664,0.0016375777777284384
1738771802286312700,2.152312744140625,0.002311357529833913,0.0035175031516700983,-0.0003765709698200226
1738771802296305000,2.162304931640625,0.0013915016315877438,0.004175570327788591,0.001145425601862371
1738771802306295800,2.1722958984375,0.0014825817197561264,0.004671450704336166,-0.0002492718631401658
1738771802316287700,2.182287841796875,0.0008852347382344306,0.0041396175511181355,0.00003941478280466981
1738771802326279000,2.19227880859375,0.0007403587806038558,0.002621083054691553,0.0009773800848051906
1738771802336270800,2.202270751953125,0.002680471632629633,0.002290052128955722,-0.000892691605258733
1738771802346261800,2.21226171875,0.0004370247188489884,0.004591289907693863,-0.0002759034978225827
1738771802356254000,2.22225390625,0.0013973605819046497,0.0043502734042704105,-0.0004348942020442337
1738771802366244900,2.232244873046875,0.001880191732198,0.003994475118815899,0.0009739180095493793
1738771802376236800,2.24223681640625,0.0016761935548856854,0.003081543603911996,-0.0003712446487043053
1738771802386228000,2.25222802734375,0.0018634138396009803,0.0018274611793458462,0.0004822984628845006
1738771802396219000,2.262218994140625,0.0019180085510015488,0.00418382603675127,0.0016282566357403994
1738771802406210800,2.2722109375,0.00047883635852485895,0.004563060123473406,0.0002490055630914867
1738771802416201700,2.28220166015625,0.001335575245320797,0.0038927425630390644,0.0008290420519188046
1738771802426194000,2.29219384765625,0.001998702296987176,0.003213370218873024,-0.0009800433181226254
1738771802436184800,2.302184814453125,0.002916427794843912,0.0035867453552782536,0.000014913702216290403
1738771802446176800,2.3121767578125,0.0013278521364554763,0.004225637763738632,0.000746750389225781
1738771802456168000,2.32216796875,0.00022210762836039066,0.004180363845080137,0.00038269624928943813
1738771802466159900,2.332159912109375,0.0026871294248849154,0.004049336537718773,0.001767273643054068
1738771802476150800,2.34215087890625,0.0008468852029182017,0.003996073268353939,-0.0011954930378124118
1738771802486143000,2.35214306640625,0.0002508697798475623,0.004415787290781736,0.0004852279380429536
1738771802496134000,2.3621337890625,0.0005419532535597682,0.0041553303599357605,0.0009422263829037547
1738771802506125800,2.372125732421875,-0.000835966260638088,0.004578240215778351,-0.0006178533658385277
1738771802516116700,2.38211669921875,0.0014892396284267306,0.004166249185800552,-0.000028495824153651483
1738771802526108700,2.392108642578125,0.00025832661776803434,0.0047119311057031155,0.0015630092239007354
1738771802536099800,2.402099853515625,-0.00008149272616719827,0.005212072748690844,0.0018570221727713943
1738771802546091800,2.412091796875,0.0010285128373652697,0.002926813904196024,-0.00044075315236113966
1738771802556083000,2.4220830078125,0.0011494202772155404,0.0036586506757885218,0.0010165285784751177
1738771802566075000,2.432074951171875,0.0015062838792800903,0.0036972665693610907,0.0000045273736759554595
1738771802576065800,2.442065673828125,0.0009185242815874517,0.004137753508985043,-0.0009009473724290729
1738771802586057000,2.452056884765625,0.0007475492893718183,0.002171541564166546,0.002662628423422575
1738771802596049000,2.462048828125,0.0011323761427775025,0.0031909996178001165,-0.00040293627534992993
1738771802606039800,2.472039794921875,0.0014034858904778957,0.003969974350184202,0.0020098877139389515
1738771802616032000,2.482031982421875,0.0014325142838060856,0.003602191573008895,0.0005600627628155053
1738771802626023000,2.49202294921875,0.0006745787104591727,0.005319664254784584,-0.0006263754912652075
1738771802636014800,2.502014892578125,0.0000798948312876746,0.0028016455471515656,0.0011281149927526712
1738771802646005800,2.512005859375,0.002261023735627532,0.004175836686044931,-0.0008572715451009572
1738771802655997700,2.521997802734375,-0.0007360977469943464,0.0043625240214169025,0.0003653856983873993
1738771802665988900,2.53198876953125,0.0014149374328553677,0.0037529265973716974,-0.0008615325787104666
1738771802675980800,2.541980712890625,0.00105328019708395,0.0031015174463391304,0.001537709147669375
1738771802685971700,2.5519716796875,0.001671666163019836,0.004069043789058924,-0.0019068233668804169
1738771802695964000,2.5619638671875,0.000990429543890059,0.003297259798273444,-0.00013262542779557407
1738771802705954800,2.571954833984375,0.0008855010382831097,0.003865045728161931,0.0002759034978225827
1738771802715947000,2.581947021484375,0.001412806916050613,0.003861050819978118,0.0018578211311250925
1738771802725938000,2.59193798828125,0.0016881778137758374,0.0024972460232675076,0.00030120351584628224
1738771802735929900,2.601929931640625,0.0002711098059080541,0.003212837502360344,0.0021022993605583906
1738771802745921000,2.611921142578125,0.0009526127250865102,0.004311125259846449,0.0016508935950696468
1738771802755912700,2.62191259765625,0.0009531453251838684,0.003486610483378172,-0.0006886934279464185
1738771802765904000,2.63190380859375,-0.0002372876479057595,0.004434429574757814,-0.0007038734620437026
1738771802775895800,2.641895751953125,0.0005020058597438037,0.003441869281232357,0.0006617955514229834
1738771802785886700,2.65188671875,0.0012828446924686432,0.0033015208318829536,0.0001496696495451033
1738771802795879000,2.66187890625,0.002520149340853095,0.004473844077438116,0.00016165387933142483
1738771802805869800,2.671869873046875,0.0006910903030075133,0.002373675350099802,0.00012836436508223414
1738771802815860700,2.68186083984375,0.0019225359428673983,0.0046445527113974094,-0.00033662354690022767
1738771802825853000,2.69185302734375,0.0031220237724483013,0.004063451196998358,-0.00012916330888401717
1738771802835843300,2.70184326171875,0.0013662016717717052,0.0049617355689406395,0.0008341020438820124
1738771802845835500,2.71183544921875,0.0028913940768688917,0.005209675524383783,-0.00039068571641109884
1738771802855826400,2.721826416015625,0.0020538298413157463,0.0026458504144102335,0.00008175904804375023
1738771802865818400,2.731818359375,0.0019201391842216253,0.003100185887888074,0.00030599720776081085
1738771802875809500,2.7418095703125,0.0015984292840585113,0.003736681304872036,0.00017710021347738802
1738771802885801200,2.75180126953125,0.0001978728687390685,0.003144660498946905,0.00006258428766159341
1738771802895792000,2.761792236328125,0.0008042746339924634,0.0046663908287882805,0.001853293739259243
1738771802905784300,2.771784423828125,0.0013353090034797788,0.0029025792609900236,-0.0008183894096873701
1738771802915775200,2.781775146484375,0.0006831008358858526,0.0024927188642323017,0.0000953411654336378
1738771802925767400,2.791767333984375,0.0019520970527082682,0.0044115264900028706,0.0011387676931917667
1738771802935758300,2.80175830078125,0.0005203816690482199,0.005112203769385815,0.0009243832319043577
1738771802945750300,2.811750244140625,0.0005773733137175441,0.0029177593532949686,0.002028529765084386
1738771802955741400,2.821741455078125,0.0024437166284769773,0.004059722647070885,0.000035420041967881843
1738771802965733400,2.8317333984375,0.000996821210719645,0.0043835630640387535,0.0007659250986762345
1738771802975724500,2.841724609375,0.0018109495285898447,0.004198739770799875,-0.0003414172388147563
1738771802985715500,2.851715576171875,0.000862864195369184,0.0033811493776738644,-0.00037763622822239995
1738771802995707400,2.861707275390625,0.0015305186389014125,0.0038807583041489124,0.0001560612436151132
1738771803005698600,2.871698486328125,0.002697782125324011,0.0025190841406583786,-0.00014860439114272594
1738771803015690200,2.881690185546875,0.0006301039247773588,0.0030389330349862576,0.0019441075855866075
1738771803025681200,2.89168115234375,0.0010692591313272715,0.0030415961518883705,0.0006506102508865297
1738771803035673300,2.90167333984375,0.002386192325502634,0.004267715383321047,-0.0017065536230802536
1738771803045664300,2.911664306640625,0.00026551715563982725,0.004680239129811525,-0.0016245282022282481
1738771803055656400,2.921656494140625,0.0023164174053817987,0.0036597158759832382,0.00015046859334688634
1738771803065647400,2.9316474609375,-0.000434361572843045,0.00267674308270216,0.0003028014034498483
1738771803075639300,2.941639404296875,0.0004958806093782187,0.003893541404977441,0.0019563580863177776
1738771803085630500,2.95163037109375,0.0020865867845714092,0.003891411004588008,0.001591771375387907
1738771803095622400,2.961622314453125,0.0006034722900949419,0.002498843939974904,0.0003283677506260574
1738771803105613600,2.971613525390625,0.0002918824611697346,0.0028908613603562117,-0.0008554073283448815
1738771803115605200,2.981605224609375,0.0012950951931998134,0.0044136568903923035,-0.000803209375590086
1738771803125596200,2.99159619140625,0.0005017395596951246,0.0032376048620790243,0.0007611314067617059
1738771803135588400,3.00158837890625,0.0009701895760372281,0.005587578285485506,0.0012956279097124934
1738771803145579300,3.011579345703125,0.0009395632077939808,0.004382231738418341,0.000517718493938446
1738771803155570200,3.021570068359375,0.0036517265252768993,0.004278901033103466,-0.0006242449744604528
1738771803165562400,3.031562255859375,0.0013126720441505313,0.0037705034483224154,0.000963797967415303
1738771803175553300,3.04155322265625,0.0015787219163030386,0.003570233704522252,-0.00040559942135587335
1738771803185545500,3.05154541015625,0.0012567456578835845,0.004905276466161013,-0.0010961571242660284
1738771803195536400,3.061536376953125,0.0001579254458192736,0.003972371108829975,-0.0014205301413312554
1738771803205528300,3.0715283203125,0.0009515474666841328,0.0043532028794288635,0.0006596649764105678
1738771803215519500,3.08151953125,0.0024381240364164114,0.0046629286371171474,0.00019228023302275687
1738771803225511400,3.091511474609375,0.0010684601729735732,0.004503405187278986,0.001424791174940765
1738771803235502300,3.10150244140625,0.0012242551892995834,0.0038314899429678917,0.0020596887916326523
1738771803245494300,3.111494384765625,-0.000428502622526139,0.004759068600833416,0.0010665960144251585
1738771803255485200,3.121485107421875,0.0010439591715112329,0.003969974350184202,-0.0006492786924354732
1738771803265477400,3.131477294921875,-0.00009374327055411413,0.003748132847249508,-0.0012426309986039996
1738771803275468300,3.14146826171875,0.0015278555219992995,0.0033715618774294853,-0.0006266417913138866
1738771803285460200,3.151460205078125,0.0015715312911197543,0.0032676986884325743,0.0013720606220886111
1738771803295451400,3.161451416015625,0.0011731224367395043,0.004025101661682129,0.0002644518972374499
1738771803305443300,3.171443359375,0.001091896090656519,0.004004328977316618,0.0003611246356740594
1738771803315434500,3.1814345703125,0.000474575295811519,0.0032085764687508345,-0.0008367652189917862
1738771803325425400,3.19142529296875,-0.0013230583863332868,0.004227501805871725,-0.0009235842735506594
1738771803335417300,3.201417236328125,0.0007278419216163456,0.0035201662685722113,0.0003818972909357399
1738771803345408500,3.211408447265625,0.001127848750911653,0.006027798634022474,0.00003488740912871435
1738771803355400400,3.221400390625,0.0019651465117931366,0.004732969682663679,0.0001483380765421316
1738771803365391400,3.231391357421875,0.0021491709630936384,0.0031316110398620367,0.0009028115891851485
1738771803375383300,3.24138330078125,0.0013787185307592154,0.0028602350503206253,0.0020186761394143105
1738771803385374200,3.251374267578125,0.0017353157745674253,0.0034767568577080965,0.0008058725506998599
1738771803395366400,3.261366455078125,-0.000147272803587839,0.004193413536995649,0.0014290522085502744
1738771803405357300,3.271357421875,0.002397643867880106,0.003958788700401783,0.001416002749465406
1738771803415349200,3.281349365234375,0.0020447750575840473,0.003891144646331668,0.0004058657505083829
1738771803425340400,3.29134033203125,0.0012309130979701877,0.0037638454232364893,0.000011451592399680521
1738771803435332400,3.301332275390625,0.0013667342718690634,0.005727660376578569,0.0002801645314320922
1738771803445323500,3.311323486328125,0.0005624596378766,0.004086087923496962,-0.0002468750171829015
1738771803455315500,3.3213154296875,0.0000977380113909021,0.003564907470718026,-0.0016418388113379478
1738771803465306400,3.331306396484375,0.0017864484107121825,0.003564374754205346,-0.00008415588672505692
1738771803475297500,3.341297607421875,0.003561178920790553,0.003997138235718012,0.0005331648280844092
1738771803485289200,3.351289306640625,-0.0003211772127542645,0.004826446995139122,-0.00003302319601061754
1738771803495280400,3.3612802734375,0.002350772265344858,0.0035268242936581373,-0.0007286408799700439
1738771803505272300,3.371272216796875,0.0015646071406081319,0.0030807447619736195,-0.0003270361921750009
1738771803515263200,3.38126318359375,0.002672215923666954,0.004356665071099997,-0.0008916263468563557
1738771803525255400,3.39125537109375,0.0011318434262648225,0.004310326185077429,-0.0003384877636563033
1738771803535246300,3.401246337890625,0.0015776565996930003,0.004571049474179745,0.000999750685878098
1738771803545238300,3.41123828125,0.00010839065362233669,0.0022620889358222485,0.0007403587806038558
1738771803555229400,3.4212294921875,0.00042530681821517646,0.003597398055717349,0.0006580671179108322
1738771803565221400,3.431221435546875,0.0022184131667017937,0.0024943165481090546,-0.00039707732503302395
1738771803575212300,3.44121240234375,0.0012402341235429049,0.0031489215325564146,0.0006101301987655461
1738771803585204500,3.45120458984375,0.0007044061203487217,0.003226952161639929,-0.00005672533006872982
1738771803595195400,3.4611953125,0.0018391790799796581,0.003591006388887763,0.0004753742541652173
1738771803605187300,3.471187255859375,0.0012578109744936228,0.003465837799012661,0.000862864195369184
1738771803615178200,3.48117822265625,-0.00011531487689353526,0.004191282670944929,-0.001169394003227353
1738771803625169200,3.491169189453125,0.0009339706157334149,0.004445614758878946,0.001463939668610692
1738771803635161300,3.501161376953125,0.0018197379540652037,0.003369963960722089,0.00043516053119674325
1738771803645152300,3.51115234375,0.0015656723408028483,0.003626692807301879,-0.0010181264951825142
1738771803655144400,3.52114453125,0.0020823257509618998,0.004042944870889187,0.0007121292874217033
1738771803665135400,3.53113525390625,0.0004564658156596124,0.002728142309933901,-0.0004269047058187425
1738771803675127300,3.541127197265625,0.001853826455771923,0.004719654098153114,-0.0003534014686010778
1738771803685118500,3.551118408203125,0.0020623519085347652,0.002659698948264122,0.00004713794987765141
1738771803695110400,3.5611103515625,0.001047421246767044,0.003954794257879257,-0.0008218514849431813
1738771803705101300,3.571101318359375,0.0014229270163923502,0.004257062915712595,0.000015978966985130683
1738771803715093200,3.58109326171875,0.002740659052506089,0.003894074121490121,-0.0014538196846842766
1738771803725084400,3.59108447265625,0.002017610939219594,0.003078880487009883,-0.0006972155533730984
1738771803735076400,3.601076416015625,0.0021813951898366213,0.003096457337960601,0.0006242449744604528
1738771803745067300,3.6110673828125,0.0013843111228197813,0.0037468012887984514,-0.0007422229973599315
1738771803755058200,3.62105810546875,0.001588841900229454,0.002998985582962632,-0.0011917646043002605
1738771803765050400,3.63105029296875,0.0021499700378626585,0.005484247580170631,0.0017036241479218006
1738771803775041300,3.641041259765625,0.0021044297609478235,0.0038456046022474766,0.0013393036788329482
1738771803785033500,3.651033447265625,0.00020879182557109743,0.0036522590089589357,0.00029534456552937627
1738771803795024400,3.6610244140625,0.0015363775892183185,0.0049763829447329044,0.000049801110435510054
1738771803805016300,3.671016357421875,0.0017417073249816895,0.004727909807115793,0.0006689860601909459
1738771803815007500,3.681007568359375,0.0015736619243398309,0.002814961364492774,-0.00039601203752681613
1738771803824999400,3.69099951171875,0.0004266384057700634,0.0030091057997196913,-0.0007001450285315514
1738771803834990600,3.700990478515625,0.0007978830835781991,0.003753991797566414,-0.0009046758059412241
1738771803844982500,3.710982421875,0.0020093549974262714,0.00529676117002964,0.0005619269795715809
1738771803854973400,3.720973388671875,0.0009619337506592274,0.0030362699180841446,0.0001901497016660869
1738771803864965600,3.730965576171875,0.00036618465674109757,0.0038152446504682302,-0.0007462177309207618
1738771803874956500,3.74095654296875,0.0006554039428010583,0.0037324202712625265,0.001297225710004568
1738771803884947500,3.750947509765625,0.0007086671539582312,0.0026557042729109526,-0.0003885551996063441
1738771803894939600,3.760939697265625,0.00032650353386998177,0.00401711231097579,0.0015211976133286953
1738771803904930600,3.7709306640625,0.0021899172570556402,0.0032919333316385746,0.0010665960144251585
1738771803914922800,3.7809228515625,0.003290868131443858,0.005720736458897591,0.000570981705095619
1738771803924914700,3.790914794921875,0.0009137305896729231,0.0034176346380263567,0.0011653993278741837
1738771803934905600,3.800905517578125,0.001773398951627314,0.0019379822770133615,0.0002820287481881678
1738771803944896800,3.810896728515625,0.0017398431664332747,0.004172640852630138,0.00034727618913166225
1738771803954888700,3.820888671875,0.000913197931367904,0.004452006425708532,0.0006649913266301155
1738771803964879600,3.830879638671875,0.0003616572648752481,0.004171841777861118,0.0003009371866937727
1738771803974871600,3.84087158203125,0.0023869911674410105,0.0036578518338501453,-0.0007909588166512549
1738771803984862500,3.850862548828125,0.0007395598222501576,0.0023813985753804445,-0.00004953479583491571
1738771803994854700,3.860854736328125,0.001719869440421462,0.004167846869677305,0.00009800432599149644
1738771804004845600,3.870845458984375,0.00079735042527318,0.004640291910618544,-0.0007281082216650248
1738771804014837500,3.88083740234375,0.0025630262680351734,0.003753725439310074,-0.00003888214996550232
1738771804024828700,3.89082861328125,0.002222674200311303,0.003436276689171791,-0.00011158645065734163
1738771804034820600,3.900820556640625,0.0025534387677907944,0.0030269487760961056,-0.0007768440991640091
1738771804044811500,3.9108115234375,0.0007464840309694409,0.002746784361079335,0.0005544701125472784
1738771804054803700,3.9208037109375,0.001812014845199883,0.0052323127165436745,-0.00035233621019870043
1738771804064794600,3.930794677734375,0.0005161206354387105,0.0032951291650533676,0.00041971419705078006
1738771804074785800,3.940785888671875,0.0013784521725028753,0.0033952640369534492,-0.0003177151083946228
1738771804084777500,3.950777587890625,0.0013198626693338156,0.004186755511909723,-0.00023276027059182525
1738771804094768600,3.9607685546875,0.0012058793799951673,0.00256462418474257,0.0010519486386328936
1738771804104760600,3.970760498046875,0.001119060325436294,0.0031193606555461884,-0.00043888893560506403
1738771804114751500,3.98075146484375,0.0007677893154323101,0.002124936319887638,0.0006878945278003812
1738771804124743700,3.99074365234375,0.0025963156949728727,0.0049276468344032764,0.00048176583368331194
1738771804134734600,4.000734619140625,0.0016889767721295357,0.004180896561592817,0.00177952426020056
1738771804144726500,4.0107265625,0.001032507512718439,0.0032732912804931402,0.0002234392159152776
1738771804154717700,4.0207177734375,0.00015046859334688634,0.0044983453117311,-0.0003603257064241916
1738771804164709600,4.030709716796875,0.00020053602929692715,0.0033910030033439398,0.0010018812026828527
1738771804174700500,4.040700439453125,-0.0003057308786083013,0.00421232171356678,0.0005459480453282595
1738771804184691700,4.050691650390625,0.0014788532862439752,0.003802194958552718,0.0010029464028775692
1738771804194683600,4.06068359375,0.002046905690804124,0.0038685076870024204,0.000850879936479032
1738771804204674800,4.0706748046875,0.00007483482477255166,0.003689276985824108,0.0014631407102569938
1738771804214666500,4.08066650390625,0.0007267766632139683,0.0049068741500377655,-0.00045806370326317847
1738771804224657400,4.090657470703125,0.002284459536895156,0.004800613969564438,0.0012567456578835845
1738771804234649600,4.100649658203125,0.0018391790799796581,0.0030213561840355396,-0.00019627496658358723
1738771804244640500,4.110640625,-0.000015180017726379447,0.00586800929158926,0.0006370281334966421
1738771804254632700,4.1206328125,0.0028823392931371927,0.002987001556903124,0.0033630398102104664
1738771804264623600,4.13062353515625,0.00034647725988179445,0.004230164922773838,0.0015198660548776388
1738771804274615600,4.140615478515625,0.002120675053447485,0.0037760960403829813,0.00044528054422698915
1738771804284606700,4.150606689453125,0.001466336427256465,0.003433613572269678,0.0007012102869339287
1738771804294597600,4.16059765625,0.00027324032271280885,0.004537760280072689,0.00010839065362233669
1738771804304589600,4.170589599609375,0.0026551715563982725,0.0030831415206193924,-0.0008652610122226179
1738771804314580700,4.180580810546875,0.0009046758059412241,0.004494883120059967,-0.0006122607155703008
1738771804324572700,4.19057275390625,-0.000023169501218944788,0.004562261048704386,0.000303334032651037
1738771804334563600,4.2005634765625,0.0010567422723397613,0.0034149715211242437,0.001609081868082285
1738771804344555500,4.210555419921875,0.00045140579459257424,0.003421895671635866,0.00017736652807798237
1738771804354546400,4.22054638671875,0.0002109223569277674,0.003329217666760087,-0.0007297061383724213
1738771804364538600,4.23053857421875,0.0015486282063648105,0.0046576024033129215,0.0007036071619950235
1738771804374529500,4.240529541015625,0.00039175100391730666,0.003967044875025749,-0.00020639497961383313
1738771804384521500,4.250521484375,0.0011795139871537685,0.003153448924422264,0.0013707289472222328
1738771804394512600,4.2605126953125,0.002344380598515272,0.004084756597876549,-0.00020506340661086142
1738771804404504600,4.270504638671875,0.0009984191274270415,0.002969158347696066,0.00013528858835343271
1738771804414495700,4.280495849609375,0.00015286543930415064,0.0037729002069681883,0.0006870955694466829
1738771804424486700,4.290486572265625,0.0003454120014794171,0.004449343308806419,-0.00017949705943465233
1738771804434478600,4.300478515625,0.0018495653057470918,0.004207261838018894,-0.0006679208017885685
1738771804444469800,4.3104697265625,-0.0005166532355360687,0.0028935244772583246,0.00030892668291926384
1738771804454461700,4.320461669921875,0.002928145695477724,0.002779274946078658,-0.001255680457688868
1738771804464452600,4.33045263671875,0.0018700717482715845,0.005031776614487171,0.000254331884207204
1738771804474444500,4.340444580078125,0.002260491019114852,0.005072522908449173,0.0013630058383569121
1738771804484435500,4.350435546875,0.00041012681322172284,0.004037085920572281,0.0004655205411836505
1738771804494427600,4.360427734375,0.0018738001817837358,0.003938815090805292,0.0011534150689840317
1738771804504418600,4.37041845703125,0.0012689962750300765,0.00341550400480628,-0.0005824333056807518
1738771804514410500,4.380410400390625,0.0014096111990511417,0.0027473168447613716,0.00003009372085216455
1738771804524401700,4.390401611328125,0.0012450277572497725,0.004373443312942982,0.0002713761059567332
1738771804534393600,4.4003935546875,-0.001076982356607914,0.0031731564085930586,-0.000015978966985130683
1738771804544384800,4.410384765625,0.0029324067290872335,0.0036703685764223337,-0.0006285060080699623
1738771804554375700,4.420375732421875,0.0018261295044794679,0.003751861397176981,0.0005733785801567137
1738771804564367600,4.43036767578125,0.002436259761452675,0.005286907311528921,-0.0003616572648752481
1738771804574358800,4.44035888671875,0.0007925567333586514,0.004234159830957651,0.0015222628135234118
1738771804584350500,4.4503505859375,0.00008708536915946752,0.004176901653409004,-0.000764593540225178
1738771804594341600,4.460341552734375,0.0016951019642874599,0.004090881906449795,0.000056459015468135476
1738771804604333600,4.47033349609375,-0.000006924218723725062,0.0036826191935688257,-0.0006548712844960392
1738771804614324500,4.480324462890625,-0.000027164242055732757,0.004453337751328945,-0.0007462177309207618
1738771804624316700,4.490316650390625,-0.00006897587445564568,0.003653324441984296,0.0010333064710721374
1738771804634307600,4.5003076171875,0.0012335762148723006,0.005026184022426605,-0.000015446334145963192
1738771804644299500,4.510299560546875,0.0004316983977332711,0.0037233654875308275,0.0003299656673334539
1738771804654290700,4.520290771484375,0.0014839133946225047,0.003947070799767971,-0.0017496967921033502
1738771804664282600,4.53028271484375,0.0012247877893969417,0.003547064261510968,-0.002002164488658309
1738771804674273500,4.5402734375,0.001543568097986281,0.004382763989269733,0.0004519384237937629
1738771804684264700,4.5502646484375,0.0017414409667253494,0.004210457671433687,0.0015267902053892612
1738771804694256600,4.560256591796875,-0.00041678472189232707,0.004463191609829664,0.0010029464028775692
1738771804704247800,4.570247802734375,0.0013483584625646472,0.0035712989047169685,0.0002764361270237714
1738771804714239500,4.580239501953125,0.0014721954939886928,0.004052266012877226,0.00045540055725723505
1738771804724230400,4.59023046875,0.0017845842521637678,0.0037774275988340378,0.00003435477628954686
1738771804734222600,4.60022265625,0.0004814995336346328,0.0027110979426652193,0.0015646071406081319
1738771804744213500,4.610213623046875,0.0018935075495392084,0.004446147475391626,-0.000993625377304852
1738771804754205700,4.620205810546875,0.00039468047907575965,0.003163569141179323,-0.0010343717876821756
1738771804764196600,4.630196533203125,0.0007936219917610288,0.002469549188390374,0.0009981527691707015
1738771804774188500,4.6401884765625,0.0016045545926317573,0.003837615018710494,0.0003757720405701548
1738771804784179700,4.6501796875,0.0011981561547145247,0.004008590243756771,-0.000368847802747041
1738771804794170600,4.660170654296875,0.00016937704640440643,0.004235491156578064,0.0006628608098253608
1738771804804162600,4.67016259765625,0.0027427896857261658,0.0037417414132505655,0.0013938985066488385
1738771804814153700,4.68015380859375,0.001725728390738368,0.003962250892072916,-0.0002719087351579219
1738771804824145700,4.690145751953125,0.00018668759730644524,0.004785966593772173,0.00037497308221645653
1738771804834136300,4.70013623046875,0.0004996090428903699,0.004335360135883093,-0.00003302319601061754
1738771804844128300,4.710128173828125,0.0017805894603952765,0.003922303672879934,-0.0008295746520161629
1738771804854119400,4.720119384765625,0.0007329019135795534,0.004060255363583565,-0.0010729875648394227
1738771804864111000,4.730111083984375,0.00079735042527318,0.003989681601524353,0.00029294771957211196
1738771804874102000,4.74010205078125,0.001127848750911653,0.0030157635919749737,0.0016911072889342904
1738771804884094200,4.75009423828125,-0.00002956108801299706,0.005193963181227446,0.0002854908525478095
1738771804894085000,4.760085205078125,0.0014330470003187656,0.004391818773001432,0.00023196132679004222
1738771804904077300,4.770077392578125,0.0006133259739726782,0.0038131140172481537,-0.000015180017726379447
1738771804914068200,4.780068115234375,0.0006058691651560366,0.0025984463281929493,0.0008617989369668067
1738771804924059100,4.79005908203125,0.002285258611664176,0.003820038167759776,0.001029311795718968
1738771804934051300,4.80005126953125,0.0013632721966132522,0.004797152243554592,-0.000850879936479032
1738771804944042200,4.810042236328125,0.0028751487843692303,0.003698065411299467,0.0012463594321161509
1738771804954034400,4.820034423828125,0.00006950850365683436,0.003032008884474635,0.00022317290131468326
1738771804964025300,4.830025390625,0.002469282830134034,0.0035241609439253807,-0.0005640574963763356
1738771804974017000,4.84001708984375,0.0013486248208209872,0.0035049861762672663,0.000022636868379777297
1738771804984008200,4.85000830078125,0.00017070861940737814,0.003687146585434675,0.0003992078418377787
1738771804994000100,4.860000244140625,0.001321194227784872,0.0041401502676308155,-0.0011462245602160692
1738771805003991000,4.869990966796875,0.001062068622559309,0.003692206460982561,0.00008894957863958552
1738771805013983200,4.879983154296875,0.0019153454340994358,0.004320446401834488,0.0016349145444110036
1738771805023974100,4.88997412109375,-0.0003483414766378701,0.0034764904994517565,0.00022610237647313625
1738771805033965000,4.899965087890625,0.0013598100049421191,0.003373958868905902,0.0018383801216259599
1738771805043957200,4.909957275390625,0.002311357529833913,0.0038930089212954044,-0.0012863067677244544
1738771805053948200,4.9199482421875,0.0018820558907464147,0.002960103563964367,0.0012261193478479981
1738771805063940400,4.9299404296875,-0.000788561999797821,0.003043460426852107,0.000990962260402739
1738771805073931300,4.93993115234375,0.0014359764754772186,0.004882373381406069,-0.0004394215648062527
1738771805083923500,4.94992333984375,0.001826662220992148,0.003355316584929824,0.00033396040089428425
1738771805093914400,4.959914306640625,0.0000023968450477696024,0.005031243897974491,0.0012916331179440022
1738771805103906000,4.969906005859375,0.0021558289881795645,0.0033009881153702736,-0.00025992453447543085
1738771805113897200,4.979897216796875,0.0011073424248024821,0.0038029940333217382,0.00046818371629342437
1738771805123889200,4.98988916015625,0.000180029688635841,0.004604072775691748,0.000601075473241508
1738771805133880000,4.999880126953125,0.001496430253610015,0.002767823403701186,-0.0005491438205353916
1738771805143871200,5.009871337890625,0.0016855146968737245,0.0032178976107388735,0.00034594463068060577
1738771805153863200,5.01986328125,-0.0003456783015280962,0.002239984693005681,0.0014223942998796701
1738771805163854000,5.02985400390625,0.0004138552176300436,0.004001932218670845,-0.00021145498612895608
1738771805173846300,5.03984619140625,0.0014202637830749154,0.0030418625101447105,0.0015270565636456013
1738771805183837200,5.049837158203125,0.0006436860421672463,0.005285575985908508,0.00011717908637365326
1738771805193829400,5.059829345703125,0.0021078919526189566,0.0025987126864492893,0.0017182715237140656
1738771805203820300,5.0698203125,0.003037335118278861,0.003990747034549713,0.0002580603177193552
1738771805213812200,5.079812255859375,0.001395496423356235,0.0044288369826972485,-0.00098190747667104
1738771805223803400,5.089803466796875,0.0007576693315058947,0.004024302586913109,-0.00014674017438665032
1738771805233795000,5.099795166015625,0.0017094830982387066,0.0026442527305334806,0.0007632619817741215
1738771805243786200,5.1097861328125,0.00130920996889472,0.00361790438182652,-0.00007909588020993397
1738771805253777200,5.119777099609375,0.0013659353135153651,0.004147606901824474,-0.00046392265358008444
1738771805263769000,5.12976904296875,0.0013962953817099333,0.0037651772145181894,0.00004021373388241045
1738771805273760300,5.13976025390625,0.0009701895760372281,0.004098604898899794,0.00011877698125317693
1738771805283752200,5.149752197265625,0.0014788532862439752,0.003233610186725855,0.00040613205055706203
1738771805293743000,5.1597431640625,0.00025033715064637363,0.00261895265430212,0.0021781993564218283
1738771805303735300,5.1697353515625,0.0018804579740390182,0.0032836776226758957,-0.0001334243715973571
1738771805313726200,5.179726318359375,-0.0003070624661631882,0.003010969841852784,-0.0002724413643591106
1738771805323718400,5.189718505859375,0.0002743055811151862,0.0037790255155414343,0.0013784521725028753
1738771805333709300,5.199709228515625,0.0012183962389826775,0.0029766152147203684,-0.00038775624125264585
1738771805343701200,5.209701171875,0.0010066748363897204,0.006363623309880495,0.0005597964627668262
1738771805353692400,5.2196923828125,0.002115082461386919,0.0049462891183793545,0.0007504787645302713
1738771805363683300,5.229683349609375,-0.00005193164179218002,0.004780107643455267,0.0009009473724290729
1738771805373675000,5.239675048828125,0.0020477045327425003,0.003882089862599969,0.0009171926649287343
1738771805383666200,5.249666259765625,0.00030306773260235786,0.004278101958334446,0.0003731088654603809
1738771805393658000,5.259658203125,0.000055393749789800495,0.004283960908651352,0.00036245622322894633
1738771805403649300,5.269649169921875,0.0007251787465065718,0.002838397165760398,-0.0017390442080795765
1738771805413641200,5.27964111328125,0.0007350324303843081,0.0033622407354414463,0.002010420197620988
1738771805423632100,5.289632080078125,0.003022421384230256,0.0038807583041489124,0.0007097324123606086
1738771805433624300,5.299624267578125,0.0004346278728917241,0.002941727638244629,0.0004828310920856893
1738771805443615200,5.309615234375,0.001998702296987176,0.0029169602785259485,0.0009917612187564373
1738771805453607400,5.319607421875,0.0013379721203818917,0.004192880820482969,0.00006258428766159341
1738771805463598300,5.329598388671875,0.0008809737046249211,0.00466532539576292,-0.0006500775925815105
1738771805473589200,5.33958935546875,0.0010852381819859147,0.004643754102289677,-0.001210939371958375
1738771805483581200,5.349581298828125,0.0032431974541395903,0.0035366779193282127,0.0009494169498793781
1738771805493572400,5.359572265625,0.0027422569692134857,0.0043718451634049416,0.0006050702068023384
1738771805503564000,5.36956396484375,0.0007054713787510991,0.003934554290026426,0.0004894890007562935
1738771805513555200,5.37955517578125,0.002049568807706237,0.0034727619495242834,0.0004948153509758413
1738771805523547100,5.389547119140625,0.0014061490073800087,0.005307147279381752,-0.0000015978966985130683
1738771805533538300,5.399538330078125,0.00046578687033616006,0.0033960631117224693,0.0003355582884978503
1738771805543530200,5.4095302734375,0.0005302353529259562,0.00481313094496727,-0.00018908442871179432
1738771805553521200,5.419521240234375,-0.0006415555253624916,0.0038101845420897007,-0.00005619269722956233
1738771805563512300,5.42951220703125,0.0012857741676270962,0.003877029987052083,0.0016429040115326643
1738771805573504300,5.439504150390625,-0.000024234765078290366,0.00261841993778944,-0.00005725796290789731
1738771805583495200,5.4494951171875,-0.0003299656673334539,0.004990231245756149,0.000029294771593413316
1738771805593487400,5.4594873046875,-0.0012144014472141862,0.003715908620506525,0.002148105762898922
1738771805603478300,5.469478271484375,0.003213103860616684,0.004572913981974125,-0.0001675128296483308
1738771805613470200,5.47947021484375,0.0007632619817741215,0.003114300547167659,0.0002061286650132388
1738771805623461000,5.489461181640625,0.0027779433876276016,0.003175020683556795,0.0015630092239007354
1738771805633453000,5.499453125,0.0029816750902682543,0.002936401404440403,0.0020514330826699734
1738771805643444200,5.5094443359375,0.0006580671179108322,0.0029017801862210035,0.0022082931827753782
1738771805653436200,5.519436279296875,0.00036458674003370106,0.003014432033523917,-0.0007171892793849111
1738771805663427000,5.529427001953125,0.0012325108982622623,0.0038253646343946457,-0.00009214537567459047
1738771805673418200,5.539418212890625,0.002123870886862278,0.0038448055274784565,-0.0002633866388350725
1738771805683410200,5.54941015625,0.0015046859625726938,0.003724963404238224,-0.001118527608923614
1738771805693401300,5.5594013671875,0.0009590042755007744,0.003763579297810793,-0.00012436961696948856
1738771805703393300,5.569393310546875,0.002132392954081297,0.00404587434604764,-0.0009928264189511538
1738771805713384200,5.57938427734375,0.002042910782620311,0.0026378610637038946,0.0011102718999609351
1738771805723376400,5.58937646484375,0.0002695118892006576,0.004307929426431656,-0.00040959418402053416
1738771805733367300,5.5993671875,-0.000526773277670145,0.004478904418647289,0.0004575310740619898
1738771805743359200,5.609359130859375,0.0010181264951825142,0.0046762446872889996,0.0008468852029182017
1738771805753350100,5.61935009765625,-0.0006727144937030971,0.003279150230810046,0.001184307737275958
1738771805763341300,5.62934130859375,0.0013632721966132522,0.004071706905961037,-0.0010602044640108943
1738771805773333200,5.639333251953125,0.0011720572365447879,0.00242081331089139,0.0011560781858861446
1738771805783324200,5.64932421875,0.001315068919211626,0.0028541097417473793,0.0015188007382676005
1738771805793316000,5.659316162109375,0.0021315941121429205,0.0038541266694664955,-0.0003020024741999805
1738771805803307300,5.669307373046875,0.0010309095960110426,0.004960936494171619,0.0006799050024710596
1738771805813299200,5.67929931640625,0.0016679377295076847,0.002989931032061577,-0.00018136126163881272
1738771805823290000,5.6892900390625,0.0009038768475875258,0.0036967338528484106,0.0009558085002936423
1738771805833282300,5.6992822265625,0.00013875069271307439,0.004866394214332104,0.0005933523061685264
1738771805843274200,5.709274169921875,-0.0005097290268167853,0.002968359272927046,0.0011355718597769737
1738771805853266000,5.719265869140625,0.00044474788592197,0.004262655507773161,-0.00022929816623218358
1738771805863256800,5.7292568359375,0.002127066720277071,0.003896737238392234,-0.0013451626291498542
1738771805873248000,5.739248046875,0.0016791230300441384,0.003201119601726532,-0.001112668658606708
1738771805883240000,5.749239990234375,0.002936135046184063,0.0044139232486486435,0.0007163903210312128
1738771805893230800,5.75923095703125,0.0018514295807108283,0.003305781865492463,0.0003374225052539259
1738771805903223000,5.76922314453125,0.0012594088912010193,0.004599545616656542,0.0008594020619057119
1738771805913214000,5.7792138671875,0.0011446266435086727,0.004289020784199238,-0.00021012341312598437
1738771805923206100,5.7892060546875,0.0006450176006183028,0.0031222901307046413,-0.00025592977181077003
1738771805933197000,5.799197021484375,0.002296710154041648,0.003144926857203245,-0.002147839404642582
1738771805943189000,5.80918896484375,0.0031933963764458895,0.0030421288684010506,0.0011230550007894635
1738771805953180200,5.81918017578125,0.0027624969370663166,0.00440992834046483,0.0013949638232588768
1738771805963171000,5.829171142578125,0.0026581010315567255,0.003674629610031843,0.0007747135823592544
1738771805973163000,5.8391630859375,0.0007281082216650248,0.003861317178234458,0.0008934905636124313
1738771805983154200,5.849154296875,0.00044847631943412125,0.003052248852327466,0.00024767397553659976
1738771805993145900,5.859145751953125,0.0016040218761190772,0.004628574009984732,-0.00007217166421469301
1738771806003137000,5.869136962890625,0.0010482202051207423,0.0027867318131029606,-0.0006460828590206802
1738771806013129000,5.87912890625,0.0016615461790934205,0.00481233187019825,-0.0005126585019752383
1738771806023120000,5.889119873046875,-0.00017550231132190675,0.0027984497137367725,0.0005121259018778801
1738771806033112000,5.899112060546875,0.002092179376631975,0.004406732507050037,-0.0011318434262648225
1738771806043103000,5.90910302734375,0.003747866488993168,0.0036932716611772776,-0.0001555285998620093
1738771806053094000,5.919093994140625,0.0032410670537501574,0.004147074185311794,-0.00019201391842216253
1738771806063086000,5.929086181640625,0.0020684772171080112,0.003403253620490432,0.0014136058744043112
1738771806073077000,5.939076904296875,0.0021859225817024708,0.0036583843175321817,0.0004945489927195013
1738771806083069200,5.949069091796875,0.0014394385507330298,0.0038045919500291348,0.0002846919232979417
1738771806093060000,5.95906005859375,0.0002790992730297148,0.0036669063847512007,-0.0008831042214296758
1738771806103051800,5.9690517578125,0.0005528722540475428,0.0043779704719781876,0.002067944500595331
1738771806113043000,5.97904296875,0.0010404969798400998,0.0021728731226176023,-0.0005139900604262948
1738771806123035000,5.989034912109375,0.001461010193452239,0.003209641668945551,0.0005219795857556164
1738771806133026000,5.999026123046875,0.002435460686683655,0.0049438923597335815,0.00019813918333966285
1738771806143017000,6.009016845703125,0.0011763182701542974,0.00341603672131896,0.002320412313565612
1738771806153009000,6.0190087890625,0.0002085255109705031,0.004168379586189985,-0.0000655137628200464
1738771806163000000,6.029,0.0015166702214628458,0.004039216320961714,0.0004058657505083829
1738771806172992000,6.038991943359375,0.0018895127577707171,0.004522846546024084,-0.00009880327706923708
1738771806182983000,6.04898291015625,0.0014271880500018597,0.003841077210381627,0.0001257012045243755
1738771806192975000,6.05897509765625,0.001972603378817439,0.0034700988326221704,0.00019094864546786994
1738771806202966000,6.068966064453125,0.0024027039762586355,0.002894856035709381,-0.00006897587445564568
1738771806212958200,6.078958251953125,0.000666322885081172,0.004860801622271538,-0.0004679173871409148
1738771806222949000,6.08894921875,0.002161954063922167,0.0035475967451930046,0.0017952368361875415
1738771806232940000,6.09893994140625,0.0007701861904934049,0.004255997482687235,0.00046871634549461305
1738771806242932000,6.108931884765625,0.002367816399782896,0.002100168727338314,-0.00025779398856684566
1738771806252923100,6.118923095703125,0.001978195970878005,0.0032738239970058203,0.000556600687559694
1738771806262915000,6.1289150390625,0.0009614011505618691,0.003947070799767971,-0.0002793656021822244
1738771806272906000,6.138906005859375,0.0017749968683347106,0.004086886998265982,-0.0006593986763618886
1738771806282898000,6.14889794921875,-0.0005531385540962219,0.0036045885644853115,0.0014801849611103535
1738771806292889000,6.15888916015625,0.0019355855183675885,0.003005377249792218,-0.0000601874417043291
1738771806302881000,6.168881103515625,0.0001680454588495195,0.003973436541855335,0.0006466155173256993
1738771806312872000,6.178871826171875,-0.0008551410282962024,0.0036495958920568228,-0.0001584580895723775
1738771806322863000,6.188863037109375,0.0016410398529842496,0.0054850466549396515,-0.0004721784498542547
1738771806332855000,6.19885498046875,0.0011230550007894635,0.0029529130551964045,-0.00007962851668708026
1738771806342846000,6.208845947265625,0.0032826124224811792,0.005028048064559698,0.001071123406291008
1738771806352838100,6.218838134765625,0.0003733751946128905,0.0032487902790308,0.000031691615731688216
1738771806362829000,6.2288291015625,0.0018724685069173574,0.003635747591033578,0.00007536746124969795
1738771806372821000,6.238821044921875,0.0021286646369844675,0.004877313040196896,-0.00070520507870242
1738771806382812000,6.24881201171875,-0.00019094864546786994,0.004532434046268463,0.0004814995336346328
1738771806392803800,6.258803955078125,0.0021752698812633753,0.005060272291302681,0.0008498146780766547
1738771806402795000,6.268794921875,0.0010705908061936498,0.0029236183036118746,-0.0008737831376492977
1738771806412786000,6.278785888671875,0.0018050905782729387,0.005042695440351963,0.00036618465674109757
1738771806422778000,6.288778076171875,0.0014927018200978637,0.004012318328022957,0.0006181196658872068
1738771806432769000,6.29876904296875,0.0020903151016682386,0.003540672594681382,0.0013398362789303064
1738771806442761000,6.308760986328125,0.0027337349019944668,0.0030975225381553173,0.000011717908819264267
1738771806452752100,6.318752197265625,0.001356347929686308,0.004287156742066145,-0.0007882956997491419
1738771806462744000,6.328744140625,0.0021901836153119802,0.005310076754540205,0.0006886934279464185
1738771806472735000,6.33873486328125,0.001969673903658986,0.003266633255407214,0.00016831177345011383
1738771806482727200,6.34872705078125,0.000024234765078290366,0.0031065773218870163,0.00035233621019870043
1738771806492718000,6.358718017578125,0.001764077926054597,0.002886067610234022,0.00028628981090150774
1738771806502709000,6.368708984375,0.001663410454057157,0.004519650712609291,0.0008349010022357106
1738771806512701000,6.378700927734375,0.0016682040877640247,0.002808036981150508,0.0005422196118161082
1738771806522691800,6.38869189453125,0.0000021305288555595325,0.0043955473229289055,-0.0006713828770443797
1738771806532684000,6.39868408203125,0.0004593952908180654,0.00293293921276927,0.0008396946941502392
1738771806542675000,6.408675048828125,0.002153698354959488,0.004291151650249958,-0.00008149272616719827
1738771806552667000,6.4186669921875,0.0008881642133928835,0.003808053908869624,0.0004551342281047255
1738771806562658000,6.428657958984375,0.0015931029338389635,0.003540672594681382,0.0010343717876821756
1738771806572650000,6.43864990234375,0.00040986048406921327,0.00472631212323904,0.0002724413643591106
1738771806582641200,6.44864111328125,0.0011883024126291275,0.0034072482958436012,-0.0010764497565105557
1738771806592632000,6.458632080078125,0.0008356999605894089,0.0033127060160040855,-0.0003270361921750009
1738771806602624000,6.4686240234375,0.0018953717080876231,0.003227218519896269,-0.001133707701228559
1738771806612615200,6.478615234375,0.0005233111442066729,0.004351871553808451,0.0014503574930131435
1738771806622607000,6.488607177734375,0.0009179916232824326,0.0034852789249271154,0.0003664509567897767
1738771806632598000,6.498597900390625,0.0007012102869339287,0.003605653764680028,0.00041864890954457223
1738771806642590000,6.50858984375,0.0020660804584622383,0.004007258452475071,0.0004599279200192541
1738771806652580900,6.518580810546875,0.00008468852320220321,0.0046179210767149925,0.0012990899849683046
1738771806662573000,6.528572998046875,0.0009691243176348507,0.005053614266216755,0.0012120045721530914
1738771806672564000,6.53856396484375,0.0009627327090129256,0.004247209057211876,0.0004892227007076144
1738771806682555000,6.548554931640625,0.000535561703145504,0.003724164329469204,-0.000770452490542084
1738771806692547000,6.558547119140625,0.0009100021561607718,0.0034445326309651136,-0.00018242653459310532
1738771806702538000,6.5685380859375,0.001178182428702712,0.0028626318089663982,-0.00011638013529591262
1738771806712530200,6.5785302734375,0.001805623178370297,0.003840810852125287,0.00018881811411119998
1738771806722521000,6.58852099609375,0.0013406352372840047,0.0046546729281544685,0.00022663500567432493
1738771806732513000,6.598512939453125,0.0014985607704147696,0.003967843484133482,-0.00011904330312972888
1738771806742504200,6.608504150390625,0.0007978830835781991,0.0025931198615580797,-0.0005166532355360687
1738771806752496000,6.61849609375,0.00006498113361885771,0.003680488560348749,-0.0009978864109143615
1738771806762487000,6.628487060546875,0.0018943065078929067,0.005604622419923544,0.00017976337403524667
1738771806772478200,6.638478271484375,0.0017243968322873116,0.004078364931046963,0.0011851066956296563
1738771806782470000,6.648469970703125,0.003195793367922306,0.004393683280795813,0.001704955706372857
1738771806792460800,6.658460693359375,0.0008085357258096337,0.0037774275988340378,0.00009347695595351979
1738771806802453000,6.668452880859375,-0.00044794369023293257,0.004799282643944025,0.0003312972257845104
1738771806812444000,6.67844384765625,0.0005017395596951246,0.004487959202378988,0.0003400856803636998
1738771806822436000,6.68843603515625,0.0030274814926087856,0.0038573225028812885,-0.0006876281695440412
1738771806832427000,6.698427001953125,0.0015251922886818647,0.0038549257442355156,-0.00004660531703848392
1738771806842417700,6.708417724609375,0.0002924150903709233,0.00350418733432889,0.0005328985280357301
1738771806852409900,6.718409912109375,0.0012546151410788298,0.002660231664776802,0.00039547940832562745
1738771806862400800,6.72840087890625,0.0007680556736886501,0.004795820452272892,-0.0008138620178215206
1738771806872392700,6.738392822265625,0.0019148128340020776,0.002888997085392475,0.00027616979787126184
1738771806882384000,6.7483837890625,0.0025443839840590954,0.003153448924422264,-0.00005379585491027683
1738771806892375800,6.758375732421875,-0.0006609965930692852,0.004177700728178024,0.0001661812566453591
1738771806902366700,6.76836669921875,0.001969673903658986,0.004598480183631182,-0.0006048039067536592
1738771806912358700,6.778358642578125,0.0006676545017398894,0.0032953955233097076,0.0006908240029588342
1738771806922349600,6.788349609375,0.002100168727338314,0.0021145499777048826,0.0006631271098740399
1738771806932341800,6.798341796875,0.00042211104300804436,0.0037758296821266413,0.0007488809060305357
1738771806942332700,6.808332763671875,0.0033997914288192987,0.00341523764654994,-0.0007464840309694409
1738771806952323600,6.818323486328125,0.0013070794520899653,0.003734284546226263,-0.000010918960470007733
1738771806962315800,6.828315673828125,-0.00016937704640440643,0.004548945464193821,0.0007225155713967979
1738771806972306700,6.838306640625,0.0008343683439306915,0.002558232517912984,-0.00022530343267135322
1738771806982298600,6.848298583984375,0.0011534150689840317,0.004604339133948088,-0.0013691311469301581
1738771806992289800,6.858289794921875,-0.00014887070574332029,0.0037318875547498465,-0.00036938043194822967
1738771807002281700,6.86828173828125,0.001291100517846644,0.0031015174463391304,0.0007946872501634061
1738771807012273000,6.87827294921875,-0.00098217383492738,0.004680505488067865,0.0007693872321397066
1738771807022263800,6.888263916015625,0.0009081379394046962,0.004917260725051165,0.0010823087068274617
1738771807032255700,6.898255859375,-0.0002745719102676958,0.003537210635840893,-0.00038402783684432507
1738771807042247000,6.908246826171875,0.0003552656853571534,0.005076784174889326,-0.001532382913865149
1738771807052238600,6.918238525390625,0.001502555445767939,0.0047060721553862095,-0.00003968110104324296
1738771807062229800,6.928229736328125,0.0024916534312069416,0.003865312086418271,-0.0009933591354638338
1738771807072221700,6.9382216796875,0.0014916365034878254,0.002939064521342516,-0.0011523497523739934
1738771807082212600,6.948212646484375,0.0019166769925504923,0.0033933997619897127,0.0008884305134415627
1738771807092204800,6.958204833984375,0.0021971079986542463,0.004878112114965916,0.000041811628761934116
1738771807102195700,6.96819580078125,-0.0005675196298398077,0.004879443906247616,0.0009749832679517567
1738771807112186600,6.9781865234375,0.00009054747351910919,0.0031787490006536245,0.0001030643325066194
1738771807122178800,6.9881787109375,0.00007084008393576369,0.0041305627673864365,-0.0002918824611697346
1738771807132169700,6.998169677734375,0.0008468852029182017,0.0033899378031492233,0.0013430321123450994
1738771807142161700,7.00816162109375,0.0017675400013104081,0.004036819562315941,-0.0007137271459214389
1738771807152152800,7.01815283203125,-0.0006559365428984165,0.0036213663406670094,0.0004391552647575736
1738771807162144800,7.028144775390625,0.0007387608638964593,0.003631486324593425,-0.0004093278548680246
1738771807172136000,7.038135986328125,0.0008631304954178631,0.003111104713752866,-0.0015992282424122095
1738771807182127600,7.048127685546875,0.000028495824153651483,0.004348942078649998,0.0003014698449987918
1738771807192118500,7.058118408203125,0.0013225257862359285,0.004661330953240395,-0.00041332258842885494
1738771807202109700,7.068109619140625,0.00023409185814671218,0.0032200280111283064,0.0015464976895600557
1738771807212101600,7.0781015625,0.0009100021561607718,0.004249339923262596,0.0015182681381702423
1738771807222092500,7.088092529296875,0.0030565098859369755,0.00344586418941617,0.00016644757124595344
1738771807232084700,7.098084716796875,0.0008064051507972181,0.004593420308083296,0.0001246359315700829
1738771807242075600,7.10807568359375,0.0035598473623394966,0.00321843009442091,0.0019385149935260415
1738771807252067800,7.11806787109375,0.0017566210590302944,0.0036661075428128242,0.00022157499915920198
1738771807262058800,7.128058837890625,0.0009672601008787751,0.00436092633754015,0.0009422263829037547
1738771807272049700,7.138049560546875,0.001446362817659974,0.004217115696519613,0.0010578075889497995
1738771807282041900,7.148041748046875,0.0013515542959794402,0.00455773388966918,0.0005339637864381075
1738771807292032800,7.15803271484375,0.001669003046117723,0.0042706448584795,0.000553404854144901
1738771807302025000,7.16802490234375,0.0011622034944593906,0.0041220407001674175,0.0005872269975952804
1738771807312016000,7.178015869140625,0.0007779093575663865,0.003725496120750904,0.00013502225920092314
1738771807322007600,7.188007568359375,0.001580319833010435,0.004267715383321047,0.0008125304593704641
1738771807331998700,7.197998779296875,0.0022093583829700947,0.003168629016727209,-0.0008990831556729972
1738771807341990700,7.20799072265625,0.0013962953817099333,0.002805107505992055,0.000431432097684592
1738771807351981600,7.217981689453125,0.0017454357584938407,0.0048797097988426685,0.001407214323990047
1738771807361973800,7.227973876953125,0.0013275857781991363,0.003406715579330921,0.0005408879951573908
1738771807371964700,7.237964599609375,0.000770452490542084,0.0046299053356051445,-0.00025033715064637363
1738771807381955600,7.24795556640625,0.0013677994720637798,0.0040823593735694885,0.0008764463127590716
1738771807391947800,7.25794775390625,0.0012175972806289792,0.0020700751338154078,-0.0005526058957912028
1738771807401938700,7.267938720703125,0.0010921623324975371,0.004710865672677755,0.0007925567333586514
1738771807411931000,7.277930908203125,0.0014066817238926888,0.004185423720628023,0.00034168356796726584
1738771807421921800,7.287921875,-0.00007403588097076863,0.0032088428270071745,-0.00018029600323643535
1738771807431913700,7.297913818359375,-0.000322775129461661,0.004234692547470331,-0.0011707255616784096
1738771807441905000,7.30790478515625,0.0013129384024068713,0.00316010694950819,-0.0014362427173182368
1738771807451895800,7.317895751953125,0.0003326288133393973,0.004412325099110603,0.0007906925166025758
1738771807461887700,7.3278876953125,0.0018698053900152445,0.004370247479528189,0.0004463458026293665
1738771807471878700,7.337878662109375,0.0007962851668708026,0.004323109518736601,0.0010905644157901406
1738771807481870600,7.34787060546875,0.0010290454374626279,0.0033784860279411077,0.000037017940485384315
1738771807491861800,7.35786181640625,0.00040080572944134474,0.004846154246479273,0.0007827030494809151
1738771807501853700,7.367853759765625,0.0019984361715614796,0.004493019077926874,-0.00032863407977856696
1738771807511844600,7.3778447265625,-0.0005507417372427881,0.005395830608904362,0.0016245282022282481
1738771807521836800,7.3878369140625,0.001910285442136228,0.0032839439809322357,-0.00025033715064637363
1738771807531827700,7.39782763671875,0.0002932140196207911,0.0037356161046773195,0.0008130630594678223
1738771807541818600,7.407818603515625,0.0017204020405188203,0.0034085798542946577,0.0008391620358452201
1738771807551810800,7.417810791015625,0.0004069310089107603,0.0018570221727713943,-0.0006056028068996966
1738771807561801700,7.4278017578125,0.0020692760590463877,0.0041638524271547794,-0.00047351003740914166
1738771807571794000,7.4377939453125,0.0020604876335710287,0.0037438718136399984,0.0002479403046891093
1738771807581784800,7.447784912109375,0.0018578211311250925,0.0033859428949654102,-0.0007126618875190616
1738771807591776500,7.457776611328125,0.0016708672046661377,0.004519917070865631,0.00032330775866284966
1738771807601767700,7.467767578125,0.0015366439474746585,0.002712962217628956,0.000931307440623641
1738771807611759600,7.477759521484375,0.0011342403013259172,0.0037286917213350534,-0.0009105347562581301
1738771807621750800,7.487750732421875,0.0019896477460861206,0.002965429797768593,0.00007110639853635803
1738771807631741700,7.49774169921875,0.002042910782620311,0.0037787591572850943,0.00040986048406921327
1738771807641733600,7.507733642578125,0.0005872269975952804,0.003213636577129364,-0.000278300343779847
1738771807651724800,7.517724853515625,0.001493234420195222,0.003294063964858651,0.0017390442080795765
1738771807661716700,7.527716796875,0.00253453035838902,0.00404534162953496,0.0002767024270724505
1738771807671707600,7.537707763671875,0.0015363775892183185,0.0023105584550648928,0.0007819040911272168
1738771807681699800,7.547699951171875,0.0019433086272329092,0.0023497070651501417,0.0010064085945487022
1738771807691690800,7.557690673828125,0.0025033713318407536,0.0040852888487279415,-0.0005994775565341115
1738771807701681700,7.567681640625,0.0009416937828063965,0.0038285604678094387,0.0009946906939148903
1738771807711673900,7.577673828125,0.0008205199264921248,0.001427987008355558,-0.000143544384627603
1738771807721664800,7.587664794921875,0.0024887239560484886,0.0037151097785681486,0.0016253271605819464
1738771807731656700,7.59765673828125,0.00006418218254111707,0.0024831313639879227,0.0008088020258583128
1738771807741647600,7.607647705078125,0.002269812161102891,0.0044197821989655495,0.000014647385796706658
1738771807751639800,7.617639892578125,0.0011241203173995018,0.0031316110398620367,-0.0008476841612718999
1738771807761630700,7.627630615234375,-0.00056219327962026,0.0027835359796881676,-0.000031691615731688216
1738771807771622700,7.63762255859375,0.0013076120521873236,0.00484295841306448,-0.0008948221220634878
1738771807781613800,7.64761376953125,0.001868473831564188,0.0035606464371085167,0.0003605920064728707
1738771807791604700,7.657604736328125,0.0026583673898130655,0.0030897995457053185,0.0006351639167405665
1738771807801596700,7.6675966796875,-0.0010245180455967784,0.003724430687725544,0.00040293627534992993
1738771807811587800,7.677587890625,0.0018530274974182248,0.004215251188725233,0.0010578075889497995
1738771807821579800,7.687579833984375,0.0007198524544946849,0.003634948516264558,-0.0009318400407209992
1738771807831570700,7.69757080078125,0.0019710054621100426,0.003983023576438427,-0.00042983421008102596
1738771807841562400,7.707562255859375,0.001496430253610015,0.002454369328916073,0.00004420847471919842
1738771807851553300,7.71755322265625,0.0017715347930788994,0.003611512714996934,0.0016207997687160969
1738771807861545200,7.727545166015625,0.0006197175825946033,0.0035896748304367065,0.0006551376427523792
1738771807871536000,7.7375361328125,0.0002407497668173164,0.003132942598313093,-0.000333161442540586
1738771807881527300,7.74752734375,0.0014397049089893699,0.0029494508635252714,0.0007840346079319715
1738771807891519200,7.757519287109375,0.002701244316995144,0.0037444045301526785,0.00015339808305725455
1738771807901510100,7.76751025390625,0.0020245350897312164,0.0037238982040435076,-0.000969923275988549
1738771807911502000,7.777502197265625,0.001088433898985386,0.004239752423018217,-0.0005773733137175441
1738771807921493200,7.7874931640625,0.0006809702608734369,0.002941993996500969,0.0017981663113459945
1738771807931485200,7.797485107421875,0.0017204020405188203,0.004292482975870371,-0.00035206988104619086
1738771807941476400,7.807476318359375,0.003288205014541745,0.003992877434939146,-0.0000900148443179205
1738771807951467300,7.81746728515625,0.0019592875614762306,0.003498062025755644,0.001002413802780211
1738771807961459200,7.827459228515625,0.0009329052991233766,0.004746818449348211,0.0005550027708522975
1738771807971450400,7.837450439453125,0.0008309062686748803,0.00401711231097579,0.001219461439177394
1738771807981442300,7.8474423828125,0.0007387608638964593,0.004571049474179745,0.001008539111353457
1738771807991433200,7.85743310546875,-0.00007723167072981596,0.002802710747346282,-0.00037151097785681486
1738771808001425200,7.867425048828125,0.0005289037944748998,0.004294613376259804,-0.0009661948424763978
1738771808011416300,7.877416259765625,0.0016136092599481344,0.0033159018494188786,0.0004924184759147465
1738771808021408300,7.887408203125,-0.00017736652807798237,0.004306597635149956,0.0015283881220966578
1738771808031399200,7.897399169921875,0.00043888893560506403,0.002960369922220707,-0.0001411475386703387
1738771808041390000,7.90739013671875,-0.00008841694943839684,0.004983040504157543,0.0011206581257283688
1738771808051382300,7.91738232421875,0.0002412823960185051,0.002412024885416031,0.0003230414295103401
1738771808061373200,7.927373291015625,0.0018884475575760007,0.0024562333710491657,0.00010066748654935509
1738771808071365000,7.937365234375,0.0015949672088027,0.0030533140525221825,0.0011504855938255787
1738771808081356300,7.947356201171875,0.0008018778171390295,0.003719637170433998,0.00035446672700345516
1738771808091348200,7.95734814453125,0.002441852353513241,0.003172357566654682,0.0011385013349354267
1738771808101339400,7.96733935546875,0.001446096459403634,0.003622964257374406,-0.0010245180455967784
1738771808111330300,7.977330322265625,0.0016860472969710827,0.0027049726340919733,0.0005422196118161082
1738771808121322200,7.987322265625,0.002719353651627898,0.004002731293439865,0.000018109494703821838
1738771808131313400,7.9973134765625,0.001056476030498743,0.0027507790364325047,-0.0004719121498055756
1738771808141305000,8.00730517578125,0.0031707596499472857,0.0024224112275987864,0.0009065400226972997
1738771808151296300,8.017296142578125,0.0004889564006589353,0.0036189695820212364,0.000844754686113447
1738771808161288200,8.0272880859375,-0.00043302998528815806,0.004222441930323839,0.001216531964018941
1738771808171279000,8.037279052734375,0.0015933692920953035,0.004042145796120167,0.0007254450465552509
1738771808181271300,8.047271240234375,0.0012444951571524143,0.0030573089607059956,-0.00026604978484101593
1738771808191262200,8.05726220703125,0.0004905542591586709,0.0031353395897895098,-0.0004034689045511186
1738771808201253000,8.067253173828124,0.0013126720441505313,0.003727626521140337,0.0008612662786617875
1738771808211245300,8.077245361328124,0.0004993426846340299,0.0040852888487279415,0.0001917476038215682
1738771808221236200,8.087236328125,0.00044048685231246054,0.0036693033762276173,-0.0007121292874217033
1738771808231228200,8.097228271484376,0.00195129809435457,0.004568119999021292,-0.000005060006060375599
1738771808241219300,8.10721923828125,0.0011094729416072369,0.0033214944414794445,0.00036378781078383327
1738771808251211300,8.117211181640625,0.002351038623601198,0.004098871257156134,-0.0004665858286898583
1738771808261202400,8.127202392578125,0.0009187905816361308,0.004022971261292696,-0.0010431602131575346
1738771808271193300,8.137193359375,0.00048416267964057624,0.004144144710153341,-0.0007555388147011399
1738771808281185000,8.14718505859375,0.0006436860421672463,0.004180896561592817,0.000032490566809428856
1738771808291176200,8.15717626953125,0.0023435817565768957,0.003148122690618038,-0.00038509309524670243
1738771808301168000,8.167168212890624,0.002602973720058799,0.003288471372798085,0.0004058657505083829
1738771808311159000,8.177158935546874,0.0035513252951204777,0.0036970002111047506,-0.0015683355741202831
1738771808321151200,8.187151123046876,0.0019776634871959686,0.004930309951305389,-0.0006703176186420023
1738771808331142100,8.19714208984375,0.00042504051816649735,0.0029257487040013075,-0.001026115962304175
1738771808341133000,8.207133056640625,0.0008639294537715614,0.0038069887086749077,0.0008524778531864285
1738771808351125200,8.217125244140625,0.0019110844004899263,0.0036631780676543713,0.0007142598042264581
1738771808361116200,8.2271162109375,0.0013243899447843432,0.004297542851418257,-0.0006295712664723396
1738771808371108400,8.2371083984375,0.0026043052785098553,0.002584597794339061,-0.00016591492749284953
1738771808381099300,8.247099365234375,0.0001573928166180849,0.0027395938523113728,0.0006412891671061516
1738771808391091200,8.25709130859375,-0.0001400822657160461,0.004089283756911755,0.000925182132050395
1738771808401082400,8.267082275390624,0.0016791230300441384,0.0035124430432915688,0.0014237258583307266
1738771808411074000,8.277073974609374,0.002182993106544018,0.003483414649963379,0.0010327738709747791
1738771808421065200,8.287065185546876,0.00098190747667104,0.0037294907961040735,0.0002913498319685459
1738771808431056400,8.297056396484376,0.0010242518037557602,0.0038722362369298935,0.0006231797160580754
1738771808441048000,8.307048095703125,0.0017457021167501807,0.004054929129779339,0.000791491474956274
1738771808451039200,8.317039306640625,0.0006697850185446441,0.005049886181950569,5.326322138898831e-7
1738771808461031200,8.32703125,0.002095108851790428,0.003585413796827197,-0.00043809000635519624
1738771808471022000,8.33702197265625,0.002204298507422209,0.003224289044737816,0.0012503541074693203
1738771808481014300,8.34701416015625,0.0012950951931998134,0.0028218855150043964,0.00014887070574332029
1738771808491005200,8.357005126953124,0.0014897723449394107,0.004677043296396732,0.00026764770154841244
1738771808500997400,8.366997314453124,0.0006354302167892456,0.0034826158080250025,0.000937166390940547
1738771808510988300,8.37698828125,0.0006620618514716625,0.003512975759804249,0.000182959163794294
1738771808520979200,8.386979248046876,0.002901247702538967,0.004053330980241299,0.0008048072922974825
1738771808530971400,8.396971435546876,-0.00014647385978605598,0.003992078360170126,0.0005640574963763356
1738771808540962300,8.40696240234375,0.0018378474051132798,0.00364693277515471,0.00008735168376006186
1738771808550954200,8.416954345703125,0.0025624935515224934,0.002261556452140212,-0.0005054679932072759
1738771808560945200,8.426945068359375,-0.00004953479583491571,0.00392816262319684,0.0002817624481394887
1738771808570937000,8.43693701171875,-0.0002519350382499397,0.004194478504359722,-0.00021118867152836174
1738771808580928300,8.44692822265625,0.0020415792241692543,0.002993126632645726,-0.0004897553008049726
1738771808590919200,8.456919189453124,0.003171824850142002,0.004366252571344376,0.00034408041392453015
1738771808600911000,8.4669111328125,0.0024889903143048286,0.004061853047460318,0.0017321199411526322
1738771808610902300,8.47690234375,0.0016146745765581727,0.004343882203102112,-0.00018801917030941695
1738771808620894200,8.486894287109376,0.0014381069922819734,0.004500475712120533,-0.0006002765148878098
1738771808630885000,8.496885009765625,0.0010865697404369712,0.002192580606788397,0.000009853695701167453
1738771808640877300,8.506877197265625,0.0015283881220966578,0.003572896821424365,-0.00005725796290789731
1738771808650868200,8.5168681640625,-0.0012591425329446793,0.0038663772866129875,-0.0008066715090535581
1738771808660860400,8.5268603515625,0.0015904398169368505,0.004475974943488836,-0.0017028251895681024
1738771808670851300,8.536851318359375,0.0015965650090947747,0.005952697712928057,0.0001459412305848673
1738771808680842200,8.54684228515625,0.0005230448441579938,0.004342816770076752,0.0014916365034878254
1738771808690834200,8.556834228515624,0.002366218715906143,0.002141447737812996,-0.0007821703911758959
1738771808700825000,8.5668251953125,0.00007536746124969795,0.002814162289723754,-0.00015765913121867925
1738771808710817300,8.5768173828125,0.0026351979468017817,0.0041492050513625145,-0.00022796659322921187
1738771808720808200,8.58680810546875,0.0020058928057551384,0.004285026341676712,0.00040799626731313765
1738771808730800000,8.596800048828126,0.0012298477813601494,0.0024626250378787518,0.0005944175645709038
1738771808740791300,8.606791259765625,0.0009376989910379052,0.00421391986310482,-0.0004063983797095716
1738771808750783200,8.616783203125,-0.0001304948964389041,0.0023939155507832766,0.001199221471324563
1738771808760774100,8.626774169921875,0.0010732539230957627,0.0034759577829390764,0.0004308994684834033
1738771808770765300,8.636765380859375,0.0019379822770133615,0.0032080437522381544,0.000248472933890298
1738771808780757200,8.64675732421875,0.001728391507640481,0.003005377249792218,0.00024208133982028812
1738771808790748200,8.656748046875,0.0002258360618725419,0.004444815684109926,-0.001255414099432528
1738771808800740400,8.666740234375,0.002282062778249383,0.0021518340799957514,0.0012607404496520758
1738771808810731300,8.676731201171876,0.00199364242143929,0.004502340219914913,-0.000029294771593413316
1738771808820723200,8.68672314453125,0.0015430354978889227,0.004061320796608925,-0.0013646037550643086
1738771808830714000,8.696714111328125,0.0029997846577316523,0.0029409287963062525,-0.0000804274677648209
1738771808840705000,8.706705078125,0.002419215627014637,0.0036011263728141785,-0.0008101335843093693
1738771808850697000,8.716697021484375,0.001945705502294004,0.004592088516801596,0.0004242415598127991
1738771808860688000,8.72668798828125,0.0005278385360725224,0.0028130970895290375,-0.00038962045800872147
1738771808870680000,8.73668017578125,0.0016202671686187387,0.004752411041408777,-0.00045327001134864986
1738771808880671000,8.7466708984375,0.0021260015200823545,0.004387824330478907,-0.00008388957212446257
1738771808890663000,8.756662841796874,0.00007882956560933962,0.0031403994653373957,0.0007004113867878914
1738771808900654000,8.766654052734374,-0.00043569316039793193,0.003454119898378849,0.00024314661277458072
1738771808910646000,8.77664599609375,0.0010157296201214194,0.003459712490439415,-0.0006657902849838138
1738771808920637200,8.78663720703125,0.0004873584839515388,0.0046876962296664715,-0.00025486451340839267
1738771808930628000,8.796628173828125,0.00018455706594977528,0.003297259798273444,0.0016793893883004785
1738771808940620000,8.8066201171875,0.0014064153656363487,0.003352919826284051,0.0002561961009632796
1738771808950611200,8.816611083984375,0.00011158645065734163,0.003584881080314517,-0.0013041499769315124
1738771808960603000,8.826602783203125,0.002971555106341839,0.0049287122674286366,0.0008740494376979768
1738771808970594000,8.836593994140625,0.0012932310346513987,0.005261607468128204,-0.0007145261042751372
1738771808980586000,8.8465859375,0.0023124227300286293,0.0035654399544000626,0.00035686357296071947
1738771808990577000,8.856576904296874,0.0015006912872195244,0.0033156354911625385,0.00027616979787126184
1738771809000567800,8.86656787109375,0.000598145998083055,0.0028967203106731176,-0.0011203918838873506
1738771809010560000,8.87656005859375,0.0006740460521541536,0.003766242414712906,-0.0006492786924354732
1738771809020551000,8.886551025390625,0.00010626012954162434,0.0056949034333229065,0.0002519350382499397
1738771809030543000,8.896543212890625,-0.0010546117555350065,0.004240285139530897,-0.0006053365068510175
1738771809040534000,8.906533935546875,0.000597879639826715,0.004001665860414505,0.0008543420699425042
1738771809050526000,8.91652587890625,0.0007906925166025758,0.0034876756835728884,-0.000999484327621758
1738771809060517000,8.92651708984375,0.00041784998029470444,0.005886917468160391,0.002109756227582693
1738771809070509000,8.936509033203125,0.0005137237603776157,0.00515854312106967,0.00008948221511673182
1738771809080500200,8.946500244140625,0.0013366405619308352,0.0043832967057824135,0.0005257080192677677
1738771809090491100,8.9564912109375,0.0009392969077453017,0.003567304229363799,0.0004040015337523073
1738771809100482800,8.96648291015625,0.0006138586322776973,0.0023150858469307423,0.0007004113867878914
1738771809110474000,8.976473876953126,0.0015004249289631844,0.003944407682865858,0.0011954930378124118
1738771809120466000,8.9864658203125,-0.00029081720276735723,0.0038224351592361927,0.0005129248020239174
1738771809130456800,8.996456787109375,0.0020815266761928797,0.0028357338160276413,-0.0005976133397780359
1738771809140449000,9.006448974609375,0.0005166532355360687,0.0037113812286406755,-0.000464188982732594
1738771809150440000,9.01643994140625,0.002176867797970772,0.003605121048167348,-0.0006993460701778531
1738771809160430800,9.026430908203125,0.0020871192682534456,0.004043743945658207,0.00021891183860134333
1738771809170423000,9.036423095703125,0.0005656554130837321,0.0037894118577241898,-0.0006319681415334344
1738771809180414000,9.0464140625,0.0007166566210798919,0.004604339133948088,0.0004977448261342943
1738771809190406100,9.05640625,0.00003834952076431364,0.003991812001913786,0.001228516222909093
1738771809200397000,9.06639697265625,0.0005896238726563752,0.0034794199746102095,0.00015925703337416053
1738771809210389200,9.07638916015625,0.00281948852352798,0.00344559783115983,-0.0012058793799951673
1738771809220380200,9.086380126953125,0.002365685999393463,0.0032562471460551023,0.0013022858183830976
1738771809230371800,9.096371826171875,-0.0003171824791934341,0.0032032502349466085,0.000010918960470007733
1738771809240363000,9.106363037109375,0.0017683389596641064,0.004258926957845688,0.000708134553860873
1738771809250354200,9.116354248046875,0.001990979304537177,0.0046357642859220505,0.0010751180816441774
1738771809260345900,9.126345947265625,0.0011049455497413874,0.0023494407068938017,0.0005600627628155053
1738771809270337000,9.1363369140625,0.0015699334908276796,0.0022040321491658688,0.00019654128118418157
1738771809280329000,9.146328857421874,0.0014367754338309169,0.0038748993538320065,0.001148355077020824
1738771809290320000,9.15631982421875,0.0028130970895290375,0.004186755511909723,0.00009241169027518481
1738771809300312000,9.16631201171875,0.0036389431916177273,0.00387303507886827,0.00017550231132190675
1738771809310303000,9.176302978515626,-0.000005858954409632133,0.0041215079836547375,0.0009201221400871873
1738771809320294000,9.1862939453125,-0.00023808660625945777,0.0054674698039889336,0.0008058725506998599
1738771809330286000,9.1962861328125,0.0029856697656214237,0.0024807346053421497,-0.0011406318517401814
1738771809340277000,9.206277099609375,0.0002359560749027878,0.002966495230793953,0.0007611314067617059
1738771809350269200,9.216269287109375,0.0011291803093627095,0.0030959248542785645,0.00019041601626668125
1738771809360260000,9.226260009765625,0.0011590076610445976,0.004445082042366266,0.0006705839768983424
1738771809370252000,9.236251953125,0.0014271880500018597,0.003975300583988428,0.002153698354959488
1738771809380243000,9.246242919921874,0.0013688647886738181,0.004247741773724556,0.00005699164830730297
1738771809390234000,9.256234130859376,0.0012889700010418892,0.0032983249984681606,-0.000060986389144090936
1738771809400226000,9.26622607421875,-0.00037736992817372084,0.002931075170636177,-0.0012005530297756195
1738771809410217000,9.276217041015625,0.0016325177857652307,0.0043657198548316956,-0.0008673915872350335
1738771809420209000,9.286208984375,0.0016335829859599471,0.0027683558873832226,0.0006673881434835494
1738771809430200000,9.296199951171875,0.0015443670563399792,0.004683967679738998,0.00043649208964779973
1738771809440192000,9.30619189453125,0.001255946815945208,0.0026383937802165747,-0.00018615495355334133
1738771809450183000,9.316182861328125,0.0004010720585938543,0.003203782718628645,-0.00047164582065306604
1738771809460174000,9.326174072265625,0.0009656621841713786,0.001924932817928493,-0.000928377965465188
1738771809470166000,9.336166015625,0.0017773937433958054,0.004539890680462122,-0.000815193576272577
1738771809480157200,9.3461572265625,0.001761148450896144,0.00355878216214478,0.00009906959166983142
1738771809490149000,9.356149169921874,0.0016245282022282481,0.003855458227917552,0.00033342777169309556
1738771809500140000,9.36614013671875,0.0018820558907464147,0.0035217641852796078,-0.00013422331539914012
1738771809510132000,9.376132080078126,0.0012157330056652427,0.0034674357157200575,0.0007044061203487217
1738771809520123000,9.386122802734375,0.0015339808305725455,0.0028415927663445473,-0.000355532014509663
1738771809530115000,9.396114990234375,0.0006487460341304541,0.0041486723348498344,0.0013693973887711763
1738771809540106000,9.40610595703125,0.00199364242143929,0.003489007242023945,-0.0010636665392667055
1738771809550097000,9.416096923828125,0.00013448962999973446,0.003689276985824108,0.00003355582884978503
1738771809560089000,9.426089111328125,-0.00006125270738266408,0.00566853815689683,-0.0012463594321161509
1738771809570080000,9.436080078125,0.0008527441532351077,0.002909237053245306,-0.0008876316132955253
1738771809580072000,9.446072021484374,-0.0004346278728917241,0.002843989757820964,0.0013084110105410218
1738771809590063000,9.45606298828125,0.00005858954318682663,0.003366768127307296,-0.00010359696898376569
1738771809600055000,9.466054931640626,0.0009656621841713786,0.004336158744990826,0.000859934720210731
1738771809610046000,9.4760458984375,0.0007984156836755574,0.003966245800256729,-0.0012293151812627912
1738771809620037000,9.486037109375,0.0012868394842371345,0.0039087217301130295,0.0006133259739726782
1738771809630029000,9.496029052734375,0.0012860405258834362,0.004157194402068853,0.0007930893916636705
1738771809640020200,9.506020263671875,0.0016434367280453444,0.004066380672156811,-0.00023542344570159912
1738771809650012000,9.516011962890625,0.0007536745979450643,0.004914064891636372,0.0007174555794335902
1738771809660003000,9.526003173828125,0.0018136126454919577,0.0026405241806060076,0.00030652983696199954
1738771809669995000,9.5359951171875,0.0014293185668066144,0.0030719563364982605,-0.00022397184511646628
1738771809679986000,9.54598583984375,0.00038642468280158937,0.004720186814665794,0.00004340952364145778
1738771809689976800,9.555976806640626,-0.0003992078418377787,0.0033622407354414463,-0.0003270361921750009
1738771809699969000,9.565968994140626,0.0019233349012210965,0.001817873795516789,0.0005134574603289366
1738771809709960000,9.5759599609375,0.0023787354584783316,0.004560130648314953,-0.0018074874533340335
1738771809719952100,9.5859521484375,0.002032258315011859,0.004086620640009642,-0.00011531487689353526
1738771809729943000,9.595943115234375,-5.326322138898831e-7,0.0038077877834439278,-0.0007717840489931405
1738771809739935000,9.60593505859375,0.0001054611784638837,0.0038005972746759653,0.0007238471880555153
1738771809749926100,9.615926025390625,0.0009105347562581301,0.0038421424105763435,0.0011062771081924438
1738771809759917000,9.6259169921875,0.001728657865896821,0.003865312086418271,-0.0018985675415024161
1738771809769909000,9.635908935546874,0.0009685916593298316,0.0037699707318097353,0.0020005665719509125
1738771809779900200,9.645900146484376,0.0025867284275591373,0.003934287931770086,-0.00061279337387532
1738771809789891800,9.655891845703126,0.0013944311067461967,0.003963049966841936,0.0007901599165052176
1738771809799883000,9.665883056640626,0.0028370653744786978,0.003674629610031843,-0.00015233281010296196
1738771809809875000,9.675875,0.00028069718973711133,0.003965446725487709,-0.0002537992550060153
1738771809819865900,9.685865966796875,0.00006578007742064074,0.004251736681908369,0.001270594191737473
1738771809829858000,9.695858154296875,0.0035265579354017973,0.003825897118076682,0.0000697748182574287
1738771809839850200,9.705850341796875,0.0026375947054475546,0.003922303672879934,0.000824248360004276
1738771809849841200,9.715841064453125,0.00032410668791271746,0.00239258399233222,-0.00003488740912871435
1738771809859833000,9.7258330078125,0.0006591323763132095,0.0036125779151916504,0.0007454187725670636
1738771809869824300,9.73582421875,0.0014793860027566552,0.004336957819759846,-0.0011704593198373914
1738771809879816000,9.74581591796875,0.0016732640797272325,0.004577707499265671,0.0016170714516192675
1738771809889807000,9.75580712890625,0.0006042712484486401,0.0038812910206615925,0.0017441042000427842
1738771809899799000,9.765799072265626,0.0022325278259813786,0.004177967086434364,-0.000529702752828598
1738771809909790000,9.7757900390625,0.0010610034223645926,0.004533232655376196,0.00115394766908139
1738771809919781000,9.785781005859375,0.0008407599525526166,0.0029108349699527025,-0.00019707392493728548
1738771809929773000,9.79577294921875,0.0015606123488396406,0.004344148561358452,-0.0005842975224368274
1738771809939764000,9.805763916015625,0.0016860472969710827,0.004686897154897451,0.0002777676854748279
1738771809949756200,9.815756103515625,0.0022330605424940586,0.0022655511274933815,-0.00038695731200277805
1738771809959747000,9.8257470703125,0.000850879936479032,0.0029081718530505896,0.0010061422362923622
1738771809969739300,9.8357392578125,-0.0006159891490824521,0.003103115363046527,0.00020160128769930452
1738771809979730200,9.845730224609374,0.0012367720482870936,0.005213137716054916,0.0004593952908180654
1738771809989721000,9.85572119140625,-0.0003680488734971732,0.0035505264531821012,0.002112152986228466
1738771809999713300,9.86571337890625,0.000532632227987051,0.004005394410341978,0.0014556838432326913
1738771810009704200,9.8757041015625,0.0021702100057154894,0.0038344194181263447,0.0012937636347487569
1738771810019695900,9.88569580078125,0.0008966863388195634,0.0038807583041489124,-0.00002157160452043172
1738771810029687000,9.89568701171875,0.0011582087026908994,0.0038631814531981945,-0.0024141555186361074
1738771810039679000,9.905678955078125,-0.000999750685878098,0.004020308144390583,0.00037497308221645653
1738771810049670100,9.915670166015625,0.0011233213590458035,0.003852528752759099,0.00020053602929692715
1738771810059661000,9.9256611328125,0.0032083101104944944,0.002799514913931489,0.0012980246683582664
1738771810069653000,9.935653076171874,0.0011978897964581847,0.004114051349461079,0.0002466087171342224
1738771810079644200,9.94564404296875,0.001648230361752212,0.0057412427850067616,0.0019686087034642696
1738771810089636000,9.955635986328126,0.0016916398890316486,0.00535614974796772,0.0013084110105410218
1738771810099627000,9.965626953125,0.0015483618481084704,0.004759068600833416,0.0016916398890316486
1738771810109619200,9.975619140625,0.0022386531345546246,0.0028301412239670753,0.0018293253378942609
1738771810119610000,9.985610107421875,0.002156894188374281,0.0021821942646056414,0.0013728595804423094
1738771810129601000,9.99560107421875,0.002073537092655897,0.004451740067452192,0.00031798143754713237
1738771810139593200,10.00559326171875,0.0023582291323691607,0.004195543937385082,-0.0002591255761217326
1738771810149584100,10.015584228515625,0.0004207794554531574,0.003885285696014762,-0.00041571943438611925
1738771810159576000,10.025576171875,0.0012101404136046767,0.0034850125666707754,0.0008958873804658651
1738771810169567200,10.035567138671874,0.001362473238259554,0.003163302782922983,0.0015419702976942062
1738771810179559000,10.045558837890624,0.0033593112602829933,0.0034202977549284697,-0.0000015978966985130683
1738771810189550000,10.055550048828126,0.0014940333785489202,0.00404587434604764,0.0012040151050314307
1738771810199541000,10.065541015625,-0.0007869640830904245,0.004744953941553831,-0.0006117281154729426
1738771810209533200,10.075533203125,0.0007097324123606086,0.004034422803670168,0.0008175904513336718
1738771810219524000,10.085524169921875,0.0013036173768341541,0.00395665830001235,0.00036245622322894633
1738771810229516000,10.09551611328125,0.0012402341235429049,0.0029353362042456865,0.0016887104138731956
1738771810239507200,10.105507080078125,0.0028913940768688917,0.001796834752894938,-0.0013014868600293994
1738771810249499100,10.1154990234375,-0.00019627496658358723,0.004348143003880978,0.0003502056933939457
1738771810259490000,10.125489990234374,0.0023435817565768957,0.0035771578550338745,-0.0003680488734971732
1738771810269481200,10.135481201171874,0.0027478495612740517,0.0019489012192934752,0.00044847631943412125
1738771810279473200,10.14547314453125,0.0019507654942572117,0.003509779926389456,-0.00042796999332495034
1738771810289464000,10.155464111328126,-0.0007134608458727598,0.0037380128633230925,0.0008159925346262753
1738771810299456000,10.1654560546875,0.0005792375304736197,0.003528422210365534,0.001877262257039547
1738771810309447200,10.175447265625,0.0010468886466696858,0.0041244374588131905,0.0013614079216495156
1738771810319439000,10.185439208984375,0.0013307816116139293,0.0029816750902682543,-0.00006844323797849938
1738771810329430000,10.195429931640625,-0.000045273736759554595,0.0046272422187030315,-0.0010165285784751177
1738771810339421000,10.2054208984375,0.0013169331941753626,0.0031960594933480024,0.00003488740912871435
1738771810349413000,10.2154130859375,0.0016309198690578341,0.004885036498308182,0.000005060006060375599
1738771810359404000,10.225404052734374,0.0013379721203818917,0.0029174929950386286,0.0008341020438820124
1738771810369396200,10.235396240234374,0.0006785734440200031,0.0027228158432990313,0.000041278995922766626
1738771810379387100,10.24538720703125,0.0012479572324082255,0.0031135017052292824,-0.0004069310089107603
1738771810389379000,10.255379150390626,0.0015880429418757558,0.0052112736739218235,0.0015912387752905488
1738771810399370200,10.265370361328126,0.0011323761427775025,0.0022799321450293064,0.000014114753867033869
1738771810409361200,10.275361083984375,0.0012237224727869034,0.0030330740846693516,-0.0009954896522685885
1738771810419353000,10.28535302734375,0.00038242992013692856,0.0033569145016372204,0.0004546015989035368
1738771810429344300,10.29534423828125,0.001609081868082285,0.0041302964091300964,0.0013052152935415506
1738771810439336000,10.3053359375,0.000055660068028373644,0.002886333968490362,-0.0002767024270724505
1738771810449327000,10.3153271484375,0.0020631509833037853,0.004281830508261919,-0.0003808320325333625
1738771810459319000,10.325319091796874,-0.0009986853692680597,0.004101800732314587,-0.0015683355741202831
1738771810469310000,10.33531005859375,0.0008402272942475975,0.004363323096185923,0.0003323625132907182
1738771810479301000,10.345301025390626,0.0012024171883240342,0.0037374801468104124,-0.0012221246724948287
1738771810489293000,10.35529296875,0.00018562232435215265,0.004304467234760523,0.000821318884845823
1738771810499284000,10.365283935546875,0.0015456987312063575,0.0024506407789885998,-0.0000351537273672875
1738771810509276200,10.375276123046875,0.0004921521758660674,0.004054662771522999,-0.00049082055920735
1738771810519267000,10.38526708984375,0.0035385421942919493,0.003177683800458908,-0.00018748654110822827
1738771810529259300,10.39525927734375,0.002061286708340049,0.003183809109032154,0.00010945591930067167
1738771810539250200,10.405250244140625,0.0008311725687235594,0.0046179210767149925,0.000672448193654418
1738771810549241000,10.415240966796874,0.0008689894457347691,0.003288205014541745,0.0013398362789303064
1738771810559233300,10.4252333984375,0.0012370382901281118,0.0035577169619500637,0.0011965582380071282
1738771810569224200,10.43522412109375,0.0015811186749488115,0.005191832315176725,-0.000245543458731845
1738771810579216100,10.445216064453126,0.00023169501218944788,0.0035241609439253807,0.00004660531703848392
1738771810589207300,10.455207275390626,0.0008351673022843897,0.0043595945462584496,0.0003115898580290377
1738771810599199000,10.465198974609375,0.00043356261448934674,0.004454403184354305,-0.00046845004544593394
1738771810609190000,10.47518994140625,0.00007936220208648592,0.0028218855150043964,0.0004394215648062527
1738771810619181000,10.48518115234375,-0.0008828379213809967,0.0031166973058134317,-0.00018189390539191663
1738771810629173000,10.495173095703125,0.002266349969431758,0.003946538548916578,0.00020426444825716317
1738771810639164200,10.5051640625,0.0021917815320193768,0.0038280277512967587,0.00010146643762709573
1738771810649156000,10.515156005859374,0.0012567456578835845,0.00333267985843122,0.0016128103015944362
1738771810659147000,10.52514697265625,0.001811748486943543,0.002639458980411291,0.0016700683627277613
1738771810669139200,10.53513916015625,0.0007621967233717442,0.003757720347493887,0.0013659353135153651
1738771810679130000,10.545130126953126,0.0023012375459074974,0.002526541007682681,0.0015869776252657175
1738771810689121000,10.55512109375,0.0016050871927291155,0.0041553303599357605,0.0008013451588340104
1738771810699113200,10.56511328125,0.0020354539155960083,0.0030309436842799187,-0.0007408913807012141
1738771810709104000,10.575104248046875,0.00233825552277267,0.0029862024821341038,0.0009984191274270415
1738771810719096000,10.585095947265625,0.0021544971968978643,0.0038511971943080425,0.00028069718973711133
1738771810729087200,10.595087158203125,0.0004593952908180654,0.003981958609074354,-0.00047643951256759465
1738771810739079000,10.605078857421875,0.001422128058038652,0.003959587775170803,0.0008934905636124313
1738771810749070000,10.615070068359374,0.00119575927965343,0.003930559381842613,-0.00016218650853261352
1738771810759061000,10.62506103515625,0.0011736550368368626,0.0035300198942422867,-0.00040027310024015605
1738771810769053000,10.635052978515626,0.0018735338235273957,0.002636795863509178,0.0003861583536490798
1738771810779044000,10.645044189453126,0.000245543458731845,0.0036786242853850126,0.0007086671539582312
1738771810789036000,10.6550361328125,0.0028698223177343607,0.00336117553524673,0.0007102650706656277
1738771810799027200,10.665027099609375,0.0004498079069890082,0.004667456261813641,0.0017212009988725185
1738771810809019100,10.67501904296875,0.0018122810870409012,0.0034591800067573786,-0.00042211104300804436
1738771810819010000,10.685010009765625,0.0007664577569812536,0.004688761197030544,0.0006114617572166026
1738771810829001200,10.695001220703125,0.0010974886827170849,0.004003529902547598,0.0010077401529997587
1738771810838993000,10.704992919921875,0.0019196064677089453,0.003971305675804615,-0.0008396946941502392
1738771810848983800,10.71498388671875,0.00022849922243040055,0.004254399798810482,-0.000035952674807049334
1738771810858975700,10.724975830078124,0.001755289500579238,0.00449727987870574,-0.0011978897964581847
1738771810868967000,10.734966796875,0.001630120910704136,0.003041330026462674,-0.001258343574590981
1738771810878958600,10.74495849609375,0.0018988338997587562,0.00432976707816124,0.0014729943359270692
1738771810888949800,10.75494970703125,0.001716673607006669,0.00430180411785841,0.0007123955874703825
1738771810898941000,10.76494091796875,0.0010974886827170849,0.002793123247101903,-0.00043835630640387535
1738771810908932600,10.7749326171875,0.0008460862445645034,0.004221110139042139,0.0003057308786083013
1738771810918923500,10.784923583984375,0.001740375766530633,0.004196609370410442,0.0014423680258914828
1738771810928915700,10.794915771484375,0.00296276668086648,0.003620034782215953,-0.0007653924985788763
1738771810938906600,10.80490673828125,-0.0005209143273532391,0.003966245800256729,-0.0005536712124012411
1738771810948898800,10.81489892578125,0.0006215817993506789,0.003584614722058177,-0.00044767739018425345
1738771810958889700,10.8248896484375,0.0019771307706832886,0.003922836389392614,0.0008964200387708843
1738771810968880600,10.834880615234376,0.0030575753189623356,0.004938832018524408,0.00021411814668681473
1738771810978872800,10.844872802734375,0.0016703346045687795,0.0029116340447217226,0.00040266994619742036
1738771810988863700,10.85486376953125,0.0008498146780766547,0.004132426809519529,0.0008655273704789579
1738771810998856000,10.86485595703125,0.0015520902816206217,0.0029201561119407415,0.00046605319948866963
1738771811008846800,10.874846923828125,0.0011313108261674643,0.002852778183296323,0.000666589243337512
1738771811018837800,10.884837646484375,0.0006689860601909459,0.0035683694295585155,0.0010418286547064781
1738771811028829700,10.89482958984375,-0.00021518341964110732,0.003926032222807407,-0.0005797701887786388
1738771811038820900,10.90482080078125,0.0028490496333688498,0.0038125813007354736,0.0011318434262648225
1738771811048812500,10.9148125,0.0024024376180022955,0.0023704797495156527,0.00012676646292675287
1738771811058803700,10.9248037109375,0.0007512777228839695,0.00515774404630065,0.0003020024741999805
1738771811068795600,10.934795654296876,0.0006823018775321543,0.0036479979753494263,-0.0002950782363768667
1738771811078786600,10.94478662109375,0.0018631474813446403,0.0038663772866129875,-0.0006325007416307926
1738771811088777700,10.95477783203125,0.0016761935548856854,0.0037803570739924908,0.00037204360705800354
1738771811098769700,10.964769775390625,0.0018644790397956967,0.003698598127812147,-0.0004261057765688747
1738771811108760800,10.9747607421875,0.0011803129455074668,0.003862382611259818,-0.0000013315805063029984
1738771811118752800,10.984752685546875,0.0008524778531864285,0.0041406829841434956,-0.00017710021347738802
1738771811128743700,10.99474365234375,-0.0006130596739239991,0.0023105584550648928,0.0005358280031941831
1738771811138735900,11.00473583984375,0.002549444092437625,0.003451723139733076,-0.000051132694352418184
1738771811148726800,11.014726806640626,0.0013113404856994748,0.00427250936627388,-0.00020426444825716317
1738771811158717700,11.0247177734375,0.0014154701493680477,0.0027270768769085407,-0.0006593986763618886
1738771811168709600,11.034709716796876,0.0016109461430460215,0.003506850451231003,-0.00005885586142539978
1738771811178700800,11.04470068359375,0.0008857673965394497,0.003994475118815899,-0.00042344260145910084
1738771811188692700,11.054692626953125,0.001407214323990047,0.004052798729389906,0.0007440872141160071
1738771811198683600,11.06468359375,0.0012562130577862263,0.0035428032279014587,-0.0008495483780279756
1738771811208675600,11.074675537109375,0.002781405346468091,0.0036461339332163334,0.0018349179299548268
1738771811218666800,11.084666748046875,0.002037584548816085,0.0034732946660369635,0
1738771811228657700,11.09465771484375,0.0010993528412654996,0.003222425002604723,0.0005315669695846736
1738771811238649900,11.10464990234375,0.002263686852529645,0.004018177278339863,-0.0004601942200679332
1738771811248640800,11.114640869140626,0.0020098877139389515,0.005447762086987495,0.0014498248929157853
1738771811258632700,11.1246328125,0.002831206424161792,0.002251702593639493,0.000018109494703821838
1738771811268624000,11.134623779296875,0.0023821976501494646,0.0041151163168251514,-0.00031185615807771683
1738771811278615800,11.14461572265625,0.0022746059112250805,0.004269047174602747,0.0006737797521054745
1738771811288606700,11.154606689453125,-0.0002596582053229213,0.004804875236004591,0.0010495517635717988
1738771811298598000,11.164597900390625,0.00039308256236836314,0.004543619230389595,0.0012266519479453564
1738771811308589800,11.17458984375,0.00022157499915920198,0.0049257827922701836,0.0015283881220966578
1738771811318580700,11.184580810546874,0.002793922321870923,0.003693005535751581,0.0002479403046891093
1738771811328572700,11.19457275390625,-0.00003435477628954686,0.004985969979315996,0.0012096078135073185
1738771811338563600,11.2045634765625,0.0024919197894632816,0.005178516730666161,0.0006681871018372476
1738771811348554500,11.214554443359376,0.0012812467757612467,0.004400873556733131,0.00038988678716123104
1738771811358546700,11.224546630859376,0.0003328951424919069,0.002775546396151185,-0.00008495483780279756
1738771811368537600,11.23453759765625,0.0007744472241029143,0.004904477391391993,0.0003336940717417747
1738771811378529800,11.24452978515625,0.0019126823171973228,0.004037618637084961,0.0001328917423961684
1738771811388520700,11.254520751953125,0.0024921861477196217,0.003129746997728944,0.0007888282998465002
1738771811398513000,11.264512939453125,0.0016737966798245907,0.0023454460315406322,0.0016559535870328546
1738771811408503800,11.27450390625,0.0011206581257283688,0.003088467987254262,-0.0005376922199502587
1738771811418494700,11.28449462890625,0.001243962557055056,0.003796602366492152,0.0010183927370235324
1738771811428487000,11.29448681640625,0.0009331716573797166,0.0039041941054165363,-0.00020666129421442747
1738771811438477800,11.304477783203126,0.003168096300214529,0.0031185615807771683,0.0006948187365196645
1738771811448469800,11.3144697265625,0.0012841762509196997,0.003063966752961278,0.000284159294096753
1738771811458461000,11.3244609375,-0.0011701929615810513,0.004674113821238279,0.0001680454588495195
1738771811468452600,11.33445263671875,0.00148125016130507,0.003656253917142749,-0.00098190747667104
1738771811478443500,11.344443603515625,0.001371794263832271,0.0034562505315989256,0.00047590688336640596
1738771811488434700,11.3544345703125,0.00035712990211322904,0.004765193909406662,0.00016484966909047216
1738771811498426600,11.364426513671875,0.0011350392596796155,0.0037944719661027193,0.0004695153038483113
1738771811508417800,11.374417724609375,0.0022149509750306606,0.005380384158343077,0.0002998719282913953
1738771811518409700,11.38440966796875,0.0008889631717465818,0.002971288748085499,-0.0007840346079319715
1738771811528400600,11.394400634765624,0.0015417039394378662,0.003981958609074354,-0.0011443602852523327
1738771811538392800,11.404392822265624,0.0005339637864381075,0.004664793144911528,0.0003605920064728707
1738771811548383700,11.4143837890625,0.0011089402250945568,0.004523911513388157,0.00017017599020618945
1738771811558374700,11.424374755859375,0.0014005564153194427,0.0033182986080646515,-0.0013792511308565736
1738771811568366800,11.434366943359375,0.0017542241839691997,0.0036517265252768993,-0.0010133327450603247
1738771811578357800,11.444357666015625,0.0012325108982622623,0.006409695837646723,-0.00006418218254111707
1738771811588349700,11.454349609375,0.00035366779775358737,0.0041460092179477215,0.00020399813365656883
1738771811598340900,11.4643408203125,0.0009369000908918679,0.003185939509421587,-0.0008703210623934865
1738771811608331800,11.474331787109374,0.0029965888243168592,0.0023134879302233458,-0.0011853729374706745
1738771811618323700,11.48432373046875,0.0011893677292391658,0.0031345405150204897,-0.0006388923502527177
1738771811628314600,11.494314697265626,0.0020277309231460094,0.005498628597706556,-0.0011970909545198083
1738771811638306600,11.504306640625,0.0014628743520006537,0.0036751623265445232,0.000648479734081775
1738771811648297700,11.514297607421875,0.0021547635551542044,0.003349191276356578,0.001148355077020824
1738771811658289700,11.52428955078125,0.00119629199616611,0.004317782819271088,0.00018855179951060563
1738771811668280800,11.53428076171875,-0.0006495449924841523,0.00407596817240119,-0.00004926848123432137
1738771811678271700,11.544271728515625,0.003062102710828185,0.003094060579314828,0.000143544384627603
1738771811688263700,11.554263671875,0.0011837751371785998,0.0036045885644853115,-0.00024767397553659976
1738771811698254800,11.5642548828125,0.0027867318131029606,0.0033899378031492233,0.00043516053119674325
1738771811708246800,11.574246826171875,0.0015736619243398309,0.0037875475827604532,-0.0003832288784906268
1738771811718237700,11.58423779296875,0.0021315941121429205,0.004979046061635017,0.0008186557097360492
1738771811728230000,11.59422998046875,-0.00015233281010296196,0.005353220272809267,0.00027377295191399753
1738771811738220800,11.604220703125,0.0003581951605156064,0.0057257963344454765,0.0004673847579397261
1738771811748211700,11.614211669921875,0.002341451123356819,0.004914863966405392,0.001344363670796156
1738771811758203600,11.62420361328125,-0.0002460760879330337,0.004191815387457609,-0.00022849922243040055
1738771811768194600,11.634194580078125,0.0021406488958746195,0.003495132550597191,-0.0011443602852523327
1738771811778186800,11.644186767578125,0.0006135923322290182,0.004770520608872175,-0.000818123109638691
1738771811788177700,11.654177734375,-0.0006759102689102292,0.003942809998989105,-0.0007379619055427611
