time,seconds_elapsed,z,y,x
1738771800170617600,0.03661767578125,-0.0021356865763664246,-0.0019241643603891134,-0.0009319905657321215
1738771800180608500,0.0466083984375,-0.00005758588667958975,-0.0005237776786088943,0.0014981194399297237
1738771800190600400,0.056600341796875,-0.00038462207885459065,0.0015934351831674576,0.0014613678213208914
1738771800200591600,0.066591552734375,-0.001808020519092679,0.0004563361871987581,-0.0003859876887872815
1738771800210583600,0.07658349609375,0.00033688941039144993,-0.0005308976396918297,-0.00013458527973853052
1738771800220574500,0.086574462890625,0.00022805598564445972,-0.0018136089202016592,-0.0006462265737354755
1738771800230566400,0.09656640625,0.0008293978171423078,0.0010175977367907763,-0.0009205321548506618
1738771800240557300,0.106557373046875,-0.0011791769647970796,0.0008772783912718296,-0.000056171658798120916
1738771800250549500,0.116549560546875,-0.0006382889114320278,0.0012663663364946842,-0.0007959977956488729
1738771800260540400,0.12654052734375,-0.00016400718595832586,0.0004180525429546833,0.00000617059413343668
1738771800270532400,0.136532470703125,0.0002884638961404562,-0.00008395337499678135,-0.0007387155783362687
1738771800280523500,0.1465234375,0.0006296158535405993,0.0007754163816571236,-0.0009574632858857512
1738771800290515500,0.156515380859375,0.0008796866750344634,-0.000936729833483696,0.0015821270644664764
1738771800300506600,0.166506591796875,-0.0004842669586651027,-0.00044091627933084965,-0.0004050313145853579
1738771800310497500,0.17649755859375,-0.0014137101825326681,0.0007607019506394863,0.0004490444262046367
1738771800320489500,0.186489501953125,0.00153322983533144,-0.0013295798562467098,0.0025002819020301104
1738771800330480600,0.196480712890625,-0.0010801301104947925,-0.0012235860340297222,-0.00010242547432426363
1738771800340472600,0.20647265625,0.0002298884792253375,0.000722451601177454,0.00011536019155755639
1738771800350463500,0.21646337890625,-0.000491828192025423,-0.00031564850360155106,-0.0004281909787096083
1738771800360455400,0.226455322265625,0.0023544970899820328,-0.0004851908888667822,-0.00048743156366981566
1738771800370446300,0.2364462890625,-0.00034168711863458157,0.0006370651535689831,0.0020143419969826937
1738771800380438500,0.2464384765625,-0.000588495226111263,0.000015382422134280205,0.000530546996742487
1738771800390429400,0.256429443359375,-0.0004633266944438219,-0.0004594591446220875,-0.0007658798131160438
1738771800400421400,0.26642138671875,0.0007240556878969073,-0.00017799553461372852,-0.0005891806213185191
1738771800410412500,0.27641259765625,0.0006396335083991289,-0.0004459093324840069,0.002485438948497176
1738771800420404500,0.286404541015625,0.00020681857131421566,0.0002765392418950796,-0.0007927228580228984
1738771800430395400,0.2963955078125,0.0005844548577442765,-0.00023771729320287704,0.00023951834009494632
1738771800440387600,0.3063876953125,0.0020208782516419888,0.00027477461844682693,0.0009726317948661745
1738771800450378500,0.31637841796875,0.00015346985310316086,0.0004995451308786869,0.0010314877144992352
1738771800460370400,0.326370361328125,-0.0006586493691429496,0.0015704033430665731,-0.0003778889076784253
1738771800470361300,0.336361328125,-0.00046051020035520196,-0.0008253762498497963,-0.00008707170491106808
1738771800480353500,0.346353515625,-0.0009929932421073318,0.0009643330704420805,-0.0016544356476515532
1738771800490344400,0.356344482421875,-0.0005580990691669285,-0.00037417165003716946,0.0010611896868795156
1738771800500336400,0.36633642578125,-0.00037058338057249784,-0.00005935155786573887,-0.0005081720883026719
1738771800510327600,0.37632763671875,-0.00033969071228057146,0.0014149744529277086,0.00015069397340994328
1738771800520319500,0.386319580078125,-0.000244845577981323,-0.00027150800451636314,0.00004121442907489836
1738771800530310400,0.396310302734375,-0.00016894552391022444,0.00037004752084612846,-0.00020486165885813534
1738771800540302600,0.406302490234375,-0.00008616957347840071,0.00036725238896906376,-0.0008038220112212002
1738771800550293500,0.41629345703125,0.00011889380402863026,-0.0026434510946273804,0.000267833995167166
1738771800560284400,0.426284423828125,-0.00004408101085573435,-0.0005068634636700153,0.00041363423224538565
1738771800570276600,0.436276611328125,-0.0003809708869084716,0.000975185539573431,0.002291961805894971
1738771800580267500,0.446267578125,0.00036294886376708746,-0.00048399297520518303,-0.002013287041336298
1738771800590259500,0.456259521484375,-0.0009159010951407254,0.0008925951551645994,0.0010410925606265664
1738771800600250400,0.46625048828125,0.00035946257412433624,-0.0012486577033996582,0.0002865190035663545
1738771800610242300,0.4762421875,-0.000004325178451836109,0.0007364626508206129,-0.00041495758341625333
1738771800620233500,0.4862333984375,-0.0007836945005692542,-0.0003662740346044302,-0.0015354184433817863
1738771800630225400,0.496225341796875,-0.00034001184394583106,-0.0007497691549360752,-0.0010499241761863232
1738771800640216600,0.506216552734375,0.001142506138421595,0.00003984849900007248,-0.00021893497614655644
1738771800650208500,0.51620849609375,0.00046393275260925293,-0.0005204805638641119,0.00010756857227534056
1738771800660199400,0.526199462890625,0.00007231009658426046,0.0007596560753881931,-0.0017160959541797638
1738771800670191600,0.536191650390625,0.000657406635582447,0.0000318142119795084,0.00025597470812499523
1738771800680182500,0.5461826171875,0.001810666173696518,-0.0006381927523761988,-0.0007666008896194398
1738771800690174500,0.556174560546875,-0.0002535499515943229,0.00047048088163137436,-0.00009921271703206003
1738771800700165600,0.56616552734375,0.0014116314705461264,0.00026312004774808884,0.0013221264816820621
1738771800710157300,0.5761572265625,0.0002041541738435626,-0.00041145854629576206,-0.0015053516253829002
1738771800720148500,0.5861484375,0.0005448693409562111,0.0008735614828765392,-0.0014310069382190704
1738771800730140400,0.596140380859375,-0.0004112054593861103,0.00037501798942685127,-0.00022193175391294062
1738771800740131300,0.60613134765625,-0.0001227691536769271,0.000274445628747344,-0.0006849920027889311
1738771800750123500,0.61612353515625,0.0017552919453009963,-0.000012377044185996056,0.0001323321193922311
1738771800760114400,0.626114501953125,0.0016845552017912269,-0.002603572327643633,0.00007115892367437482
1738771800770106600,0.636106689453125,0.001511982292868197,0.0009368339087814093,0.00013747165212407708
1738771800780097500,0.64609765625,-0.0007013744907453656,0.0008906230796128511,0.001482044579461217
1738771800790089500,0.65608935546875,0.0014280891045928001,-0.0006044756155461073,-0.0001877573668025434
1738771800800080600,0.66608056640625,-0.00034856103593483567,0.00007367762736976147,-0.0007300711004063487
1738771800810072300,0.676072265625,-0.0001871734857559204,-0.0003558902535587549,-0.0006272730533964932
1738771800820063500,0.6860634765625,-0.0001960734953172505,-0.0006502876058220863,0.0011311699636280537
1738771800830055700,0.6960556640625,0.0019107533153146505,0.0002767588011920452,-0.0004310404183343053
1738771800840046600,0.706046630859375,-0.0006770553300157189,0.0006118605379015207,-0.0009557020966894925
1738771800850037800,0.716037841796875,0.0004497281042858958,-0.0002238396555185318,0.00028080359334126115
1738771800860029700,0.72602978515625,-0.0005262972554191947,0.0002720961347222328,0.0004985941923223436
1738771800870020600,0.7360205078125,0.000225513125769794,0.00044253841042518616,0.00016330217476934195
1738771800880012800,0.7460126953125,0.0002953256480395794,-0.0003358654212206602,0.00004482432268559933
1738771800890003700,0.756003662109375,-0.001288456260226667,0.0000939688179641962,-0.001110721263103187
1738771800899996000,0.765995849609375,-0.0009506017086096108,-0.0005293716676533222,0.0006075890851207078
1738771800909986800,0.77598681640625,-0.0014872286701574922,0.0003609228879213333,-0.00012344864080660045
1738771800919978500,0.785978515625,0.0002119127893820405,-0.0006204862147569656,0.0013521475484594703
1738771800929969700,0.7959697265625,-0.0004986185813322663,0.0007430522236973047,-0.00027850602054968476
1738771800939961600,0.805961669921875,0.0013997229980304837,0.00003942335024476051,-0.0001577796647325158
1738771800949952800,0.815952880859375,0.0009760140674188733,-0.0003291582688689232,0.0003612704458646476
1738771800959944700,0.82594482421875,0.0009111535036936402,-0.0017578767146915197,0.00003922911128029227
1738771800969935600,0.835935546875,-0.0012761007528752089,0.00022111833095550537,-0.0004441346100065857
1738771800979927800,0.845927734375,0.0006230633007362485,0.0003136526793241501,0.001988873118534684
1738771800989918700,0.855918701171875,-0.0008829542784951627,-0.00010552862659096718,-0.0011629777727648616
1738771800999911000,0.865910888671875,0.000588066061027348,-0.00024311640299856663,-0.00034747226163744926
1738771801009901800,0.87590185546875,-0.000019667320884764194,-0.0009579088073223829,-0.0008313686121255159
1738771801019893800,0.885893798828125,0.0004200829425826669,0.00165137043222785,-0.0007423380739055574
1738771801029885000,0.895885009765625,0.0017434078035876155,0.00008516525849699974,0.0007724679890088737
1738771801039876600,0.905876708984375,0.000308974995277822,-0.0017051778268069029,0.0020133093930780888
1738771801049867500,0.915867431640625,0.00101098429877311,0.00003786105662584305,-0.0013760956935584545
1738771801059859700,0.925859619140625,0.000016466714441776276,-0.00009413016960024834,-0.0011472819605842233
1738771801069850600,0.9358505859375,0.0007845223881304264,-0.0007404792122542858,-0.0014817750779911876
1738771801079842800,0.9458427734375,0.0004990353481844068,-0.0005340722855180502,-0.000731944921426475
1738771801089833700,0.955833740234375,0.00020688667427748442,-0.00037428271025419235,-0.00029465387342497706
1738771801099825700,0.96582568359375,0.000008764676749706268,0.0005788507405668497,-0.00009259372018277645
1738771801109816800,0.97581689453125,-0.0009576965239830315,0.0004464916419237852,0.0015084986807778478
1738771801119808800,0.985808837890625,0.00022508890833705664,0.0002297151368111372,-0.0004644159344024956
1738771801129800000,0.995800048828125,-0.0019565727561712265,0.00004329392686486244,-0.0004010327102150768
1738771801139791600,1.00579150390625,0.0014796261675655842,-0.0006904082838445902,0.0003535142750479281
1738771801149782800,1.01578271484375,0.00014911091420799494,-0.00017189094796776772,-0.0005117467371746898
1738771801159774000,1.02577392578125,-0.0015082170721143484,-0.0005789005663245916,-0.0002479661488905549
1738771801169765600,1.035765625,-0.00042164738988503814,0.0002855616621673107,-0.000023195345420390368
1738771801179756500,1.045756591796875,0.00001604040153324604,-0.000182820251211524,-0.0006115132127888501
1738771801189748700,1.055748779296875,-0.0003040715819224715,0.00006378837861120701,0.00008836551569402218
1738771801199739600,1.06573974609375,-0.0006540745962411165,-0.001746317371726036,-0.0006878522108308971
1738771801209731800,1.07573193359375,0.000056989374570548534,-0.0001707912888377905,0.0017366897081956267
1738771801219722800,1.08572265625,0.00007779838051646948,-0.0014946362935006618,-0.0002920570259448141
1738771801229714700,1.095714599609375,0.0001595573266968131,-0.0007638649549335241,-0.00017194845713675022
1738771801239705900,1.105705810546875,-0.0006279887165874243,0.0007706652395427227,0.00023328704992309213
1738771801249697800,1.11569775390625,0.0002359406789764762,0.0006146039813756943,-0.0001384902570862323
1738771801259688700,1.125688720703125,0.00016169180162250996,0.00035038613714277744,-0.0009323167614638805
1738771801269680600,1.1356806640625,-0.0012274130713194609,-0.00047492748126387596,-0.001647908124141395
1738771801279671600,1.145671630859375,-0.0007369347149506211,0.0008922296110540628,0.0005940018454566598
1738771801289663700,1.155663818359375,0.0008894577622413635,-0.0005578615237027407,-0.0006390416529029608
1738771801299654700,1.165654541015625,0.00021050602663308382,-0.000284877372905612,-0.0004108498978894204
1738771801309646800,1.175646728515625,-0.00030588090885430574,0.001196905504912138,-0.0006262996466830373
1738771801319637800,1.1856376953125,-0.0005594404065050185,-0.0003179644700139761,-0.001108234515413642
1738771801329629700,1.195629638671875,0.0001486941473558545,-0.00012089055962860584,-0.0022206369321793318
1738771801339620900,1.205620849609375,0.000029460294172167778,-0.0007161283865571022,-0.00003527366789057851
1738771801349612800,1.21561279296875,0.00008485408034175634,-0.00024394993670284748,-0.0010579274967312813
1738771801359603700,1.225603759765625,0.0002662565093487501,0.0006557030137628317,0.00114653748460114
1738771801369595600,1.235595703125,-0.000703933066688478,-0.00023485813289880753,-0.00020741367188747972
1738771801379586800,1.2455869140625,-0.0013920643832534552,-0.00024277041666209698,0.0006475126720033586
1738771801389578800,1.255578857421875,-0.000060750171542167664,-0.001560236094519496,-0.000505636038724333
1738771801399569700,1.265569580078125,0.0009585712105035782,-0.0006950413808226585,0.00013987469719722867
1738771801409560600,1.275560546875,-0.0008923257701098919,0.0005204251501709223,0.00048475409857928753
1738771801419552800,1.285552734375,0.0005562305450439453,0.00007897219620645046,-0.0003271609893999994
1738771801429543700,1.295543701171875,0.00031707866583019495,-0.0015186581294983625,-0.0005870854947715998
1738771801439535600,1.30553564453125,-0.0011969167971983552,-0.0008036238141357899,-0.0005944877630099654
1738771801449526800,1.31552685546875,-0.00008318288018926978,-0.00026007252745330334,-0.0005825035623274744
1738771801459518700,1.325518798828125,0.0016900768969208002,-0.0009887188207358122,0.0007635393412783742
1738771801469510000,1.335510009765625,-0.0003251369926147163,-0.0005495634395629168,-0.0006260981317609549
1738771801479501800,1.345501708984375,-0.0001469487906433642,0.0006080325692892075,-0.00002221323666162789
1738771801489492700,1.35549267578125,-0.0009184665395878255,-0.00010889070108532906,-0.0005540464771911502
1738771801499484700,1.365484619140625,-0.00038231397047638893,-0.0003737520892173052,0.0011257757432758808
1738771801509475600,1.3754755859375,0.000971637200564146,-0.00016788975335657597,0.00008874086779542267
1738771801519467800,1.3854677734375,-0.00036916660610586405,0.0010118812788277864,0.0002781646908260882
1738771801529458700,1.395458740234375,-0.0002764886012300849,-0.0008600545115768909,-0.0003825655730906874
1738771801539450600,1.40545068359375,-0.000611203140579164,-0.0006265153642743826,-0.00021033042867202312
1738771801549441800,1.41544189453125,-0.00017044995911419392,0.0002946718595921993,-0.00009874397073872387
1738771801559433700,1.425433837890625,0.00025695329532027245,-0.00001756381243467331,0.0011048821033909917
1738771801569424600,1.435424560546875,0.0005959736881777644,-0.0006348846945911646,0.00006491769454441965
1738771801579416800,1.445416748046875,-0.0010024657240137458,-0.0009519497398287058,-0.0013105673715472221
1738771801589407700,1.45540771484375,0.0014764046063646674,-0.001986854011192918,-0.001346786506474018
1738771801599399700,1.465399658203125,0.0006562237394973636,-0.0001541979145258665,-0.0003015344846062362
1738771801609390800,1.475390869140625,-0.00015444244490936399,0.0015443663578480482,0.0011440294329077005
1738771801619382500,1.485382568359375,0.0005208763759583235,0.0004264723975211382,0.00012530741514638066
1738771801629373700,1.495373779296875,0.0004700099816545844,0.0012190293055027723,-0.0008291695266962051
1738771801639364600,1.505364501953125,-0.00035366404335945845,-0.0008574952371418476,0.0001969597360584885
1738771801649356800,1.515356689453125,0.0005547401960939169,-0.000027920585125684738,0.0010249364422634244
1738771801659347700,1.52534765625,-0.00014313514111563563,-0.00035892915911972523,-0.0004962349776178598
1738771801669339600,1.535339599609375,-0.0012456838740035892,0.0005856938660144806,0.0002590374497231096
1738771801679330800,1.545330810546875,0.0006664303364232183,0.000802662456408143,-0.00016144811525009573
1738771801689322800,1.55532275390625,0.0018898864509537816,-0.0007419707253575325,-0.001387034892104566
1738771801699313700,1.565313720703125,0.0010582172544673085,0.001583560835570097,0.0009293346665799618
1738771801709305900,1.575305908203125,0.0011655426351353526,-0.0003962332848459482,-0.00015403922589030117
1738771801719296800,1.585296875,0.00048237445298582315,-0.000647066393867135,0.0006617725593969226
1738771801729288700,1.595288818359375,-0.0005778298946097493,0.000644034007564187,-0.0008687460795044899
1738771801739280000,1.60527978515625,-0.0005699298926629126,0.00040058884769678116,-0.000005081819836050272
1738771801749271600,1.615271484375,-0.0002040115650743246,-0.0006953019183129072,-0.0016927269753068686
1738771801759262700,1.6252626953125,0.0013965475372970104,-0.0009400669950991869,0.0007482333458028734
1738771801769254700,1.635254638671875,0.000034873257391154766,0.00015981867909431458,-0.00034073321148753166
1738771801779245600,1.64524560546875,-0.00138810311909765,-0.0009434339590370655,0.002001795917749405
1738771801789237800,1.65523779296875,0.0005546729080379009,-0.0009178677573800087,0.0020060569513589144
1738771801799228700,1.665228759765625,-0.002010490745306015,-0.0005464374553412199,0.0008497678791172802
1738771801809220900,1.675220947265625,0.0006241746013984084,-0.001325944671407342,-0.0005238905432634056
1738771801819211800,1.685211669921875,0.0008247356163337827,0.00030981656163930893,0.0005047036684118211
1738771801829203000,1.695202880859375,-0.00048500701086595654,0.0006794631481170654,0.00033372873440384865
1738771801839195000,1.70519482421875,0.0005545298336073756,0.001644084695726633,0.000425672042183578
1738771801849186000,1.71518603515625,0.0005577256670221686,-0.0016923234798014164,-0.00027127721114084125
1738771801859177700,1.725177734375,0.00024562631733715534,-0.00009987503290176392,8.766073733568192e-8
1738771801869168600,1.735168701171875,0.00047306029591709375,0.0010993466712534428,-0.0006827468750998378
1738771801879160800,1.745160888671875,0.00048819894436746836,0.0003100433386862278,-0.000007002381607890129
1738771801889151700,1.75515185546875,0.00008845841512084007,-0.0010015636216849089,-0.00047172396443784237
1738771801899144000,1.76514404296875,0.001442884560674429,-0.0006914334371685982,0.0005907747545279562
1738771801909134800,1.775134765625,-0.0000695246271789074,0.0010502738878130913,0.0009159467299468815
1738771801919126800,1.785126708984375,0.0023916347417980433,-0.0011095867957919836,0.0008369394927285612
1738771801929118000,1.795117919921875,-0.0016808712389320135,-0.00044193235225975513,0.0003842020523734391
1738771801939110000,1.80510986328125,-0.0006637361948378384,0.00029778294265270233,0.0005392386810854077
1738771801949100800,1.815100830078125,0.0002348143607378006,0.00022055115550756454,0.0005277871387079358
1738771801959092700,1.8250927734375,0.0016403722111135721,0.00008698180317878723,0.000633358140476048
1738771801969084000,1.835083984375,0.0010443567298352718,-0.00026402296498417854,-0.00031259667593985796
1738771801979075800,1.845075927734375,0.0008212764514610171,0.0009223646484315395,0.0011009110603481531
1738771801989066800,1.855066650390625,0.0007509689312428236,0.0010262280702590942,0.0003783954889513552
1738771801999057700,1.8650576171875,-0.0009470545337535441,-0.0012152439448982477,-0.0005960580892860889
1738771802009049900,1.8750498046875,0.00013525411486625671,-0.00018380163237452507,0.0003163408546242863
1738771802019040800,1.885040771484375,0.0011670326348394156,0.0014898083172738552,0.0006043844623491168
1738771802029033000,1.895032958984375,-0.000056157237850129604,-0.00023698527365922928,-0.00010827740334207192
1738771802039023900,1.90502392578125,0.00004606833681464195,0.00012975907884538174,0.0007828763918951154
1738771802049015800,1.915015869140625,0.0009273083414882421,-0.0015094163827598095,0.001305388635955751
1738771802059007000,1.925007080078125,0.0010647180024534464,-0.0011237850412726402,0.00043254299089312553
1738771802068999000,1.9349990234375,-0.0001203885767608881,-0.0003021999727934599,0.0004477230249904096
1738771802078989800,1.94498974609375,0.0005880355602130294,-0.0010950034484267235,-0.00029517742223106325
1738771802088981800,1.954981689453125,-0.00006843369919806719,0.0004051553551107645,0.0008225513156503439
1738771802098972700,1.96497265625,0.00023097509983927011,0.00033333711326122284,0.0008111692732200027
1738771802108964900,1.97496484375,0.0001279107527807355,0.00018553202971816063,-0.00015076447743922472
1738771802118955800,1.984955810546875,-0.0003363006399013102,0.0005755387246608734,-0.0004937557969242334
1738771802128947700,1.99494775390625,-0.00029049423756077886,-0.00026868353597819805,0.000024495326215401292
1738771802138939000,2.00493896484375,0.0001079486683011055,0.0016420336905866861,0.0002689123502932489
1738771802148930800,2.014930908203125,0.0009985096985474229,0.0012654627207666636,0.0006066011846996844
1738771802158922000,2.024921875,-0.0009310581954196095,-0.00036954949609935284,0.00044387002708390355
1738771802168914000,2.034913818359375,-0.002054379554465413,-0.00027820304967463017,0.001305402722209692
1738771802178904800,2.04490478515625,-0.0012629494303837419,0.00023150257766246796,0.00016825008788146079
1738771802188896800,2.054896728515625,0.0008231045212596655,-0.0005003339610993862,-0.0003673116152640432
1738771802198888000,2.064887939453125,0.000694727641530335,0.00003474485129117966,0.00016368785873055458
1738771802208878800,2.07487890625,-0.0016637678490951657,-0.000287763774394989,0.0007083042874000967
1738771802218870800,2.084870849609375,0.0016081376234069467,-0.0007055336609482765,0.0005010224995203316
1738771802228861700,2.09486181640625,-0.0009591496782377362,-0.0004157817456871271,-0.00047768920194357634
1738771802238854000,2.10485400390625,-0.0002553806989453733,-0.0002823213580995798,-0.00040451824315823615
1738771802248844800,2.1148447265625,-0.0013390209060162306,0.0004487165715545416,-0.00019785694894380867
1738771802258836700,2.124836669921875,0.0001491409493610263,0.0017563721630722284,-0.000042581723391776904
1738771802268828000,2.134827880859375,-0.0006135883741080761,0.001095908461138606,-0.00046309485333040357
1738771802278819800,2.14481982421875,-0.0005385056138038635,-0.0014360954519361258,-0.000036783836549147964
1738771802288811000,2.15481103515625,0.0010410151444375515,0.0012153475545346737,0.0005400568479672074
1738771802298803000,2.164802978515625,-0.00040060264291241765,0.0008057975210249424,0.00016026773664634675
1738771802308793900,2.1747939453125,0.00024548021610826254,-0.0011449679732322693,0.0005048807943239808
1738771802318785800,2.184785888671875,-0.0005258613382466137,0.000605135690420866,0.00036020472180098295
1738771802328777000,2.19477685546875,0.0002235522260889411,0.0006844978779554367,0.00046593218576163054
1738771802338769000,2.204768798828125,-0.0013655456714332104,0.00004811165854334831,0.001168724033050239
1738771802348759800,2.214759765625,0.000998009811155498,0.0006917973514646292,0.0001479343482060358
1738771802358751700,2.224751708984375,-0.00016490556299686432,0.00024064932949841022,-0.0005408796714618802
1738771802368743000,2.234742919921875,-0.0004187047597952187,-0.000040580518543720245,-0.0005427438882179558
1738771802378734800,2.24473486328125,0.0014055221108719707,0.0002976630348712206,-0.0008055215002968907
1738771802388725800,2.254725830078125,0.000016949838027358055,-0.0012501664459705353,-0.0002899334649555385
1738771802398717000,2.264717041015625,0.0004830916877835989,0.00008188840001821518,-0.0004783209296874702
1738771802408708900,2.274708984375,-0.0005656611174345016,-0.0013029552064836025,-0.0005041536060161889
1738771802418699800,2.28469970703125,-0.0003575143055059016,0.0008058897219598293,0.00042794598266482353
1738771802428692000,2.29469189453125,-0.0011135856620967388,0.00117100914940238,-0.0013028422836214304
1738771802438683000,2.304682861328125,-0.00025297515094280243,0.000018212944269180298,0.0000671635425533168
1738771802448674800,2.3146748046875,0.0000029546208679676056,0.00008132983930408955,0.0001851415727287531
1738771802458665700,2.324665771484375,-0.0002643853076733649,-0.0005407852586358786,-0.0008850461454130709
1738771802468658000,2.334657958984375,0.0010714562376961112,0.0001660175621509552,0.00028967420803382993
1738771802478648800,2.34464892578125,-0.0002389152068644762,-0.00018730899319052696,-0.0012457737466320395
1738771802488640800,2.354640869140625,-0.0017465307610109448,0.0010001943446695805,-0.0007320499280467629
1738771802498632000,2.3646318359375,-0.0002323300577700138,0.00014110468327999115,0.0006550257676281035
1738771802508624000,2.374623779296875,-0.0005662904586642981,0.00023804372176527977,-0.000017955000657821074
1738771802518614800,2.38461474609375,-0.0004588676383718848,0.00007236259989440441,0.00013122661039233208
1738771802528607000,2.39460693359375,0.0016045494703575969,0.00046597770415246487,0.0013978260103613138
1738771802538598000,2.404597900390625,-0.0013754465617239475,0.0016759748104959726,0.0013769451761618257
1738771802548589800,2.41458984375,-0.0005591877270489931,0.0010948728304356337,0.00005149000935489312
1738771802558581000,2.4245810546875,-0.0008486751466989517,-0.001319581177085638,-0.0008228923543356359
1738771802568572700,2.43457275390625,-0.00022496283054351807,-0.0013443485368043184,-0.0005192920216359198
1738771802578563800,2.444563720703125,-0.0004220825503580272,0.0004992256872355938,0.0010772475507110357
1738771802588554800,2.4545546875,-0.0010260874405503273,-0.0010041287168860435,0.001042626448906958
1738771802598546700,2.464546630859375,-0.0005451012984849513,0.0000703549012541771,-0.0007654528017155826
1738771802608537900,2.474537841796875,0.00047808513045310974,-0.000016996869817376137,0.0006180593627505004
1738771802618529800,2.48452978515625,0.0010095054749399424,0.0015279627405107021,0.0005452204495668411
1738771802628521000,2.49452099609375,0.0012635709717869759,-0.00047153886407613754,-0.0008470801403746009
1738771802638513000,2.504512939453125,0.0009679623181000352,-0.0005401012022048235,-0.0007094533648341894
1738771802648503800,2.51450390625,-0.0006810669437982142,-0.001183254411444068,0.00017871086311060935
1738771802658496000,2.52449609375,0.00021348486188799143,0.00003101280890405178,0.00027835590299218893
1738771802668487000,2.53448681640625,0.001958121545612812,-0.0006145373918116093,-0.0008686676155775785
1738771802678478800,2.544478759765625,-0.00045068777399137616,-0.0011069264728575945,-0.0002564063761383295
1738771802688469800,2.5544697265625,-0.0007859797333367169,0.0006249274592846632,-0.0006705279229208827
1738771802698461700,2.564461669921875,0.0010445482330396771,0.00007151300087571144,0.00009915679402183741
1738771802708452900,2.574452880859375,0.00008234800770878792,0.0009887057822197676,-0.0003919301088899374
1738771802718444800,2.58444482421875,0.00024327868595719337,-0.0005162474699318409,0.0001189744652947411
1738771802728435700,2.594435791015625,-0.0005652570398524404,0.0004283757880330086,0.0004550653975456953
1738771802738428000,2.604427978515625,-0.00023116194643080235,-0.000574012054130435,0.0012077192077413201
1738771802748418800,2.614418701171875,0.00045220518950372934,0.0011064426507800817,-0.00021946888591628522
1738771802758411000,2.624410888671875,0.00009831448551267385,-0.00006164098158478737,-0.0008110665949061513
1738771802768402000,2.63440185546875,0.00044106331188231707,-0.0014632625970989466,-0.00018469105998519808
1738771802778393900,2.644393798828125,-0.0009412332437932491,0.0004334910772740841,0.00032450439175590873
1738771802788385000,2.654385009765625,0.001177577767521143,-0.0007476210594177246,0.00018442208238411695
1738771802798376700,2.664376708984375,-0.00009074842091649771,0.0014663401525467634,-0.00025317707331851125
1738771802808367900,2.674367919921875,-0.001144827576354146,0.0006863002199679613,-0.00046356680104508996
1738771802818358800,2.68435888671875,-0.0003396792453713715,0.00004054093733429909,-0.0014868078287690878
1738771802828350700,2.694350830078125,0.001196964760310948,0.0002615833654999733,-0.0014798836782574654
1738771802838341000,2.704341064453125,0.0004853451391682029,0.0014666304923593998,-0.00005540034908335656
1738771802848333300,2.714333251953125,0.0011332920985296369,-0.00038000568747520447,0.001628250116482377
1738771802858324200,2.72432421875,0.0022353576496243477,-0.0005677817389369011,0.000007773909601382911
1738771802868316400,2.73431640625,0.0012196280295029283,0.0006410269998013973,0.0009518645238131285
1738771802878307300,2.744307373046875,-0.000011562020517885685,-0.0001264871098101139,0.00009943722398020327
1738771802888299500,2.754299560546875,-0.0011828202987089753,-0.000361644197255373,-0.0002955095551442355
1738771802898290400,2.76429052734375,-0.0010756875853985548,0.0016937542241066694,0.000572599470615387
1738771802908282400,2.774282470703125,0.00013312126975506544,-0.0004447640385478735,-0.000474555476102978
1738771802918273500,2.7842734375,0.000898948754183948,0.0007224162109196186,-0.0007988853030838072
1738771802928265200,2.79426513671875,0.0004198461538180709,-0.00003045913763344288,0.0009111303952522576
1738771802938256400,2.80425634765625,-0.00262504443526268,-0.00038468814454972744,-0.0005221407627686858
1738771802948248300,2.814248291015625,-0.0014487261651083827,0.000867264112457633,0.0012677698396146297
1738771802958239200,2.8242392578125,-0.0007381582399830222,-0.0007086789701133966,-0.001148780109360814
1738771802968231400,2.8342314453125,0.0006211191648617387,-0.00011532660573720932,0.0006619030609726906
1738771802978222300,2.844222412109375,-0.0003371719503775239,-0.00003259815275669098,-0.00022589224681723863
1738771802988213200,2.854213134765625,-0.0016264081932604313,0.00017166626639664173,-0.000003784633008763194
1738771802998205400,2.864205322265625,-0.001367204706184566,-0.0003394691739231348,-0.0006063064793124795
1738771803008196400,2.8741962890625,-0.00007557158824056387,-0.0006284220144152641,-0.0009804805740714073
1738771803018188300,2.884188232421875,0.00023989088367670774,0.0007269079796969891,0.0010317887645214796
1738771803028179500,2.894179443359375,0.0008217915892601013,-0.0005554039962589741,0.0017958495300263166
1738771803038171400,2.90417138671875,-0.0002521118149161339,0.001568186329677701,-0.0017367081018164754
1738771803048162600,2.91416259765625,-0.00006808736361563206,-0.000970072578638792,-0.001245088642463088
1738771803058154200,2.924154296875,0.0009095767745748162,-0.00014716270379722118,0.0012188255786895752
1738771803068145200,2.934145263671875,0.0003441877197474241,-0.00008804048411548138,0.001105374889448285
1738771803078137300,2.944137451171875,-0.0004091732553206384,0.0004052305594086647,-0.0009460739092901349
1738771803088128300,2.954128173828125,0.0004813878331333399,-0.0003484440967440605,0.0010235999943688512
1738771803098120400,2.964120361328125,-0.0008297637104988098,-0.00035983650013804436,-0.00022324809106066823
1738771803108111400,2.974111328125,0.00032338500022888184,-0.00004398566670715809,-0.001793980598449707
1738771803118103300,2.984103271484375,-0.0006503650802187622,-0.00027746474370360374,-0.0011212449753656983
1738771803128094500,2.994094482421875,-0.0007281294092535973,0.0003070991951972246,-0.00015851223724894226
1738771803138086400,3.00408642578125,-0.0002547026379033923,0.0003750703763216734,-0.0001394789869664237
1738771803148077300,3.014077392578125,-0.00029891106532886624,0.0008531075436621904,-0.0010382957989349961
1738771803158068500,3.024068359375,0.0002557553816586733,-0.00042320741340518,0.00024532052339054644
1738771803168060400,3.034060302734375,0.0018198298057541251,0.0014681695029139519,-0.00007665566226933151
1738771803178051300,3.04405126953125,0.00004053220618516207,0.0008965504821389914,-0.00033859038376249373
1738771803188043300,3.054043212890625,0.0008306921226903796,-0.000354336341843009,0.0011125660967081785
1738771803198034200,3.0640341796875,-0.0004159112577326596,0.0002361019141972065,-0.0006960761966183782
1738771803208026400,3.0740263671875,0.0003095337888225913,0.0012465051840990782,-0.00046731065958738327
1738771803218017300,3.084017333984375,0.0005848583532497287,0.00034324685111641884,0.0005598413990810513
1738771803228009500,3.094009521484375,0.0010929895797744393,0.0002897176891565323,0.00013133877655491233
1738771803238000400,3.10400048828125,-0.0014048933517187834,0.0011727395467460155,-0.0000322693376801908
1738771803247992300,3.113992431640625,0.000497136265039444,0.0006443685851991177,0.0008939780527725816
1738771803257983500,3.1239833984375,-0.0007095566834323108,-0.000045806169509887695,-0.001215122640132904
1738771803267975400,3.133975341796875,-0.00030795199563726783,0.0004681842401623726,-0.0009466760093346238
1738771803277966300,3.14396630859375,-0.0007601396646350622,0.0007127970457077026,-0.0010131916496902704
1738771803287958300,3.153958251953125,0.000047330744564533234,0.0002073291689157486,-0.0002105149469571188
1738771803297949400,3.163949462890625,-0.00028874550480395555,0.0015920749865472317,-0.000038423851947300136
1738771803307941400,3.17394140625,0.0009293843759223819,0.0005158912390470505,0.001021514181047678
1738771803317932300,3.183932373046875,0.00026454287581145763,-0.0006915105041116476,0.0003521207836456597
1738771803327923200,3.193923095703125,-0.00042015587678179145,0.001130624208599329,-0.002069225301966071
1738771803337915400,3.203915283203125,-0.0010816334979608655,-0.0010551009327173233,0.0008821371593512595
1738771803347906300,3.21390625,-0.0015242509543895721,0.0016504041850566864,0.000273604819085449
1738771803357898200,3.223898193359375,-0.0009625121019780636,-0.00046675000339746475,0.00014485607971437275
1738771803367889400,3.233889404296875,0.0005371139850467443,0.00023765629157423973,0.0014492722693830729
1738771803377881300,3.24388134765625,0.0004909976851195097,-0.00035417103208601475,-0.00007650336192455143
1738771803387872500,3.25387255859375,0.0005786156980320811,0.00033159321174025536,0.001100347493775189
1738771803397864400,3.263864501953125,-0.00023764651268720627,0.00041023921221494675,-0.0000936869764700532
1738771803407855400,3.27385546875,0.00029178988188505173,0.000564435962587595,0.0005593200912699103
1738771803417847300,3.283847412109375,0.0006962877232581377,-0.0005108262412250042,0.0007805933128111064
1738771803427838200,3.293838134765625,-0.00037430302472785115,-0.0008575697429478168,0.00042266439413651824
1738771803437830400,3.303830322265625,0.00026083935517817736,-0.00024652620777487755,-0.0003168817493133247
1738771803447821300,3.3138212890625,-0.0018912611994892359,-0.0007573205512017012,-0.0007826685905456543
1738771803457813200,3.323813232421875,-0.00010980188380926847,-0.0002756475005298853,-0.0006188882980495691
1738771803467804400,3.333804443359375,0.00021084269974380732,0.0009283677209168673,-0.0004516417975537479
1738771803477795300,3.34379541015625,0.0006302775582298636,0.0009252279996871948,0.00108278205152601
1738771803487787300,3.353787353515625,-0.0008429831941612065,0.0006922013126313686,0.00009128710371442139
1738771803497778400,3.3637783203125,0.0006376650417223573,0.0003778412938117981,-0.0010779642034322023
1738771803507770400,3.373770263671875,-0.002543214475736022,-0.0003718386869877577,-0.0000920619786484167
1738771803517761500,3.383761474609375,0.00010067655239254236,0.0002795781474560499,0.00042010980541817844
1738771803527753500,3.39375341796875,-0.0007451434503309429,-0.0004711670335382223,-0.0007034778827801347
1738771803537744400,3.403744384765625,-0.0005804009269922972,0.00009306194260716438,0.0006670931470580399
1738771803547736300,3.413736328125,-0.000009685521945357323,-0.001394846010953188,0.00025856425054371357
1738771803557727200,3.423727294921875,0.000001909211277961731,0.0012005025055259466,0.0007161968387663364
1738771803567719400,3.433719482421875,0.00008340191561728716,0.0004923681262880564,-0.0001503957755630836
1738771803577710300,3.44371044921875,-0.0024275851901620626,-0.0012335949577391148,0.0006676773191429675
1738771803587702300,3.453702392578125,0.0005133436061441898,-0.0008274628780782223,-0.00044738821452483535
1738771803597693400,3.463693359375,0.0004633088828995824,0.0006759876850992441,0.00044852090650238097
1738771803607685400,3.473685302734375,0.000762914540246129,0.0019018410239368677,-0.000567475042771548
1738771803617676300,3.48367626953125,-0.00025368109345436096,-0.0006447164341807365,-0.0006872500525787473
1738771803627667500,3.49366748046875,0.0008691076654940844,0.00022400682792067528,0.0007303506135940552
1738771803637659400,3.503659423828125,-0.0005353319575078785,-0.0012512628454715014,-0.001001585740596056
1738771803647650300,3.513650390625,0.00036162068136036396,-0.00007574353367090225,-0.0005278094904497266
1738771803657642200,3.523642333984375,0.001800810918211937,-0.000026801833882927895,0.00016494908777531236
1738771803667633400,3.53363330078125,0.0009302236139774323,-0.0005826037377119064,-0.0004923190572299063
1738771803677625300,3.543625244140625,-0.0013885326916351914,0.0005993323866277933,-0.0014562135329470038
1738771803687616300,3.5536162109375,0.0019771703518927097,-0.0005879048258066177,-0.0012857712572440505
1738771803697608400,3.5636083984375,0.0003179619088768959,-0.00022115069441497326,-0.0007157785585150123
1738771803707599400,3.573599365234375,-0.001469818176701665,-0.0005210225936025381,0.00041579853859730065
1738771803717591300,3.58359130859375,0.0012746015563607216,0.0018025045283138752,-0.000044267624616622925
1738771803727582500,3.59358251953125,0.0001835044240579009,-0.001592759508639574,-0.00023921101819723845
1738771803737574400,3.603574462890625,0.000814141589216888,0.0003726179711520672,-0.0009833973599597812
1738771803747565300,3.6135654296875,-0.00023088278248906136,-0.0013342017773538828,-0.00019137327035423368
1738771803757556500,3.623556396484375,-0.0013270314084365964,-0.000454288674518466,0.0008273609564639628
1738771803767548400,3.63354833984375,0.0012455822434276342,0.0007007245440036058,0.001603672280907631
1738771803777539300,3.643539306640625,0.0006445252802222967,0.00033713853918015957,0.0016662504058331251
1738771803787531300,3.65353125,0.0007012506248429418,-0.0000937609001994133,-0.000310613977489993
1738771803797522400,3.6635224609375,0.0010140349622815847,0.0012249404098838568,-0.00001724989851936698
1738771803807514400,3.673514404296875,0.0007740841247141361,0.001174340257421136,0.00014067556185182184
1738771803817505300,3.68350537109375,-0.001126919174566865,-0.0015391958877444267,-0.0002626643981784582
1738771803827497200,3.693497314453125,-0.00023422751110047102,0.00014738412573933601,-0.00043310667388141155
1738771803837488600,3.703488525390625,-0.0004920366336591542,-0.00003625708632171154,-0.0007053958252072334
1738771803847480600,3.71348046875,0.0007442027563229203,0.0003323242999613285,0.0002144599857274443
1738771803857471700,3.7234716796875,-0.00020962709095329046,0.0007443791255354881,-0.00048340519424527884
1738771803867463700,3.733463623046875,-0.00027780403615906835,-0.00022767460905015469,0.00012912185047753155
1738771803877454600,3.74345458984375,0.00046300666872411966,0.00035214144736528397,0.0005010695895180106
1738771803887445800,3.75344580078125,0.0006694016046822071,-0.0011424242984503508,0.001362069509923458
1738771803897437700,3.763437744140625,0.0006781478878110647,0.000360134057700634,0.001611754996702075
1738771803907428600,3.7734287109375,-0.001028671977110207,0.0008871736936271191,-0.00010678281978471205
1738771803918669800,3.784669921875,0.0013801740715280175,0.0006892429664731026,0.0011842745589092374
1738771803928660700,3.79466064453125,-0.0032731671817600727,0.0009281286038458347,-0.0008647615904919803
1738771803938652400,3.80465234375,0.0005687063094228506,0.0000899164006114006,-0.00019503636576700956
1738771803948643600,3.8146435546875,-0.00016366294585168362,-0.0012645672541111708,0.000164490396855399
1738771803958635500,3.824635498046875,0.000692668603733182,0.00004536611959338188,-0.0004375153803266585
1738771803968626400,3.83462646484375,0.0005235578864812851,0.00007519358769059181,0.0018773041665554047
1738771803978618600,3.84461865234375,0.0003581622149795294,-0.0016021437477320433,0.00044127326691523194
1738771803988609500,3.854609619140625,0.00010835775174200535,-0.0004822846967726946,-0.00047006047680042684
1738771803998601700,3.864601806640625,0.00020523369312286377,-0.00033115106634795666,0.00045750720892101526
1738771804008592600,3.874592529296875,-0.0015351420734077692,-0.0001732255332171917,0.001476965262554586
1738771804018583600,3.88458349609375,0.0014998933766037226,-0.0006895703263580799,-0.0001552549801999703
1738771804028575700,3.89457568359375,0.0005086648743599653,-0.00009914743714034557,-0.000309718307107687
1738771804038566700,3.904566650390625,0.0005634468980133533,-0.0013189450837671757,0.00039042168646119535
1738771804048558600,3.91455859375,-0.0015878545818850398,-0.0017439855728298426,0.0009600719204172492
1738771804058549800,3.9245498046875,0.000022204825654625893,0.00032931193709373474,0.0014575185487046838
1738771804068541400,3.93454150390625,-0.0002318606711924076,-0.00047522876411676407,0.001282548881135881
1738771804078532600,3.94453271484375,-0.00030294543830677867,-0.00036247260868549347,-0.00004128725049667992
1738771804088524500,3.954524658203125,-0.0011383790988475084,0.00111717963591218,-0.0004876330494880676
1738771804098515500,3.964515380859375,0.001462660264223814,-0.0021130782552063465,0.000027409718313720077
1738771804108507600,3.974507568359375,-0.0013893188443034887,-0.00012316438369452953,-0.0001374399580527097
1738771804118498600,3.98449853515625,0.0007828820962458849,-0.0013541730586439371,-0.001269158674404025
1738771804128489500,3.994489501953125,-0.0011311317794024944,0.0002623656764626503,-0.0005322619108483195
1738771804138481700,4.004481689453125,0.0013166639255359769,-0.0000936463475227356,0.0001228332257596776
1738771804148472600,4.01447265625,-0.0007757818093523383,-0.0010840760078281164,-0.0006137971067801118
1738771804158464800,4.02446484375,0.0002922172425314784,0.00008416734635829926,0.00017500415560789406
1738771804168455700,4.03445556640625,-0.0004603920388035476,-0.0017600713763386011,0.000619485683273524
1738771804178447400,4.044447265625,0.00030140101443976164,-0.0010086125694215298,0.000027168323867954314
1738771804188438500,4.0544384765625,-0.000709268671926111,0.0010020742192864418,0.000024505163310095668
1738771804198430500,4.064430419921875,-0.00038576009683310986,0.0000540195032954216,-0.0006903609610162675
1738771804208421600,4.074421630859375,0.0004795009735971689,-0.0011606484185904264,0.0011568075278773904
1738771804218413600,4.08441357421875,0.002524799667298794,0.00006776722148060799,0.0004817415028810501
1738771804228404500,4.094404541015625,0.00029120640829205513,-0.0012835205998271704,0.000194386433577165
1738771804238396700,4.104396728515625,-0.00039422360714524984,0.0015293322503566742,0.002617448568344116
1738771804248387600,4.1143876953125,-0.0006626702379435301,-0.000763649120926857,-0.0007530479924753308
1738771804258378500,4.12437841796875,0.00015343609265983105,-0.00039240135811269283,0.00011525932495715097
1738771804268370700,4.13437060546875,0.0007278799312189221,0.0001785801723599434,-0.0006115173455327749
1738771804278361600,4.144361572265625,0.00023640249855816364,-0.00012112315744161606,0.0004543106770142913
1738771804288353800,4.154353759765625,0.0010207033483311534,0.00007967930287122726,-0.0005054925568401814
1738771804298344700,4.1643447265625,-0.0013634262140840292,0.0012845899909734726,-0.0006803332362323999
1738771804308336400,4.17433642578125,-0.0004646093584597111,0.0005900375545024872,-0.000060083002608735114
1738771804318327600,4.18432763671875,-0.00005997775588184595,-0.0003177786711603403,0.0005068958853371441
1738771804328319500,4.194319580078125,-0.0001057841582223773,-0.0014877051580697298,-0.00047527789138257504
1738771804338310700,4.204310546875,0.00005192903336137533,-0.00046758330427110195,0.0004111981252208352
1738771804348302600,4.214302490234375,-0.00007883214857429266,0.0003081955946981907,0.000966999854426831
1738771804358293500,4.22429345703125,0.00036442175041884184,-0.0013814009726047516,-0.00038345728535205126
1738771804368284700,4.23428466796875,0.0005423208931460977,0.0005134381353855133,-0.00014989807095844299
1738771804378276600,4.244276611328125,0.0013905970845371485,0.0007085814140737057,-0.00044958674698136747
1738771804388267500,4.254267578125,0.0008081637788563967,-0.0007521624211221933,0.0011837298516184092
1738771804398259700,4.264259765625,0.0003045520279556513,0.0014338581822812557,-0.00017054995987564325
1738771804408250600,4.274250732421875,-0.0012989372480660677,-0.00015764683485031128,0.00003318185918033123
1738771804418242800,4.284242919921875,0.0012651605065912008,-0.00043484289199113846,0.00006795141962356865
1738771804428233700,4.294233642578125,-0.001340209972113371,-0.0009424414020031691,-0.0002604163601063192
1738771804438225400,4.304225341796875,-0.0008494531502947211,0.0004915539175271988,0.00033567773061804473
1738771804448216600,4.314216552734375,0.000054690055549144745,0.00007130717858672142,0.0003069155791308731
1738771804458208500,4.32420849609375,-0.0005414971965365112,-0.0005688492674380541,0.00005556230462389067
1738771804468199400,4.334199462890625,0.0016247180756181479,-0.00044607766903936863,0.0001280002761632204
1738771804478191600,4.344191650390625,0.0001392402919009328,-0.00004610838368535042,-0.00012686659465543926
1738771804488182500,4.3541826171875,0.0007192767225205898,0.0009757464285939932,0.0008491819025948644
1738771804498173700,4.364173583984375,0.0000382494181394577,-0.0011659772135317326,-0.0013446783414110541
1738771804508165600,4.37416552734375,0.00041588558815419674,-0.0012719710357487202,-0.00005890418105991557
1738771804518156500,4.384156494140625,-0.00008140690624713898,0.0005774765741080046,-0.0005598870920948684
1738771804528148700,4.394148681640625,0.0014333990402519703,0.0003519065212458372,0.0006656995974481106
1738771804538139600,4.4041396484375,-0.00023598445113748312,-0.00011306977830827236,-0.00008298971079057083
1738771804548131600,4.414131591796875,-0.00026288238586857915,0.0005508563481271267,-0.0010126992128789425
1738771804558122800,4.424122802734375,0.000013992656022310257,-0.00023241480812430382,-0.0012628372060135007
1738771804568114400,4.434114501953125,1.4423858374357224e-7,-0.00043694558553397655,0.000042910673073492944
1738771804578105600,4.444105712890625,0.0003300465177744627,0.0011187833733856678,0.0007095113396644592
1738771804588097500,4.45409765625,-0.0006798241520300508,0.0005107838660478592,-0.0020596436224877834
1738771804598088400,4.46408837890625,0.0002274784492328763,0.000802233349531889,-0.00017495008069090545
1738771804608080600,4.47408056640625,0.000025610788725316525,-0.0013645144645124674,-0.00013340477016754448
1738771804618071600,4.484071533203125,-0.00017666170606389642,0.0003590071573853493,-0.0009638782357797027
1738771804628062500,4.4940625,0.0003325346624478698,0.00023543648421764374,-0.00022378581343218684
1738771804638054700,4.5040546875,-0.0005004515987820923,0.0012695924378931522,-0.00004947471461491659
1738771804648045600,4.514045654296875,0.00014722917694598436,0.0004392191767692566,-0.0004619983665179461
1738771804658037800,4.524037841796875,-0.0015101446770131588,0.00024026446044445038,-0.00008132388029480353
1738771804668028700,4.534028564453125,-0.0003530012327246368,-0.0010915824677795172,0.00037514191353693604
1738771804678020600,4.5440205078125,-0.0012037830892950296,0.0005914235953241587,0.00043763633584603667
1738771804688011500,4.554011474609375,-0.0004652885254472494,0.0006580029148608446,0.00011592650844249874
1738771804698003500,4.56400341796875,-0.0004041647771373391,0.0010528021957725286,-0.0008284787181764841
1738771804707994600,4.57399462890625,0.00013991899322718382,-0.0009610804263502359,0.0006280040834099054
1738771804717986600,4.583986572265625,0.0005601418670266867,-0.001812214613892138,0.00023459679505322129
1738771804727977500,4.5939775390625,0.00016146665439009666,0.000017377082258462906,0.00005509973561856896
1738771804737969700,4.6039697265625,-0.00008928915485739708,0.0003869221545755863,0.00030245253583416343
1738771804747960600,4.613960693359375,-0.00038303586188703775,0.00007719662971794605,-0.00022325545432977378
1738771804757951500,4.623951416015625,0.00016940617933869362,-0.00020859390497207642,-0.001228692359291017
1738771804767943700,4.633943603515625,-0.0007957234047353268,-0.0005931544583290815,-0.00004917837941320613
1738771804777934600,4.6439345703125,0.0007043497171252966,-0.0016043407376855612,0.0005521753337234259
1738771804787926800,4.6539267578125,-0.0011942177079617977,0.0007144734263420105,-0.00011334857845213264
1738771804797917700,4.663917724609375,-0.00006685697007924318,0.00023939413949847221,-0.0009034557151608169
1738771804807909400,4.673909423828125,0.0005653774132952094,-0.0019214946078136563,0.00020069089077878743
1738771804817900500,4.683900634765625,0.00033721618819981813,-0.0007828024681657553,-0.001871902379207313
1738771804827892500,4.693892578125,-0.000546420575119555,-0.00045123882591724396,0.00024184862559195608
1738771804837883100,4.703883056640625,0.00105491210706532,0.0013944758102297783,0.0005666512297466397
1738771804847875000,4.713875,0.0014562506694346666,0.0015231063589453697,-0.0011010202579200268
1738771804857866200,4.7238662109375,-0.0005874322960153222,-0.000112087931483984,-0.001281591597944498
1738771804867857200,4.733857177734375,0.00011431064922362566,0.00023625348694622517,0.001087290234863758
1738771804877849300,4.743849365234375,-0.00024792138719931245,0.0009331165347248316,-0.0004086023254785687
1738771804887840300,4.75384033203125,-0.0005374070024117827,-0.0010930164717137814,0.0009480118751525879
1738771804897832200,4.763832275390625,0.0004287618212401867,0.0006911843083798885,-0.0006262704264372587
1738771804907823400,4.7738232421875,0.0002511290367692709,0.001158036757260561,-0.0007213453063741326
1738771804917815300,4.783815185546875,0.0016147480346262455,-0.0013121434021741152,0.0004564925911836326
1738771804927806200,4.79380615234375,-0.0004990029847249389,-0.0011148033663630486,0.00042879569809883833
1738771804937798100,4.803798095703125,-0.0019567529670894146,-0.0003387399483472109,0.0003311828477308154
1738771804947789300,4.813789306640625,-0.0005386195844039321,-0.00007295655086636543,0.0007825886714272201
1738771804957781200,4.82378125,0.0007833450799807906,-0.0009971666149795055,0.000152328415424563
1738771804967772200,4.833772216796875,-0.0005311912973411381,0.00033414759673178196,0.00007829253445379436
1738771804977763000,4.84376318359375,-0.0004118887591175735,-0.0015649774577468634,-0.0006541026523336768
1738771804987755300,4.85375537109375,0.0015372787602245808,-0.0003782727289944887,-0.0007747438503429294
1738771804997746200,4.86374609375,0.0004255942767485976,-0.00010825903154909611,-0.0009643378434702754
1738771805007738000,4.873738037109375,0.0014482481637969613,0.0005482104606926441,0.00047190493205562234
1738771805017729300,4.883729248046875,-0.00037828582571819425,0.0008075141813606024,-0.00029385084053501487
1738771805027721200,4.89372119140625,-0.00016043928917497396,-0.0010859936010092497,-0.0009945285273715854
1738771805037712400,4.90371240234375,0.0005960960406810045,0.00010152510367333889,-0.0012608007527887821
1738771805047704300,4.913704345703125,0.0012680116342380643,-0.00016425852663815022,0.0012529571540653706
1738771805057695200,4.9236953125,0.002015224192291498,0.00027927663177251816,-0.00023266747302841395
1738771805067687200,4.933687255859375,0.001332922256551683,-0.000021127751097083092,-0.00014451684546656907
1738771805077678000,4.943677978515625,0.0007175809005275369,0.0012602428905665874,-0.0013855163706466556
1738771805087669200,4.953669189453125,-0.0009615421295166016,-0.00018798396922647953,0.0010336991399526596
1738771805097661200,4.9636611328125,0.0005646973149850965,0.0018841130658984184,-0.0004891788121312857
1738771805107652000,4.973652099609375,0.0012813539942726493,0.0016276505775749683,0.0015824942383915186
1738771805117644300,4.983644287109375,0.00008259562309831381,-0.000778719549998641,-0.0006983001949265599
1738771805127635200,4.99363525390625,0.0021883570589125156,-0.0006543498020619154,0.0005637718131765723
1738771805137627100,5.003627197265625,0.0004389866953715682,0.00012228102423250675,-0.0008547625620849431
1738771805147618300,5.013618408203125,-0.0000513013219460845,-0.00003271503373980522,0.0008845479460433125
1738771805157610200,5.0236103515625,0.00005732499994337559,0.0004281424917280674,0.00040392379742115736
1738771805167601200,5.03360107421875,-0.0016420381143689156,-0.0004267322365194559,-0.000891437754034996
1738771805177593300,5.04359326171875,0.00035675126127898693,-0.0010427734814584255,0.002426356077194214
1738771805187584300,5.053584228515625,-0.0009426050237379968,0.000014235265552997589,0.00031846403726376593
1738771805197575400,5.063575439453125,0.0001642913557589054,0.000934861833229661,-0.00007425792136928067
1738771805207567000,5.073567138671875,0.00009584811050444841,-0.0005775471217930317,-0.0017107704188674688
1738771805217558300,5.083558349609375,0.0009101945906877518,0.00007771351374685764,0.0004322250606492162
1738771805227550200,5.09355029296875,0.00022336526308208704,0.0005570824723690748,-0.0004253127845004201
1738771805237541000,5.103541015625,0.0011630229419097304,-0.001120039727538824,-0.00006480624142568558
1738771805247533300,5.113533203125,-0.00004285643808543682,-0.000020420411601662636,0.00038367006345652044
1738771805257524200,5.123524169921875,-0.0006886536139063537,-0.00040735863149166107,0.0000159680494107306
1738771805267516200,5.13351611328125,-0.0006138188182376325,0.000737267779186368,0.0008258353918790817
1738771805277507300,5.14350732421875,-0.0004909180570393801,-0.0012493885587900877,0.0005751046119257808
1738771805287499300,5.153499267578125,0.0008590383222326636,-0.00012074108235538006,0.002235851949080825
1738771805297490200,5.163490234375,0.0009661238873377442,-0.0004788283258676529,0.0003355113440193236
1738771805307481300,5.1734814453125,-0.0005532095674425364,0.00026872078888118267,-0.001052794512361288
1738771805317473300,5.183473388671875,-0.00007607985753566027,0.0001016189344227314,-0.0005851226742379367
1738771805327464400,5.19346435546875,-0.0006827479228377342,-0.00015271292068064213,0.001166438334621489
1738771805337456000,5.2034560546875,0.00010503269731998444,-0.00040848529897630215,0.0005516727105714381
1738771805347447000,5.213447021484375,0.0001154190395027399,0.001007517334073782,-0.00009068172221304849
1738771805357439200,5.223439208984375,0.0007365562487393618,-0.00014211703091859818,0.00020098834647797048
1738771805367430100,5.23343017578125,0.0010364281479269266,0.0012472542002797127,0.00047263081069104373
1738771805377422300,5.24342236328125,0.0010086656548082829,0.0005457359366118908,0.0008228509686887264
1738771805387413200,5.253413330078125,-0.0003279750235378742,0.00003387616015970707,-0.00004587216244544834
1738771805397405200,5.2634052734375,-0.0003211766597814858,-0.0005754174198955297,0.000658746634144336
1738771805407396400,5.273396240234375,0.000045806984417140484,-0.000498984707519412,-0.0008938763057813048
1738771805417387300,5.28338720703125,0.0008389119757339358,-0.0006012378726154566,0.0015513686230406165
1738771805427379200,5.293379150390625,0.0009939080337062478,-0.0002283952198922634,0.00020114597282372415
1738771805437370400,5.303370361328125,-0.0023451754823327065,-0.00004832679405808449,-0.0010641776025295258
1738771805447362300,5.3133623046875,0.001185110886581242,-0.0007759025320410728,-0.0006609749398194253
1738771805457353200,5.323353271484375,0.0001338731963187456,-0.0006145471706986427,0.0005008777370676398
1738771805467345200,5.33334521484375,0.0003764871507883072,0.0006781513802707195,-0.0000338850513799116
1738771805477336000,5.343336181640625,-0.0005184901528991759,0.000020779669284820557,-0.0007764649344608188
1738771805487328300,5.353328369140625,0.0003361182752996683,-0.00015019532293081284,0.0007769569638185203
1738771805497319200,5.363319091796875,0.00037618493661284447,0.0009273223113268614,0.00003990757977589965
1738771805507310000,5.37331005859375,0.0005471599288284779,0.0005827092099934816,-0.00033613076084293425
1738771805517302300,5.38330224609375,-0.0004814963904209435,0.0001579844392836094,-0.0013946995604783297
1738771805527293200,5.393293212890625,0.000013318960554897785,0.0000634421594440937,0.0010151949245482683
1738771805537285400,5.403285400390625,0.0002448584418743849,-0.0012313122861087322,-0.0010544329416006804
1738771805547276300,5.4132763671875,-0.00023184739984571934,0.0008118648547679186,-0.0000893033720785752
1738771805557268200,5.423268310546875,-0.00034847535425797105,0.0009098579175770283,-0.0003449571959208697
1738771805567259400,5.43325927734375,-0.000687495747115463,-0.0000928221270442009,-0.00018862963770516217
1738771805577251000,5.4432509765625,-0.0003518359153531492,-0.00007928884588181973,-0.00028466712683439255
1738771805587242200,5.4532421875,-0.00033239484764635563,-0.00009713205508887768,-0.000937407894525677
1738771805597234200,5.463234130859375,0.0008760180789977312,0.0004949676804244518,-0.00013495799794327468
1738771805607225000,5.47322509765625,-0.0016313481610268354,0.000432649627327919,-0.00024041917640715837
1738771805617216000,5.483216064453125,-0.0011625640327110887,0.000043626874685287476,0.00006899307481944561
1738771805627208200,5.493208251953125,0.00020896387286484241,7.499475032091141e-7,-0.00029799051117151976
1738771805637199000,5.50319921875,0.0005108804907649755,0.0000566728413105011,0.0003322397533338517
1738771805647191300,5.51319140625,-0.0005858092335984111,0.00011126766912639141,0.00034262609551660717
1738771805657182200,5.52318212890625,0.00029796664603054523,-0.0009813227225095034,-0.00021194448345340788
1738771805667174400,5.53317431640625,0.0002399097429588437,-0.00007957639172673225,0.00003413160447962582
1738771805677165300,5.543165283203125,0.000014531775377690792,-0.00037171202711761,-0.0003624308155849576
1738771805687157200,5.5531572265625,-0.00019585795234888792,-0.0007200536783784628,0.00024317202041856945
1738771805697148400,5.5631484375,-0.0006110486574470997,0.0010866625234484673,-0.0007186706643551588
1738771805707139300,5.573139404296875,-0.001480837119743228,0.00032526440918445587,-0.00034236599458381534
1738771805717131300,5.58313134765625,0.0004324171459302306,0.002016633516177535,0.0015857944963499904
1738771805727122400,5.593122314453125,-0.0007068831473588943,0.0002496258821338415,-0.0004962648381479084
1738771805737114000,5.603114013671875,-0.0008166376501321793,-0.00014062155969440937,-0.0020591048523783684
1738771805747105000,5.61310498046875,-0.00042408768786117435,-0.0016575579065829515,-0.0009791930206120014
1738771805757097200,5.62309716796875,0.0016729518538340926,-0.0008649223018437624,-0.0030500467400997877
1738771805767088000,5.633088134765625,0.0001679996494203806,0.0003156568855047226,0.000995294889435172
1738771805777080300,5.643080322265625,0.0006141018820926547,-0.0019841131288558245,-0.00024561374448239803
1738771805787071200,5.6530712890625,-0.00010361999738961458,-0.0002141762524843216,0.00007902557263150811
1738771805797063200,5.663063232421875,0.0006825880846008658,-0.00027453829534351826,0.001255446346476674
1738771805807054300,5.673054443359375,0.0016458535101264715,-0.0007041061762720346,-0.0006591001292690635
1738771805817045200,5.683045166015625,0.00025595456827431917,0.00043730344623327255,0.0003281202807556838
1738771805827037400,5.693037353515625,-0.000038857338950037956,0.00007031974382698536,0.00010388213559053838
1738771805837028900,5.70302880859375,0.0006432199152186513,0.0004184609279036522,-0.001573172165080905
1738771805847021000,5.71302099609375,-0.00007503456436097622,-0.00020285439677536488,0.000039904494769871235
1738771805857012000,5.723011962890625,0.00021700805518776178,-0.0007532506715506315,-0.0002567971823737025
1738771805867004000,5.73300390625,-0.0008439952507615089,0.0017048469744622707,-0.00114762457087636
1738771805876995000,5.7429951171875,0.00015299860388040543,-0.0002687934320420027,-0.0015390135813504457
1738771805886987000,5.752987060546875,-0.0004989431472495198,-0.0017106288578361273,-0.0013448691461235285
1738771805896978000,5.76297802734375,0.00011115416418761015,0.0005036704242229462,-0.0000708015140844509
1738771805906969000,5.772968994140625,0.0005154220853000879,0.00038356147706508636,0.0010437313467264175
1738771805916961000,5.7829609375,0.001318692578934133,0.0005455452483147383,-0.001011448446661234
1738771805926952200,5.7929521484375,-0.000865632202476263,0.00048642302863299847,-0.00008946211892180145
1738771805936944000,5.802944091796875,0.0008755413582548499,-0.0003523083869367838,-0.0008717008167877793
1738771805946935000,5.81293505859375,0.0009224129607900977,-0.00029771379195153713,0.00097120669670403
1738771805956927000,5.822927001953125,-0.00019358796998858452,-0.00001305784098803997,-0.00004374515265226364
1738771805966918000,5.83291796875,-0.000522488378919661,-0.0001946853008121252,0.001076913089491427
1738771805976910000,5.84291015625,-0.0017061808612197638,0.0002458046656101942,0.0007911135326139629
1738771805986901000,5.85290087890625,0.0008355400059372187,-0.0004223824944347143,-0.000123415986308828
1738771805996892000,5.862891845703125,-0.00030350463930517435,-0.00015792041085660458,0.0012597173918038607
1738771806006884000,5.872884033203125,0.00020249595399945974,-0.0007755074184387922,0.0006639682687819004
1738771806016875000,5.882875,-0.0005545081221498549,0.00015412666834890842,0.00007544826075900346
1738771806026867000,5.892866943359375,-0.0019127202685922384,-0.0004573350306600332,0.0000386966421501711
1738771806036858000,5.902858154296875,0.0004098261706531048,0.0011099160183221102,-0.0002599411818664521
1738771806046850000,5.91285009765625,0.0011507176095619798,-0.0011471128091216087,0.00016323513409588486
1738771806056841200,5.92284130859375,-0.0007353594992309809,0.00020246650092303753,-0.000509273842908442
1738771806066833000,5.9328330078125,-0.0006000709254294634,0.0005342962685972452,0.0005663769552484155
1738771806076824000,5.942823974609375,-0.00013335852418094873,0.0001164174173027277,0.0004401959013193846
1738771806086815200,5.952815185546875,0.00027277355547994375,0.00006688246503472328,-0.0010184174170717597
1738771806096807000,5.962806884765625,0.0007119915680959821,0.001212007598951459,0.0008153804228641093
1738771806106797800,5.9727978515625,0.00009467080235481262,0.0016916429158300161,-0.0008847815915942192
1738771806116790000,5.9827900390625,0.0008708738023415208,-0.0001260647550225258,-0.00007336281123571098
1738771806126781000,5.992781005859375,0.001353971310891211,0.00031815050169825554,-0.0005577917909249663
1738771806136773000,6.002773193359375,-0.0008521114941686392,0.0021739595104008913,-0.00029200376593507826
1738771806146764000,6.012763916015625,0.0015540546737611294,-0.0002106351312249899,0.000009466064511798322
1738771806156756000,6.022755859375,0.0007264303276315331,-0.0005852654576301575,-0.0011444538831710815
1738771806166747100,6.0327470703125,0.0017352357972413301,-0.00004677451215684414,-0.0015039806021377444
1738771806176739000,6.042739013671875,0.00035687757190316916,0.0010342698078602552,-0.00003723394183907658
1738771806186730000,6.05272998046875,-0.001148607349023223,-0.00032820343039929867,0.0004948656423948705
1738771806196721200,6.06272119140625,-0.00021779164671897888,-0.00020349468104541302,0.0006639546481892467
1738771806206713000,6.072713134765625,-0.0005658668233081698,-0.0010868653189390898,-0.0016138470964506269
1738771806216704300,6.082704345703125,0.0010807036887854338,0.0016116127371788025,0.0003416861000005156
1738771806226696000,6.092696044921875,0.0003233005991205573,-0.00002463371492922306,0.001144895562902093
1738771806236686800,6.102686767578125,0.00018201698549091816,-0.0003360533155500889,-0.000006941379979252815
1738771806246679000,6.112678955078125,-0.000368724693544209,-0.0004124860279262066,0.001385359326377511
1738771806256670000,6.122669921875,0.0008726665982976556,-0.0006042623426765203,-0.000498610024806112
1738771806266662100,6.132662109375,0.0005632071988657117,-0.0002500619739294052,0.001111537218093872
1738771806276653000,6.142653076171875,-0.00003376288805156946,0.00039663445204496384,0.00023249669175129384
1738771806286644000,6.15264404296875,0.002346570370718837,-0.0003700896631926298,0.0002231756370747462
1738771806296636200,6.16263623046875,0.00022397725842893124,0.001280786469578743,-0.0001819671888370067
1738771806306627000,6.172626953125,-0.0003480697050690651,-0.000544810201972723,0.00031018495792523026
1738771806316619000,6.182618896484375,0.0001217859098687768,0.0005788230337202549,-0.000988939544185996
1738771806326610200,6.192610107421875,-0.00010058807674795389,-0.0007695355452597141,0.0007793992990627885
1738771806336601900,6.202601806640625,0.0007648756727576256,0.0001370671670883894,-0.00045992369996383786
1738771806346593000,6.212593017578125,0.0003371720667928457,0.0016002077609300613,-0.0005504711880348623
1738771806356584200,6.222584228515625,-0.0013796343700960279,-0.0002518820110708475,-0.001089763012714684
1738771806366575900,6.232575927734375,0.000017459969967603683,-0.00011899019591510296,0.00003888468199875206
1738771806376567000,6.242567138671875,0.001046481542289257,0.001675289124250412,0.001570125576108694
1738771806386559000,6.25255908203125,0.0009942834731191397,0.0002792603336274624,-0.0014517633244395256
1738771806396550000,6.2625498046875,-0.000960259698331356,0.000809820368885994,0.00022981979418545961
1738771806406542000,6.2725419921875,7.613562047481537e-8,-0.0007073823362588882,0.00005777960177510977
1738771806416533000,6.282532958984375,0.0000020264415070414543,-0.0005968860350549221,-0.00027059251442551613
1738771806426525200,6.292525146484375,0.0010662254644557834,0.00005345791578292847,0.000203716495889239
1738771806436516000,6.30251611328125,0.0006352522177621722,-0.0013332339003682137,0.001615371904335916
1738771806446508000,6.312508056640625,0.0007921124342828989,-0.0002780894283205271,0.0015397381503134966
1738771806456499200,6.322499267578125,0.0000596905592828989,0.001550563145428896,-0.00038472283631563187
1738771806466490000,6.332489990234375,-0.0012905321782454848,0.002077602781355381,0.0011271536350250244
1738771806476481800,6.342481689453125,-0.0004508491256274283,0.00026856688782572746,-0.0004074521129950881
1738771806486473000,6.352472900390625,0.00005062413401901722,-0.00042225723154842854,0.0000026746856747195125
1738771806496465000,6.36246484375,0.00034393835812807083,0.0010373960249125957,0.0007474852609448135
1738771806506456000,6.3724560546875,0.0017450273735448718,-0.0004542407114058733,0.0003975459258072078
1738771806516448000,6.382447998046875,-0.0013390647945925593,-0.00127238011918962,-0.001308842096477747
1738771806526439000,6.39243896484375,0.0004460520576685667,-0.000620704609900713,0.00021714920876547694
1738771806536431000,6.40243115234375,-0.000012625358067452908,-0.0012804069556295872,-0.001174239907413721
1738771806546422000,6.412422119140625,0.00005075789522379637,-0.00038638385012745857,-0.0011510703479871154
1738771806556413000,6.422412841796875,-0.00036646961234509945,-0.0000739505048841238,-0.0004979666555300355
1738771806566405000,6.432405029296875,-0.0010458420729264617,0.0007630810141563416,-0.00014349988487083465
1738771806576396000,6.44239599609375,0.00038604240398854017,0.0008138855919241905,-0.00044744694605469704
1738771806586388200,6.45238818359375,-0.0029431753791868687,-0.00009425240568816662,-0.0002783361996989697
1738771806596379100,6.462379150390625,0.00107450014911592,0.0005224181804805994,0.00108588975854218
1738771806606370800,6.472370849609375,0.00041696580592542887,-0.000015806639567017555,-0.0008994968375191092
1738771806616362000,6.482362060546875,0.0012699729995802045,-0.0005754211451858282,-0.00010182968981098384
1738771806626354000,6.49235400390625,0.0008646397618576884,-0.0002683587372303009,0.0008036451181396842
1738771806636344800,6.5023447265625,-0.0020655780099332333,0.0002913868520408869,-0.00038128677988424897
1738771806646336000,6.5123359375,0.0003911880776286125,0.0008205568883568048,0.0009513590484857559
1738771806656328000,6.522327880859375,0.00030750210862606764,0.00012877280823886395,-0.0003676546912174672
1738771806666319000,6.532319091796875,0.00022068305406719446,0.0009128076490014791,0.0005996053805574775
1738771806676311000,6.54231103515625,0.000042255851440131664,-0.00015820586122572422,-0.0005102253053337336
1738771806686302000,6.552302001953125,0.0015498714055866003,0.0008034615311771631,-0.0015637718606740236
1738771806696294100,6.562294189453125,0.0009884561877697706,0.00017249002121388912,-0.0013352365931496024
1738771806706285000,6.57228515625,-0.0012786927400156856,0.000010303454473614693,0.0007564100669696927
1738771806716277200,6.58227734375,0.0006559158209711313,-0.000420386902987957,0.0007314102258533239
1738771806726268200,6.59226806640625,-0.0005539582343772054,-0.0006600713822990656,0.00004005359369330108
1738771806736259000,6.602259033203125,0.00009158824104815722,-0.00023792940191924572,-0.0001936345943249762
1738771806746251000,6.6122509765625,-0.00008790881838649511,0.0007264013402163982,0.0001879963674582541
1738771806756242000,6.622241943359375,-0.00024916185066103935,-0.00031320727430284023,-0.0005121419671922922
1738771806766233900,6.63223388671875,-0.0012944524642080069,-0.0008349204435944557,0.0005667046061716974
1738771806776225000,6.64222509765625,-0.0006267368444241583,0.0001432560384273529,-0.0006926886853761971
1738771806786217000,6.652217041015625,0.0008092395728453994,0.0011411425657570362,-0.0000037289282772690058
1738771806796207900,6.662207763671875,0.0003205244429409504,0.0017674295231699944,-0.0010237779933959246
1738771806806199000,6.672198974609375,-0.0006179735064506531,0.0014004455879330635,0.000194884545635432
1738771806816191000,6.68219091796875,0.0004103184910491109,-0.0002282615751028061,0.0008023023256100714
1738771806826182100,6.69218212890625,-0.0006799796246923506,0.00012593879364430904,0.0003769954782910645
1738771806836173800,6.702173828125,-0.00044324423652142286,0.0003966852091252804,-0.0016701666172593832
1738771806846164700,6.712164794921875,0.0005221517058089375,-0.0017753888387233019,-0.0003729407908394933
1738771806856157000,6.722156982421875,-0.0004052481963299215,0.00000997656024992466,0.0012304969131946564
1738771806866147800,6.73214794921875,-0.0005623747128993273,0.000843279529362917,-0.001216415548697114
1738771806876139500,6.742139404296875,-0.0019283595029264688,0.0009808989707380533,0.0009123653871938586
1738771806886130700,6.752130615234375,0.00021122407633811235,-0.00019941432401537895,-0.0003712782636284828
1738771806896121900,6.762121826171875,0.001011851360090077,0.0013611579779535532,0.0004966172855347395
1738771806906113500,6.772113525390625,0.00023846945259720087,0.00020667770877480507,-0.000409390137065202
1738771806916104700,6.782104736328125,0.0003160332562401891,-0.0009959246963262558,0.0006140699842944741
1738771806926096600,6.7920966796875,0.0008502632845193148,-0.0007162927649915218,-0.0010426824446767569
1738771806936087600,6.802087646484375,0.00046946003567427397,0.00044930027797818184,-0.0005867000436410308
1738771806946079700,6.812079833984375,0.00006279535591602325,-0.0005738863255828619,-0.00021012904471717775
1738771806956070700,6.822070556640625,-0.0003314909990876913,-0.0005731107667088509,0.0002732480061240494
1738771806966062800,6.832062744140625,-0.0012422921136021614,-0.0003262357786297798,-0.0005470055621117353
1738771806976053800,6.8420537109375,-0.00006176275201141834,0.0005731340497732162,-0.0005409563891589642
1738771806986044700,6.852044677734375,-0.002027175622060895,0.0004980331286787987,0.00017942869453690946
1738771806996036900,6.862036865234375,-0.0015621824422851205,0.0007342863827943802,0.0006197065231390297
1738771807006027800,6.87202783203125,0.0007473108125850558,-0.0006867765914648771,0.0005842864629812539
1738771807016019700,6.882019775390625,-0.0007616872317157686,-0.0005370976869016886,-0.00003755811485461891
1738771807026010600,6.8920107421875,-0.0005944406730122864,-0.0002089962363243103,0.0007360901799984276
1738771807036002600,6.90200244140625,0.0007640797412022948,-0.0011897135991603136,-0.0017999199917539954
1738771807045993700,6.91199365234375,-0.0005762893124483526,0.00017036288045346737,0.0005910660838708282
1738771807055985700,6.921985595703125,0.0002715445589274168,0.001489441143348813,0.00019202171824872494
1738771807065976600,6.9319765625,0.0005383933894336224,-0.0003087250515818596,0.0008096087258309126
1738771807075967700,6.9419677734375,-0.00024311314336955547,0.0006523644551634789,0.0010513931047171354
1738771807085959700,6.951959716796875,0.0002487726742401719,0.00010481872595846653,-0.002170765306800604
1738771807095950800,6.961950927734375,-0.00035673310048878193,0.0007759267464280128,0.0006124385399743915
1738771807105942800,6.97194287109375,-0.0014198670396581292,0.000208407174795866,0.00008486630395054817
1738771807115933700,6.98193359375,-0.00079915183596313,-0.0003366654273122549,0.0010643426794558764
1738771807125926000,6.99192578125,0.00045013707131147385,0.0010969140566885471,0.001211615395732224
1738771807135916800,7.001916748046875,-0.001760185114108026,0.0010833826381713152,-0.0002572955854702741
1738771807145907700,7.01190771484375,0.0007245441665872931,0.0007467588875442743,0.0016985299298539758
1738771807155899600,7.021899658203125,-0.0005343988304957747,-0.00021611456759274006,0.0002239876484964043
1738771807165890800,7.031890869140625,-0.0010902005014941096,-0.00020199990831315517,0.00018696970073506236
1738771807175882800,7.0418828125,-0.00042190670501440763,0.0005364902317523956,-0.00045252908603288233
1738771807185873700,7.051873779296875,-0.0019082168582826853,-0.00022410880774259567,-0.0005729039548896253
1738771807195865600,7.061865478515625,-0.00025551742874085903,0.0004166793078184128,-0.00035092970938421786
1738771807205856800,7.071856689453125,0.0005040161777287722,-0.000026736874133348465,-0.0004617171944119036
1738771807215848700,7.0818486328125,-0.0019801179878413677,0.0002583602908998728,-0.0008886606665328145
1738771807225839600,7.091839599609375,0.000017252867110073566,0.0008956545498222113,-0.0013089075218886137
1738771807235830800,7.101830810546875,-0.001027689897455275,-0.00017527397722005844,0.00005677741137333214
1738771807245822700,7.11182275390625,-0.00015337415970861912,0.0003685436677187681,-0.0013392516411840916
1738771807255814000,7.12181396484375,0.00052575150039047,-0.0008070452604442835,0.0004316192353144288
1738771807265805800,7.131805908203125,-0.0007525658584199846,0.0020169708877801895,-0.0000472171523142606
1738771807275796700,7.141796630859375,0.0005954174557700753,0.0007026956882327795,-0.0009398797992616892
1738771807285788700,7.15178857421875,-0.000375304720364511,-0.0002163611352443695,-0.0008019279921427369
1738771807295779600,7.161779541015625,0.000028318376280367374,0.000989473657682538,0.0005056857480667531
1738771807305771800,7.171771728515625,0.00019876076839864254,-0.0008843264076858759,-0.000012299075024202466
1738771807315762700,7.1817626953125,0.00011735653970390558,-0.00022674747742712498,0.0009123910567723215
1738771807325753600,7.191753662109375,0.00012321549002081156,0.0005010943859815598,-0.0008317132014781237
1738771807335745800,7.201745849609375,0.000511961174197495,0.0002444488927721977,-0.002065846463665366
1738771807345736700,7.21173681640625,0.0013077136827632785,-0.000011747470125555992,0.00001940861693583429
1738771807355728600,7.221728759765625,-0.000897723832167685,-0.0011058941017836332,-0.0008447610307484865
1738771807365719800,7.2317197265625,0.00042240507900714874,0.0014326311647891998,0.00016937073087319732
1738771807375711700,7.241711669921875,0.0009910393273457885,-0.000129287363961339,0.00043293327325955033
1738771807385702700,7.25170263671875,0.000501017551869154,0.00020547187887132168,-0.000371341360732913
1738771807395694800,7.26169482421875,0.0007723767776042223,-0.00012122630141675472,0.000560568762011826
1738771807405685800,7.271685791015625,0.0003036605194211006,0.0005107419565320015,0.0018732408061623573
1738771807415677000,7.281677001953125,0.0003135497681796551,-0.00013316958211362362,0.0009231955045834184
1738771807425668600,7.291668701171875,-0.00008778867777436972,0.00010917801409959793,0.000007866983651183546
1738771807435659500,7.301659423828125,-0.00016978103667497635,0.0002711706329137087,0.0005082571296952665
1738771807445651700,7.311651611328125,-0.00031332543585449457,0.00011111469939351082,-0.0008813803433440626
1738771807455642600,7.321642578125,-0.0001505141844972968,-0.0004111826419830322,0.0005119487177580595
1738771807465634800,7.331634765625,-0.0006770211039111018,-0.000029817922040820122,-0.00043693557381629944
1738771807475625700,7.341625732421875,0.00003170024137943983,0.00033947359770536423,0.000567617011256516
1738771807485617700,7.35161767578125,-0.0007810965180397034,-0.000012063886970281601,0.0014019854133948684
1738771807495608800,7.36160888671875,0.0007337054703384638,0.0005548582412302494,0.0008494822541251779
1738771807505599700,7.371599853515625,-0.0001038586487993598,0.0005828216671943665,0.000013782366295345128
1738771807515591700,7.381591796875,-0.0007504845270887017,0.0005123654846101999,0.0011475426144897938
1738771807525582800,7.391582763671875,-0.0012045535258948803,-0.0010972493328154087,-0.0013640846591442823
1738771807535574800,7.40157470703125,-0.0008504109573550522,0.0011497887317091227,0.0013368874788284302
1738771807545566000,7.41156591796875,0.0009227215778082609,0.00045923120342195034,0.000989078776910901
1738771807555557600,7.4215576171875,-0.0003795480588451028,-0.0012199347838759422,-0.0006716105272062123
1738771807565548500,7.431548583984375,0.0014391246950253844,0.0013183238916099072,0.0002631590177770704
1738771807575539700,7.441539794921875,-0.00030640180921182036,-0.0007481910288333893,0.0005886905128136277
1738771807585531600,7.45153173828125,-0.0007964234100654721,-0.0007652353961020708,0.0001569921150803566
1738771807595522600,7.4615224609375,-0.0000705766724422574,-0.0013275723904371262,-0.0006188990664668381
1738771807605514800,7.4715146484375,0.0000681739766150713,-0.00069587049074471,0.0002013545308727771
1738771807615505700,7.481505615234375,-0.00010241044219583273,-0.00007473421283066273,0.00005162841989658773
1738771807625497900,7.491497802734375,0.0001007886603474617,0.001589474966749549,-0.0009214906021952629
1738771807635488800,7.50148876953125,0.00016046012751758099,0.000815641600638628,0.0010887040989473462
1738771807645480700,7.511480712890625,0.0002214465057477355,-0.00038304715417325497,0.001349960220977664
1738771807655471900,7.521471923828125,0.0002180722076445818,0.0002544717863202095,0.001868232386186719
1738771807665462800,7.531462890625,-0.00007221230771392584,0.00011518830433487892,-0.0005283462232910097
1738771807675454700,7.541454833984375,-0.000969936023466289,0.0015308619476854801,0.001117304083891213
1738771807685446000,7.55144580078125,0.0010689799673855305,-0.0007224385626614094,0.0012091831304132938
1738771807695437600,7.5614375,0.0000329124741256237,0.0018714966718107462,-0.0009410639177076519
1738771807705428700,7.5714287109375,0.00014583044685423374,0.00034151063300669193,0.0003993050195276737
1738771807715420700,7.581420654296875,0.0003540922189131379,0.00036657112650573254,0.0000018319260561838746
1738771807725411600,7.59141162109375,-0.0008789513958618045,-0.0004560793749988079,0.0004630913899745792
1738771807735403800,7.60140380859375,0.00045757810585200787,-0.00012426404282450676,-0.0008012013277038932
1738771807745394700,7.611394775390625,0.00016942410729825497,3.7206336855888367e-7,0.00005766811955254525
1738771807755385600,7.621385498046875,-0.00022089877165853977,-0.0005391370505094528,0.002416949952021241
1738771807765377800,7.631377685546875,0.00011465942952781916,-0.0002674947027117014,0.0008366302936337888
1738771807775368700,7.64136865234375,-0.000016161357052624226,-0.0005181764718145132,-0.00048465075087733567
1738771807785361000,7.65136083984375,0.0008831880986690521,-0.0018588118255138397,-0.0005280602490529418
1738771807795351800,7.661351806640625,-0.000927445013076067,-0.0007774187251925468,0.00012756537762470543
1738771807805343700,7.67134375,0.0008432907052338123,-0.0008360082283616066,0.001026115962304175
1738771807815335000,7.6813349609375,0.0015612912829965353,-0.0002546308096498251,0.0009040441946126521
1738771807825325800,7.691325927734375,-0.0013540710788220167,0.0014665699563920498,0.0011906002182513475
1738771807835317200,7.701317138671875,0.0003918752772733569,0.00009615859016776085,0.0009288873989135027
1738771807845308400,7.711308349609375,0.0005804271204397082,-0.0012095894198864698,-0.00008045062713790685
1738771807855300000,7.721300048828125,-0.001067301258444786,-0.002480745315551758,-0.0003298212541267276
1738771807865291000,7.731291015625,-0.0002739455085247755,0.0009773694910109043,0.0004318428400438279
1738771807875283200,7.741283203125,-0.0011096908710896969,0.0003875717520713806,-0.0007957209600135684
1738771807885274000,7.751274169921875,-0.0013227438321337104,-0.0006001945585012436,0.0005491753108799458
1738771807895266300,7.761266357421875,0.00019353767856955528,-0.0003939475864171982,-0.0004518090281635523
1738771807905257200,7.77125732421875,0.0014369675191119313,-0.000687427818775177,0.0006544680800288916
1738771807916497200,7.7824970703125,-0.001567750470712781,-0.00016576633788645267,-0.00016615938511677086
1738771807926489000,7.792489013671875,-0.00006114121060818434,0.0009783257264643908,-0.0010358779691159725
1738771807936480300,7.802480224609375,0.0016339608700945973,-0.00030265492387115955,0.0014682923210784793
1738771807946472200,7.81247216796875,-0.0003314784844405949,0.0009665177203714848,-0.00006644459790550172
1738771807956463400,7.82246337890625,0.0008903798880055547,-0.0004209890030324459,-0.000388687098165974
1738771807966455300,7.832455322265625,0.00005710346158593893,-0.0006581114139407873,-0.0003674220060929656
1738771807976446200,7.8424462890625,0.00025071529671549797,0.000877999933436513,0.00000808373442851007
1738771807986438400,7.8524384765625,-0.0007129181176424026,0.0011620528530329466,0.0008972140494734049
1738771807996429300,7.86242919921875,0.0005310444394126534,0.0008270267862826586,0.0000031909148674458265
1738771808006420200,7.872420166015625,-0.0010857798624783754,-0.00009115342982113361,-0.0014167536282911897
1738771808016412200,7.882412109375,-0.0014194739051163197,0.0007261706050485373,-0.0005983642186038196
1738771808026403000,7.892403076171875,0.0003790267510339618,0.000010242685675621033,-0.000021710526198148727
1738771808036395300,7.902395263671875,0.001757479039952159,-0.0007697970140725374,0.00033861518022604287
1738771808046386200,7.91238623046875,0.0004782582400366664,0.0004926265683025122,-0.00012412054638843983
1738771808056378000,7.922378173828125,-0.0016490748384967446,0.000023910077288746834,-0.0006226643454283476
1738771808066369300,7.932369384765625,-0.0007322537712752819,-0.001179560087621212,-0.0003152787685394287
1738771808076360200,7.942360107421875,-0.0007639453979209065,0.0002175341360270977,0.0004826042568311095
1738771808086352100,7.95235205078125,0.0007260497659444809,0.0001750602386891842,-0.0007279983256012201
1738771808096343300,7.96234326171875,-0.0008422858081758022,0.0003718677908182144,-0.0009056311682797968
1738771808106335200,7.972335205078125,0.0005897979717701674,0.0010531821753829718,-0.0008212178363464773
1738771808116326400,7.982326416015625,-0.0014496507355943322,0.0004627595189958811,-0.0006438513519242406
1738771808126318300,7.992318359375,-0.0004434834700077772,-0.0010318076238036156,-0.00013356895942706615
1738771808136309200,8.002309326171876,-0.001031509367749095,-0.00043659121729433537,-0.0007791192037984729
1738771808146300400,8.012300537109375,0.0007734379032626748,-0.002530144527554512,0.00011600618017837405
1738771808156292000,8.0222919921875,-0.00028596760239452124,0.0003567221574485302,-0.0007931970176286995
1738771808166283000,8.032282958984375,0.00036305771209299564,-0.00034102192148566246,0.0010686360765248537
1738771808176275200,8.042275146484375,0.000530304154381156,0.00009041023440659046,4.422327037900686e-7
1738771808186266000,8.05226611328125,-0.001229718909598887,-0.0004931124858558178,-0.0008181817829608917
1738771808196258300,8.06225830078125,0.00017935968935489655,-0.00012426474131643772,0.0003922248724848032
1738771808206249200,8.072249267578124,0.0019407866057008505,-0.00009650085121393204,-0.00027625419897958636
1738771808216241200,8.0822412109375,0.0007828441448509693,0.00013279728591442108,0.00017035790369845927
1738771808226232300,8.092232421875,0.0000475454144179821,-0.00009303889237344265,-0.00009915398550219834
1738771808236223200,8.10222314453125,0.0003527333028614521,0.0002975291572511196,-0.00014718294551130384
1738771808246215400,8.11221533203125,0.0004051976138725877,-0.0014479064848273993,0.00018810902838595212
1738771808256206300,8.122206298828125,0.000427461345680058,0.0009706756100058556,-0.00020693556871265173
1738771808266198300,8.1321982421875,-0.0011198351858183742,0.001441256608814001,-0.00033103887108154595
1738771808276189400,8.142189453125,-0.0014696342404931784,-0.0020064457785338163,-0.000660792225971818
1738771808286181000,8.15218115234375,0.0010465203085914254,-0.000009607523679733276,-0.00011910527246072888
1738771808296172000,8.162172119140624,0.000012705451808869839,-0.0001444416120648384,0.0014818120980635285
1738771808306163200,8.1721630859375,-0.00031220022356137633,0.000811899546533823,-0.000364291132427752
1738771808316155100,8.182155029296876,0.0016889381222426891,0.00027783121913671494,-0.001891487743705511
1738771808326146000,8.19214599609375,0.001177078578621149,-0.00007983110845088959,0.00020495272474363446
1738771808336138200,8.20213818359375,0.000017647049389779568,-0.0012319223023951054,-0.0008821579394862056
1738771808346129200,8.212129150390625,0.0008647986687719822,-0.0005496202502399683,-0.0008280958281829953
1738771808356121300,8.222121337890625,0.0009517285507172346,0.0001488514244556427,-0.0012975295539945364
1738771808366112300,8.2321123046875,-0.0005654742708429694,0.00042928196489810944,0.00018238899065181613
1738771808376104200,8.242104248046875,-0.0016631147591397166,-0.0002810077276080847,0.0008410918526351452
1738771808386095400,8.252095458984375,0.00040136766619980335,-0.0007324134930968285,-0.00014054932398721576
1738771808396086300,8.262086181640624,-0.0011424657423049212,-0.000026029301807284355,0.0013979298528283834
1738771808406078500,8.272078369140624,0.0018429377814754844,0.00017983303405344486,-0.0011184909380972385
1738771808416069400,8.2820693359375,-0.0009101427858695388,-0.0013244668953120708,0.0000846615293994546
1738771808426061000,8.29206103515625,-0.0007343741599470377,0.0003898097202181816,0.0013275588862597942
1738771808436052200,8.30205224609375,-0.0019772620871663094,-0.0010162368416786194,-0.00019743664597626776
1738771808446044200,8.312044189453125,0.0002643205225467682,-0.00040344358421862125,0.002486497163772583
1738771808456035000,8.32203515625,0.0008552119834348559,-0.0010702840518206358,0.0006201796932145953
1738771808466027300,8.33202734375,-0.001018055365420878,-0.00005908193998038769,0.0006404197192750871
1738771808476018200,8.34201806640625,-0.0013938568299636245,0.0003948588855564594,-0.001051174127496779
1738771808486009000,8.352009033203124,0.0004951233277097344,-0.000430721091106534,-0.0011339983902871609
1738771808496001300,8.362001220703124,0.0005541851278394461,-0.00040580308996140957,-0.0009480617009103298
1738771808505992200,8.3719921875,-0.00021866417955607176,0.0006410856731235981,0.00008790797437541187
1738771808515984400,8.381984375,-0.00029931392055004835,-0.00005516759119927883,-0.001483672414906323
1738771808525975300,8.391975341796876,0.0016935295425355434,-0.00015024235472083092,0.0006071753450669348
1738771808535967200,8.40196728515625,0.0008169523207470775,0.00047987536527216434,-0.00026442392845638096
1738771808545958400,8.41195849609375,0.0008393229218199849,0.001072428422048688,-0.0009587100357748568
1738771808555949300,8.42194921875,0.00036767858546227217,0.0002776891924440861,-0.0005067915190011263
1738771808565941200,8.431941162109375,-0.0009314113995060325,0.00015118904411792755,0.0007193278870545328
1738771808575932200,8.44193212890625,0.0012474729446694255,0.00030940352007746696,-0.00005174845864530653
1738771808585924000,8.451924072265625,0.0011100537376478314,0.0006596092134714127,-0.000257610809057951
1738771808595915300,8.461915283203124,-0.0001492296578362584,0.0001347535289824009,-0.0008356812177225947
1738771808605907200,8.4719072265625,-0.0006174134323373437,-0.00007883203215897083,0.0006825868040323257
1738771808615898000,8.481898193359376,-0.00008686457294970751,0.0004967176355421543,-0.000004224712029099464
1738771808625890300,8.491890380859376,-0.0003201575018465519,0.0008778157643973827,-0.0011461882386356592
1738771808635881200,8.501881103515625,-0.0014019100926816463,0.0007562225218862295,-0.0004965803818777204
1738771808645872000,8.5118720703125,-0.0005102838040329516,-0.0006051857490092516,0.0004624239227268845
1738771808655864300,8.5218642578125,0.000048443558625876904,-0.0004212697967886925,0.0003892466484103352
1738771808665855200,8.531855224609375,0.0012772261397913098,-0.0016729554627090693,0.0005623521283268929
1738771808675847200,8.54184716796875,0.0007153607439249754,0.001029087696224451,-0.00038917316123843193
1738771808685838300,8.55183837890625,0.0019209738820791245,-0.001223680330440402,-0.0006501629250124097
1738771808695830300,8.561830322265624,0.0006966567598283291,0.0013599321246147156,0.00040814303793013096
1738771808705821200,8.5718212890625,0.0006034460384398699,-0.00020227814093232155,0.001304030418395996
1738771808715813000,8.581813232421876,0.0008822799427434802,0.0005987393669784069,-0.0004969164729118347
1738771808725804300,8.59180419921875,0.0005336720496416092,-0.0007799791637808084,-0.001235144678503275
1738771808735795200,8.601795166015625,-0.0006539978203363717,-0.00028841104358434677,-0.00007113131869118661
1738771808745787100,8.611787109375,-0.0008939485996961594,0.00019308854825794697,-0.0005363855743780732
1738771808755778300,8.6217783203125,-0.0010598503286018968,-0.00046408921480178833,0.0006346398731693625
1738771808765770200,8.631770263671875,0.00004030147101730108,0.00016734632663428783,0.000654080999083817
1738771808775761200,8.64176123046875,-0.0005678314482793212,-0.00010453583672642708,-0.0005025527207180858
1738771808785753300,8.65175341796875,-0.0008043201523832977,-0.0009234577883034945,0.0008580563007853925
1738771808795744300,8.661744140625,0.0002946580061689019,-0.000186811201274395,0.00003108585951849818
1738771808805735200,8.671735107421876,0.0013237035600468516,-0.00014926050789654255,-0.000037357385735958815
1738771808815727400,8.681727294921876,-0.0008180269505828619,0.000518240500241518,-0.0010686860186979175
1738771808825718300,8.69171826171875,0.0005202115280553699,0.0004865489900112152,-0.00008491426706314087
1738771808835710000,8.7017099609375,0.00041514355689287186,-0.0008138371631503105,-0.00026132806669920683
1738771808845700900,8.711700927734375,-0.0009478622232563794,-0.0009541858453303576,0.00016717452672310174
1738771808855693000,8.721693115234375,-0.001380489207804203,-0.0010456661693751812,0.00024911784566938877
1738771808865684000,8.73168408203125,8.924398571252823e-7,-0.00009491783566772938,-0.00024330064479727298
1738771808875675000,8.7416748046875,0.0002779893111437559,0.0005105189047753811,0.0002873838529922068
1738771808885667000,8.7516669921875,0.00023937353398650885,0.0019257226958870888,0.00012306681310292333
1738771808895658000,8.761657958984374,-0.0005616031703539193,-0.0007706037722527981,-0.0008562901057302952
1738771808905650000,8.77164990234375,-0.0002473501954227686,-0.0007016279269009829,0.0002630364615470171
1738771808915641000,8.78164111328125,0.0003150664269924164,-0.0006710339803248644,-0.0009048156789503992
1738771808925633000,8.791633056640626,0.00024742214009165764,-0.00014133122749626637,-0.0010917696636170149
1738771808935624200,8.801624267578125,-0.0010572103783488274,-0.0009508170187473297,-0.0007239739061333239
1738771808945616100,8.8116162109375,0.00012043945025652647,-0.00016545085236430168,0.00017937029770109802
1738771808955607000,8.82160693359375,0.0002181244781240821,-0.0006520631723105907,-0.00021996445138938725
1738771808965598200,8.83159814453125,0.0008088134927675128,-0.0007260988932102919,0.0002900308754760772
1738771808975590000,8.84158984375,0.0004920487990602851,-0.0001955393236130476,0.000007207694579847157
1738771808985580800,8.851580810546874,0.000839324900880456,0.0005397596396505833,0.0006546220974996686
1738771808995573000,8.861572998046874,-0.00024585460778325796,0.0009577868040651083,-0.0006818659603595734
1738771809005564000,8.87156396484375,-0.001079424051567912,-0.0008595546241849661,-0.002292812103405595
1738771809015556000,8.88155615234375,-0.0011524426518008113,-0.00019163102842867374,0.00038269974174909294
1738771809025547000,8.891547119140625,0.0012718328507617116,0.0014355604071170092,-0.000053792347898706794
1738771809035538000,8.901537841796875,-0.00005590205546468496,-0.00034192902967333794,0.00032099164673127234
1738771809045530000,8.911530029296875,-0.0009882748126983643,0.001659436384215951,-0.0014212484238669276
1738771809055521000,8.92152099609375,0.0013350012013688684,0.0006190550047904253,-0.00023768778191879392
1738771809065513200,8.93151318359375,0.000010344781912863255,-0.0004046643152832985,-0.0009647307451814413
1738771809075504000,8.941504150390625,0.0007229277398437262,0.0006509055383503437,0.0007617222145199776
1738771809085496000,8.95149609375,-0.0002107764594256878,0.0007238760590553284,0.0001819520548451692
1738771809095487200,8.9614873046875,-0.0004029367701150477,0.0000789740588515997,-0.0007101625087670982
1738771809105479000,8.97147900390625,-0.0007835024734959006,-0.00045871827751398087,0.00036175985587760806
1738771809115469800,8.9814697265625,0.00041437067557126284,0.0012941958848387003,0.0010422226041555405
1738771809125461000,8.9914609375,-0.0005648736259900033,-0.00003392249345779419,-0.0003463494940660894
1738771809135453000,9.001452880859375,-0.0006594988517463207,-0.0007105988916009665,0.0004381886392366141
1738771809145443800,9.01144384765625,0.00003159139305353165,0.001299288822337985,-0.00041402288479730487
1738771809155436000,9.02143603515625,-0.0003309231251478195,0.0011564348824322224,-0.0005224553169682622
1738771809165427000,9.031427001953125,-0.0002430388703942299,0.0007503028027713299,-0.00031153293093666434
1738771809175419100,9.041419189453125,0.00045675993897020817,-0.0013429303653538227,0.00018505168554838747
1738771809185410000,9.05141015625,0.0008013730403035879,0.0008017132058739662,0.0002598864957690239
1738771809195401000,9.06140087890625,-0.0008814960601739585,-0.0006708924192935228,0.0009857509285211563
1738771809205393200,9.07139306640625,0.0005715246079489589,0.0008939811959862709,-0.0014052351471036673
1738771809215384000,9.081384033203125,0.00005529820919036865,-0.00030565960332751274,0.000056201708503067493
1738771809225376300,9.091376220703125,-0.0006262046517804265,0.0015303236432373524,0.0002189208462368697
1738771809235367200,9.1013671875,-0.0007047607796266675,0.0005911150947213173,0.0002922030398622155
1738771809245358800,9.11135888671875,0.00038287416100502014,0.0004781968891620636,0.00030685041565448046
1738771809255350000,9.12135009765625,0.0008441577665507793,-0.0002210985403507948,0.0003555660368874669
1738771809265342000,9.131342041015625,-0.0003356225788593292,0.0005426960997283459,0.000286057562334463
1738771809275332900,9.141332763671874,0.0013389874948188663,-0.0009907351341098547,-0.0009103663032874465
1738771809285324000,9.151323974609374,0.00019808928482234478,-0.0004423903301358223,-0.0010509812273085117
1738771809295316000,9.16131591796875,-0.0013297629775479436,-0.0006164358928799629,-0.000814816274214536
1738771809305307000,9.171306884765626,0.00131662015337497,0.00180890504270792,0.0005133021622896194
1738771809315299000,9.181299072265626,0.002073533833026886,-0.00034339819103479385,0.00016922829672694206
1738771809325290000,9.1912900390625,0.0006756407674401999,0.0005884417332708836,0.0004453980945982039
1738771809335282200,9.2012822265625,0.0011373930610716343,-0.001734143472276628,-0.0002048055175691843
1738771809345273000,9.211273193359375,0.0007248695474117994,3.734603524208069e-7,-0.0005286458763293922
1738771809355264000,9.221263916015625,0.00007455446757376194,0.0002067063469439745,-0.00019380632147658616
1738771809365256200,9.231256103515625,0.0006948047084733844,-0.0012937185820192099,-0.00017356629541609436
1738771809375247000,9.2412470703125,0.00023748225066810846,0.00025264639407396317,-0.001495157484896481
1738771809385239000,9.251239013671874,-0.0009148675599135458,-0.0009353896602988243,0.0007996885105967522
1738771809395230000,9.26122998046875,0.0012425824534147978,-0.00028720125555992126,0.0010728439083322883
1738771809405222000,9.271221923828126,-0.00043920380994677544,-0.0006398037075996399,0.00023341551423072815
1738771809415213000,9.281213134765625,-0.0002217412693426013,-0.0010290462523698807,-0.00007994624320417643
1738771809425204000,9.291203857421875,-0.0013402689946815372,-0.0007904269732534885,0.00023563834838569164
1738771809435196000,9.30119580078125,-0.0009026047773659229,-0.0007502476219087839,0.0006250935839489102
1738771809445187000,9.31118701171875,0.0001754427794367075,-0.0007771453820168972,-0.0016124943504109979
1738771809455179000,9.321178955078125,0.0013753194361925125,0.00001725764013826847,-0.0013604640262201428
1738771809465170000,9.331169921875,0.0000464022159576416,0.001032188069075346,-0.0009029328939504921
1738771809475162000,9.341162109375,-0.0004302418092265725,-0.0001812516711652279,0.000020167528418824077
1738771809485153000,9.351153076171874,0.00007229670882225037,0.0010123772080987692,-0.0006046100752428174
1738771809495145000,9.36114501953125,-0.00041543057886883616,0.0006502389442175627,-0.0005004256381653249
1738771809505136000,9.37113623046875,0.0005981684662401676,0.0014595731627196074,-0.000244762166403234
1738771809515127000,9.381126953125,-0.0012457076227292418,-0.0010331741068512201,-0.00003401785215828568
1738771809525119000,9.391118896484375,0.0013178512454032898,-0.00022517098113894463,-0.0001719695865176618
1738771809535110000,9.40110986328125,-0.0010105648543685675,-0.0002622045576572418,-0.0002397349162492901
1738771809545102000,9.41110205078125,0.0005657601868733764,-0.0009303917177021503,0.0005376418121159077
1738771809555093000,9.421093017578125,-0.0009663414675742388,0.0013346325140446424,-0.00020819199562538415
1738771809565085000,9.4310849609375,0.0004081159131601453,0.0002366111148148775,-0.0002454762579873204
1738771809575076000,9.441076171875,0.00021561014000326395,-0.00007345597259700298,0.0007388999219983816
1738771809585067000,9.45106689453125,-0.0002461819676682353,0.0008312196005135775,-0.0008126577013172209
1738771809595059000,9.461058837890626,-0.0002295863814651966,-0.0009795308578759432,0.0006482930621132255
1738771809605050000,9.471050048828126,-0.0006804594886489213,-0.0006224010139703751,0.0008355133468285203
1738771809615042000,9.4810419921875,0.0006066975183784962,-0.0005858826916664839,0.00022202552645467222
1738771809625033000,9.491032958984375,-0.00039172155084088445,0.00020960369147360325,-0.0009319221717305481
1738771809635025200,9.501025146484375,-0.0002733909641392529,-0.00006176391616463661,-0.00034296163357794285
1738771809645016000,9.51101611328125,-0.0006409071502275765,0.0006178747862577438,-0.00014615400868933648
1738771809655007200,9.52100732421875,-0.0007223057909868658,-0.0003910171799361706,0.000036871846532449126
1738771809664999000,9.5309990234375,-0.0008144511375576258,0.00020792754366993904,0.0012198480544611812
1738771809674989800,9.54098974609375,-0.0006913634715601802,-0.0011796837206929922,0.000807574309874326
1738771809684982000,9.55098193359375,0.0010391586693003774,-0.00006621587090194225,-0.0002568911586422473
1738771809694973000,9.560972900390626,0.0003079583402723074,0.00033774832263588905,-0.0009153407299891114
1738771809704965000,9.570965087890626,-0.00019724329467862844,-0.00046146614477038383,-0.0008125427411869168
1738771809714956000,9.5809560546875,0.00024387193843722343,-0.00009896350093185902,-0.0005664939526468515
1738771809724947000,9.590947021484375,-0.000018982100300490856,0.00046349596232175827,-0.0001323986507486552
1738771809734939100,9.600939208984375,-0.00020029419101774693,0.000985956285148859,-0.00038058310747146606
1738771809744930000,9.610929931640625,0.00041729281656444073,0.0006802254356443882,0.0007595161441713572
1738771809754922000,9.620921875,-0.0007618471281602979,-0.0013281060382723808,-0.0017870309529826045
1738771809764913200,9.6309130859375,0.0011636184062808752,-0.0011747078970074654,-0.000524159986525774
1738771809774905000,9.640905029296874,0.0009718389483168721,-0.0008989274501800537,0.0014899022644385695
1738771809784896300,9.650896240234376,0.0007966031553223729,-0.00020517385564744473,0.0002046607551164925
1738771809794887200,9.66088720703125,-0.0002026340225711465,-0.00004312093369662762,0.001185678062029183
1738771809804878800,9.67087890625,0.0003776688827201724,-0.0005030487664043903,0.00019285157031845301
1738771809814870000,9.6808701171875,0.0015459099086001515,0.000031643547117710114,-0.0007809462258592248
1738771809824862000,9.690862060546875,0.001056420966051519,0.00032112933695316315,-0.0012209004489704967
1738771809834852900,9.700852783203125,0.0003445346374064684,-0.00019716634415090084,0.000927458459045738
1738771809844846000,9.71084619140625,0.0000630384311079979,-0.0011812043376266956,0.0008923047571443021
1738771809854837200,9.720837158203125,-0.0012126555666327477,-0.0005981230642646551,0.000979103846475482
1738771809864829200,9.7308291015625,-0.0000874700490385294,-0.000606378773227334,-0.0003788419417105615
1738771809874820000,9.740820068359374,0.0006547314114868641,0.00016817264258861542,0.00018308057042304426
1738771809884811300,9.750811279296874,-0.0009298493969254196,-0.00039908080361783504,-0.0007823153282515705
1738771809894803000,9.760802978515626,0.0002802363596856594,-0.0013869416434317827,-0.0004998416407033801
1738771809904794000,9.770794189453126,0.001278655487112701,-0.0009182251524180174,-0.0010894654551520944
1738771809914786000,9.7807861328125,-0.00038833514554426074,0.000634379917755723,-0.00038531189784407616
1738771809924777000,9.79077685546875,0.001416755490936339,-0.0010511346627026796,0.00015903824532870203
1738771809934769200,9.80076904296875,0.0018687506671994925,-0.0010455907322466373,-0.00013236803351901472
1738771809944760000,9.810760009765625,-0.0012969488743692636,-0.00005968846380710602,0.001599751878529787
1738771809954751000,9.8207509765625,-0.001212074770592153,0.00004772632382810116,-0.00038042652886360884
1738771809964743200,9.8307431640625,0.00020206370390951633,-0.0016114229802042246,0.00003768976603168994
1738771809974734000,9.840734130859374,0.0003930093953385949,-0.00004057306796312332,-0.0007179485983215272
1738771809984726300,9.850726318359374,-0.000037890044040977955,0.0003620968200266361,-0.00015176057058852166
1738771809994717200,9.86071728515625,0.0001571675529703498,0.0009887400083243847,0.00008601228182669729
1738771810004709000,9.870709228515626,0.00016196118667721748,0.001198330894112587,-0.00011665427882689983
1738771810014700300,9.8807001953125,-0.0003849235945381224,0.0007877389434725046,0.0011410457082092762
1738771810024691200,9.890691162109375,-0.0017596473917365074,0.00021515903063118458,0.0010196055518463254
1738771810034683000,9.900682861328125,-0.00003690947778522968,-0.0003445602487772703,-0.0008096907404251397
1738771810044674000,9.910674072265625,-0.0011498444946482778,-0.0008787901606410742,-0.0009340603719465435
1738771810054666000,9.920666015625,-0.00006444915197789669,-0.0004182220436632633,-0.0003935840795747936
1738771810064657200,9.9306572265625,-0.0006679214420728385,-0.0005388632416725159,0.0004101579252164811
1738771810074649000,9.940649169921874,0.00048371637240052223,0.0003143078647553921,0.0008500065305270255
1738771810084640000,9.950639892578126,-0.0017235116101801395,0.000028284266591072083,0.00014080674736760557
1738771810094631200,9.960631103515626,-0.0003628910635598004,0.0009503511246293783,-0.0006468421779572964
1738771810104623000,9.970623046875,0.0010917276376858354,-0.0003713758196681738,0.0005763476947322488
1738771810114614000,9.980614013671875,0.0004753187531605363,0.00021761609241366386,0.0003438656567595899
1738771810124606200,9.990606201171875,-0.00035052746534347534,-0.0008066354785114527,0.0001454601442674175
1738771810134597000,10.00059716796875,0.000255075516179204,0.00044438778422772884,0.001007809187285602
1738771810144589300,10.01058935546875,0.00016719126142561436,-0.0011207517236471176,-0.0009219173807650805
1738771810154580200,10.020580322265625,0.0009405794553458691,-0.0013669922482222319,-0.0007205278961919248
1738771810164571100,10.030571044921874,0.0009155457373708487,-0.0007669820915907621,-0.00016525883984286338
1738771810174563000,10.04056298828125,0.0010331727098673582,-0.0009598529431968927,-0.00018379808170720935
1738771810184554000,10.050553955078126,-0.0005247765220701694,0.00006945873610675335,-0.0004786099889315665
1738771810194546000,10.0605458984375,0.0009744814597070217,0.0005816204939037561,0.0009671663283370435
1738771810204537000,10.070537109375,-0.0003917200374417007,0.0007304910104721785,-0.0008086294983513653
1738771810214529000,10.080529052734375,0.0020649528596550226,0.0018307268619537354,-0.00021881621796637774
1738771810224520200,10.090520263671875,0.0006321721011772752,0.0009177951142191887,-0.00017940145335160196
1738771810234511000,10.100510986328125,0.0001570889726281166,0.00004602596163749695,-0.001043184194713831
1738771810244503000,10.1105029296875,0.0014623042661696672,-0.0007771570235490799,0.0007589768501929939
1738771810254494200,10.120494140625,0.0010306262411177158,-0.00040377629920840263,0.00023133419745136052
1738771810264486100,10.130486083984374,0.00044419814366847277,0.0001208665780723095,0.0003090985119342804
1738771810274477000,10.14047705078125,0.0007772342069074512,-0.0011159121058881283,-0.0018735548947006464
1738771810284469200,10.15046923828125,-0.0014401136431843042,-0.0005007220897823572,0.0004066435503773391
1738771810294460200,10.160460205078126,-0.00032692664535716176,0.000734962522983551,0.00027583440532907844
1738771810304451000,10.170451171875,0.0005644334014505148,0.00014187628403306007,-0.00025013991398736835
1738771810314443000,10.180443115234375,0.00007573189213871956,-0.0009843993466347456,0.00036466814344748855
1738771810324434000,10.190433837890625,0.000945786596275866,-0.000979605596512556,-0.0003104432253167033
1738771810334426000,10.200426025390625,0.0002525351010262966,0.00023586582392454147,0.00038426005630753934
1738771810344417000,10.2104169921875,0.0002429477171972394,-0.0005428425502032042,0.000210621947189793
1738771810354409200,10.2204091796875,-0.0009395833476446569,0.0001868605613708496,-0.0006466967170126736
1738771810364400000,10.230400146484374,-0.0010895193554461002,-0.0012933243997395039,0.00015012106450740248
1738771810374391000,10.24039111328125,-0.0007872028509154916,-0.00003265123814344406,-0.0013316357508301735
1738771810384383200,10.25038330078125,-0.0002439180389046669,0.0003622954245656729,0.00045214954297989607
1738771810394374100,10.2603740234375,0.0006560259498655796,0.0001974198967218399,0.0009418717818334699
1738771810404366000,10.270365966796875,-0.0007269536145031452,0.0004091411828994751,-0.00008610833901911974
1738771810414357200,10.280357177734375,0.0002629513619467616,-0.00007759942673146725,0.0005942453281022608
1738771810424349200,10.29034912109375,0.0012635010061785579,0.0019394787959754467,0.0005260683828964829
1738771810434340000,10.300340087890625,0.0010998392244800925,0.0008751512505114079,-0.00015077454736456275
1738771810444331300,10.310331298828125,0.0003176687750965357,0.00037607504054903984,-0.0005300086922943592
1738771810454323000,10.320322998046874,5.42961061000824e-7,-0.0010771211236715317,-0.00019368028733879328
1738771810464313900,10.33031396484375,0.0006950953975319862,0.0008382245432585478,0.000042808424041140825
1738771810474306000,10.34030615234375,0.00033300940413028,0.0002478559035807848,-0.0009269336587749422
1738771810484297000,10.350296875,-0.0004177357186563313,-0.000017927726730704308,0.00039319531060755253
1738771810494289200,10.3602890625,-0.0006905223126523197,-0.001366801792755723,-0.0013560536317527294
1738771810504280000,10.370280029296875,-0.0009184888913296163,-0.0006509439554065466,-0.0005776116158813238
1738771810514271000,10.38027099609375,0.0012439284473657608,-0.000636636046692729,0.000621113576926291
1738771810524263200,10.39026318359375,0.00034910638350993395,-0.00003183213993906975,0.00006051820673746988
1738771810534254000,10.400254150390625,0.0006490879459306598,0.0005713645368814468,0.0007056982140056789
1738771810544246300,10.410246337890625,-0.0009277696954086423,0.0011250358074903488,-0.0003995136357843876
1738771810554237200,10.4202373046875,0.000488669378682971,0.0001578794326633215,-0.0004656942328438163
1738771810564229000,10.43022900390625,0.00045324943494051695,0.0009491043165326118,-0.0004624984576366842
1738771810574220300,10.44022021484375,-0.0011719675967469811,0.001909709069877863,0.00043126841774210334
1738771810584211200,10.450211181640626,0.0004461690550670028,-0.000019751256331801414,-0.0005501064588315785
1738771810594203000,10.460202880859375,-0.0006420378340408206,0.0007716172840446234,0.0010499967029318213
1738771810604194000,10.470194091796875,0.0005366773111745715,-0.00022919848561286926,0.0005557138938456774
1738771810614186000,10.48018603515625,0.00015105365309864283,0.000008795876055955887,0.0003030172665603459
1738771810624177200,10.49017724609375,-0.000015926547348499298,0.00017204764299094677,-0.0006948692025616765
1738771810634169000,10.500169189453125,-0.000533678219653666,0.0000897715799510479,-0.0010359910083934665
1738771810644160000,10.510159912109375,0.0016053728759288788,0.00011666957288980484,-0.00023890686861705035
1738771810654151200,10.520151123046874,-0.00021725858096033335,-0.00045679323375225067,-0.0010683772852644324
1738771810664143000,10.53014306640625,-0.0010838512098416686,0.00028383173048496246,-0.0007336179842241108
1738771810674134000,10.540134033203126,0.0004957453347742558,-0.00012845289893448353,-0.00002471078187227249
1738771810684126200,10.550126220703126,-0.001443568617105484,0.0010902094654738903,0.0001768904912751168
1738771810694117000,10.5601171875,0.0016440870240330696,-0.0002797513734549284,-0.00040499703027307987
1738771810704109300,10.570109375,-0.0006931032403372228,-0.0012539357412606478,0.0004091312875971198
1738771810714100200,10.580100341796875,0.0011290285037830472,-0.0006222154479473829,-0.00019268103642389178
1738771810724091100,10.590091064453125,0.00011276616714894772,-0.0001769347582012415,-0.0003980107430834323
1738771810734083000,10.6000830078125,-0.0015843360451981425,-0.0008799082133919001,0.0011379907373338938
1738771810744074000,10.610073974609374,0.0008005246054381132,0.00021198787726461887,0.0009046978084370494
1738771810754066000,10.62006591796875,-0.0014329771511256695,0.0008567655459046364,-0.00045274500735104084
1738771810764057000,10.63005712890625,0.0002469448372721672,-0.0009493904653936625,0.00028228742303326726
1738771810774049000,10.640049072265626,-0.0006370223709382117,0.00034241052344441414,-0.0006670203292742372
1738771810784040200,10.650040283203126,0.00022371136583387852,0.0002433410845696926,0.001656854059547186
1738771810794031000,10.660031005859375,-0.00017282180488109589,0.00026365136727690697,-0.0008600314613431692
1738771810804023000,10.67002294921875,-0.0005115758976899087,0.0005818991921842098,0.0005897933733649552
1738771810814014200,10.68001416015625,0.0003017630660906434,0.0004379039164632559,0.00028893386479467154
1738771810824006100,10.690006103515625,-0.0014886801363900304,-0.0001937979832291603,-0.0005592829547822475
1738771810833997000,10.6999970703125,0.0005527014145627618,-0.0006682213861495256,0.0009334079804830253
1738771810843988700,10.70998876953125,0.00009303982369601727,0.0005539034027606249,0.0018423449946567416
1738771810853980000,10.71997998046875,0.0007029444677755237,-0.0009092404507100582,-0.0029019510839134455
1738771810863970800,10.729970703125,0.0007594034541398287,-0.00055157789029181,-0.0007543778629042208
1738771810873962800,10.739962646484376,-0.0009167417883872986,-0.001356110442429781,-0.0004138049844186753
1738771810883954000,10.749953857421875,0.0005346810212358832,0.0014077182859182358,-0.0007895770249888301
1738771810893945600,10.759945556640625,0.0003779010148718953,-0.00010913843289017677,0.0011497827945277095
1738771810903936500,10.7699365234375,0.0006295697530731559,-0.00008836574852466583,0.0008027729345485568
1738771810913927700,10.779927734375,-0.00007434864528477192,0.00017371191643178463,0.0008891068864613771
1738771810923919600,10.789919677734375,0.0012068981304764748,-0.0003389467019587755,0.00005447222065413371
1738771810933910500,10.79991064453125,-0.00005818274803459644,-0.0005701424088329077,0.0010591545142233372
1738771810943902700,10.80990283203125,-0.000598271784838289,0.0013422735501080751,0.001615222543478012
1738771810953893600,10.8198935546875,-0.0007984766270965338,0.000604348024353385,0.0006403019651770592
1738771810963885800,10.8298857421875,0.0005821060622110963,-0.001127505674958229,0.0011923752026632428
1738771810973876700,10.839876708984375,0.0010585564887151122,0.0012582344934344292,-0.0013581181410700083
1738771810983867600,10.84986767578125,-0.0011132513172924519,-0.0013774959370493889,0.0016525854589417577
1738771810993859800,10.85985986328125,-0.00027175951981917024,0.0005370541475713253,-0.0006573870778083801
1738771811003850800,10.869850830078125,-0.0008850855519995093,0.0010470491833984852,-0.0013063993537798524
1738771811013843000,10.879843017578125,-0.00010899687185883522,-0.0000788297038525343,0.0010295816464349627
1738771811023833900,10.889833740234375,0.0011115297675132751,0.00016671372577548027,0.0012319819070398808
1738771811033825500,10.899825439453124,-0.0004023731453344226,-0.0012977398000657558,0.0006780961412005126
1738771811043816700,10.909816650390624,0.0006977786542847753,0.0006913754623383284,0.0018786491127684712
1738771811053807600,10.9198076171875,0.001158046186901629,-0.00021987664513289928,-0.0000989928885246627
1738771811063799600,10.929799560546876,0.0005737487226724625,0.0006334003992378712,-0.0016409631352871656
1738771811073790700,10.939790771484375,-0.000032700481824576855,-0.0003803905565291643,-0.0007212173659354448
1738771811083782700,10.94978271484375,0.00021843565627932549,0.0004875336308032274,0.002280165208503604
1738771811093773800,10.95977392578125,-0.0006494513363577425,0.0003531805705279112,0.0008767775143496692
1738771811103765800,10.969765869140625,0.00020728760864585638,0.00090232421644032,0.0004091263981536031
1738771811113756700,10.979756591796875,-0.0005015127826482058,0.0003657580818980932,-0.0005065574077889323
1738771811123747800,10.989747802734374,-0.000433602137491107,0.0006421941798180342,0.0004061078652739525
1738771811133739800,10.99973974609375,0.00011352368164807558,-0.0004948393907397985,-0.001826981664635241
1738771811143730700,11.009730712890626,-0.0006313624908216298,0.0016814959235489368,0.00013203956768848002
1738771811153723000,11.019722900390626,-0.00009904475882649422,-0.00006565474905073643,0.00007575158088002354
1738771811163713800,11.0297138671875,0.00014330283738672733,-0.0010393064003437757,-0.00003503591869957745
1738771811173705700,11.039705810546875,-0.0015317342476919293,0.001926209544762969,-0.00001704489841358736
1738771811183696600,11.049696533203125,-0.0006254605250433087,0.001135517144575715,0.0003502050240058452
1738771811193687600,11.0596875,0.0020499289967119694,0.0005495515652000904,-0.0005883912090212107
1738771811203679700,11.0696796875,0.0010365963680669665,0.0018046991899609566,0.001059040310792625
1738771811213670700,11.079670654296875,0.0014653225662186742,-0.000013963785022497177,-0.0006367936730384827
1738771811223662600,11.08966259765625,0.001021640026010573,0.0011916491203010082,-0.001172887859866023
1738771811233653800,11.09965380859375,0.0004371051909402013,-0.0010571298189461231,-0.001015234156511724
1738771811243645700,11.109645751953124,0.0008142088772729039,-0.00009492971003055573,-0.0009292140603065491
1738771811253636900,11.119636962890626,-0.0005550223868340254,0.0004236116074025631,0.0007783387554809451
1738771811263627800,11.129627685546875,0.0005222263280302286,-0.00024510803632438183,0.00011867376451846212
1738771811273619700,11.13961962890625,0.0011920005781576037,0.000049442052841186523,0.0011762898648157716
1738771811283611000,11.14961083984375,-0.0008266754448413849,0.0004393290728330612,0.0016436745645478368
1738771811293602800,11.159602783203125,-0.000404783699195832,-0.00006730365566909313,0.0018840368138626218
1738771811303593700,11.16959375,0.0008532936917617917,-0.00036850711330771446,0.0010083895176649094
1738771811313585000,11.1795849609375,0.0008207979844883084,-0.00020241737365722656,-0.00019168567087035626
1738771811323576600,11.18957666015625,-0.00017762102652341127,0.0008900112006813288,-0.0011461626272648573
1738771811333567700,11.199567626953124,-0.00035550526808947325,0.0010705739259719849,0.0006563619244843721
1738771811343559700,11.2095595703125,-0.0010394050041213632,0.001300671137869358,-0.00012154738942626864
1738771811353550600,11.219550537109376,0.0005485110450536013,-6.288755685091019e-7,-0.0011855645570904016
1738771811363542800,11.229542724609376,-0.001647797878831625,-0.0009196859318763018,0.0006890346412546933
1738771811373533700,11.23953369140625,-0.0006338152452372015,0.0019113149028271437,0.00018165007350035012
1738771811383524600,11.249524658203125,-0.0007936048787087202,0.00023432238958775997,0.00022292908397503197
1738771811393516800,11.259516845703125,0.00007369660306721926,-0.0005725440569221973,-0.0009893036913126707
1738771811403507700,11.2695078125,-0.0000485425116494298,-0.00033978396095335484,-0.0005512137431651354
1738771811413500000,11.2795,0.0002670340472832322,0.0015946982894092798,-0.0006087907822802663
1738771811423490800,11.28949072265625,0.0010047296527773142,-0.00027697114273905754,-0.001104405033402145
1738771811433482800,11.299482666015624,0.001142604392953217,-0.0006713331677019596,0.0007802787586115301
1738771811443474000,11.309473876953126,0.002315993420779705,-0.0009741345420479774,0.001374696264974773
1738771811453464800,11.31946484375,-0.00009599141776561737,-0.00013813585974276066,0.0010512517765164375
1738771811463456500,11.32945654296875,0.0007301211589947343,0.0016347304917871952,0.0001817296288209036
1738771811473447700,11.33944775390625,0.0012971250107511878,0.00002433708868920803,0.0003744533169083297
1738771811483439600,11.349439697265625,-0.00011807866394519806,-0.0002584904432296753,0.000565934635233134
1738771811493430500,11.359430419921875,-0.000021358486264944077,0.000738091766834259,-0.0002002676628762856
1738771811503422700,11.369422607421875,0.0013227389426901937,0.0008984138257801533,-0.0015464955940842628
1738771811513413600,11.37941357421875,0.0000865784240886569,-0.0006627168040722609,0.00023047433933243155
1738771811523404800,11.38940478515625,0.001830149907618761,-0.0010858930181711912,0.000015290919691324234
1738771811533396700,11.399396728515624,0.0001673396909609437,0.00018301839008927345,-0.00163175817579031
1738771811543387600,11.4093876953125,-0.0006577075691893697,0.00043548597022891045,0.0004207399324513972
