time,seconds_elapsed,z,y,x
1738773145682853400,0.031853271484375,-0.008498984808661044,-0.0007446443548426031,-0.06945639806389808
1738773145692844300,0.04184423828125,-0.006736066789366305,-0.006145754479710012,-0.0664624769449234
1738773145702835500,0.05183544921875,-0.010701993011962622,0.0020311405014246703,-0.06332067178785801
1738773145712826400,0.061826416015625,-0.009406710770726204,-0.00635062940204516,-0.06362053151726722
1738773145722818300,0.071818359375,-0.029241840042732656,-0.0003256700241006911,-0.05599193633496761
1738773145732809500,0.0818095703125,-0.018738547940645365,-0.0035790823294781144,-0.06362462317049503
1738773145742800400,0.09180029296875,-0.002484747754130512,-0.0006042860360816121,-0.05554653065502643
1738773145752791300,0.101791259765625,-0.013501852863561361,-0.0074898990976624185,-0.06572364127635956
1738773145762782500,0.111782470703125,-0.0169224566956982,0.00570166397402063,-0.05988894377350807
1738773145772773600,0.121773681640625,-0.013473211290966718,-0.009820278273988514,-0.05929097788035869
1738773145782764500,0.1317646484375,-0.01215221008658409,-0.0014934534281492232,-0.05899228719472885
1738773145792756500,0.141756591796875,-0.011695735023356973,-0.014882073441892862,-0.06812251911163329
1738773145802747400,0.151747314453125,-0.020348376023769377,-0.009281202961225062,-0.054504328125715255
1738773145812738300,0.16173828125,-0.021240940949320792,-0.0044015228945761915,-0.06318272462189198
1738773145822729500,0.1717294921875,-0.014174071303009987,0.0022719817862845958,-0.061386488854885096
1738773145832720600,0.181720703125,-0.006358410849701613,0.003557948209904134,-0.06183423262238502
1738773145842711600,0.191711669921875,-0.006088361736666411,-0.010926120624039321,-0.054206221961975096
1738773145852702500,0.201702392578125,-0.024310247125755993,-0.0025953502554446456,-0.057498249244689936
1738773145862693600,0.211693603515625,-0.007003741282224655,-0.002882313970662653,-0.061986208313703536
1738773145872685300,0.221685302734375,-0.020127993005048483,-0.0028560287519358097,-0.054959086155891415
1738773145882676500,0.231676513671875,-0.007893365332018584,-0.007457439866475761,-0.06169394736886024
1738773145892667600,0.241667724609375,0.00018295535147190093,-0.0021459077212028204,-0.05735562590360641
1738773145902658600,0.251658447265625,-0.020897278610803184,-0.0034650274957530197,-0.06708733084499835
1738773145912649500,0.2616494140625,-0.0043622868627309795,0.0009992219041101635,-0.05600888746976852
1738773145922640600,0.271640625,-0.014992401948571205,-0.009930478916503489,-0.05570668965280055
1738773145932631600,0.281631591796875,-0.025332594177126883,0.0012030921794474124,-0.05585808082222938
1738773145942623500,0.29162353515625,-0.012568389672040938,0.0005341068767011166,-0.062442719909548756
1738773145952614700,0.30161474609375,-0.00793837351752445,-0.006060779609996825,-0.05870294885933399
1738773145962605600,0.31160546875,-0.021266696445085106,-0.007084606232400983,-0.07172317395210266
1738773145972596500,0.321596435546875,-0.011301146215200423,-0.010611903575714676,-0.07127075400948524
1738773145982587600,0.331587646484375,-0.0076303487479686734,-0.0013957652073353529,-0.06558569411039351
1738773145992578600,0.34157861328125,-0.019772621962428093,-0.003974858447723091,-0.06363689813017845
1738773146002569500,0.351569580078125,-0.006410451564192772,-0.017225640893355012,-0.05046820447742939
1738773146012560400,0.361560302734375,-0.013771372253634034,-0.00912133622439578,-0.06288637202382087
1738773146022552600,0.371552490234375,-0.0028255605484358965,-0.01088182482458651,-0.058092123484611506
1738773146032543500,0.38154345703125,-0.03922784853875637,0.007768533375952393,-0.07800035452544689
1738773146042534700,0.39153466796875,-0.024593740242253987,0.006851893455069512,-0.06422609619498253
1738773146052525600,0.401525634765625,0.005369418078660965,-0.013149897620733826,-0.05464812051057815
1738773146062516500,0.4115166015625,-0.03294305091453716,0.0025118001578375696,-0.06647708999216556
1738773146072507400,0.42150732421875,-0.016717307778727264,-0.014219042955897748,-0.061979194051027295
1738773146082498600,0.43149853515625,0.0016722805937752128,-0.007198259207326918,-0.06961889514923095
1738773146092490500,0.441490478515625,-0.02302081010341644,-0.0018004918170161544,-0.05719838951528072
1738773146102481400,0.4514814453125,0.002741407662630081,-0.0037862953393720086,-0.06258125159740448
1738773146112472600,0.46147265625,-0.024292145213484762,-0.01206802066816017,-0.06707856301665306
1738773146122463500,0.47146337890625,-0.02441142421159893,-0.006430800232477486,-0.06423252593576907
1738773146132454400,0.481454345703125,0.006253178643248975,-0.015549359977897255,-0.074853873193264
1738773146142445600,0.491445556640625,-0.008979461801983415,-0.00915164003111422,-0.06722820062041282
1738773146152436500,0.5014365234375,-0.01810730083240196,-0.0029906149170361458,-0.06931728185415267
1738773146162428400,0.511428466796875,-0.01563599708173424,-0.012628924220241606,-0.05884148054718971
1738773146172419600,0.521419677734375,-0.025865075352322308,-0.005731803383957595,-0.06078676939606666
1738773146182410500,0.531410400390625,-0.016718495088815687,-0.013472937296330928,-0.07320084528923035
1738773146192401400,0.5414013671875,-0.01673080658111721,-0.012443027993012218,-0.05389934796988964
1738773146202392600,0.551392578125,-0.01812485475540161,-0.001773640342708677,-0.06406885980665683
1738773146212383500,0.561383544921875,0.01099368770122528,0.015058763449359684,-0.05972703121006488
1738773146222374400,0.57137451171875,-0.01404664553105831,-0.001202251929230988,-0.057632689279317854
1738773146232366600,0.58136669921875,-0.004585610757209361,-0.004239245004951954,-0.05808218661248683
1738773146242357500,0.591357421875,-0.010674538749456406,-0.0009024469987489283,-0.06257073020339012
1738773146252348400,0.601348388671875,-0.01703939760625362,-0.006306132673192769,-0.06317044966220856
1738773146262339600,0.611339599609375,-0.006758808344136923,0.005232603423856198,-0.06316986514031887
1738773146272330500,0.62133056640625,-0.00448326462758705,0.003959350351337343,-0.04925941320955753
1738773146282321400,0.6313212890625,-0.018352233770489692,0.0003276975844055414,-0.058390814170241355
1738773146292312300,0.641312255859375,-0.005044971897266805,-0.01273103288784623,-0.07021101582348346
1738773146302303500,0.651303466796875,-0.010392214676737784,-0.010463599412515758,-0.05180675960481167
1738773146312295400,0.66129541015625,-0.010638334924913942,0.0005373217470943928,-0.05465338120758533
1738773146322286800,0.671286865234375,-0.010377017107605933,0.0020322182136587796,-0.055553544917702674
1738773146332277800,0.68127783203125,-0.016380641436576842,-0.004974610074795782,-0.0663274523884058
1738773146342268700,0.6912685546875,-0.020032715937029568,-0.0004373685039579868,-0.05599895059764385
1738773146352259600,0.701259521484375,-0.014895407847501336,-0.005643595377542078,-0.05480418785512447
1738773146362250800,0.711250732421875,-0.003777180451154709,-0.010887414315156638,-0.05016600666046142
1738773146372241700,0.72124169921875,-0.02133274741861969,-0.006328892494272441,-0.052258010503649706
1738773146382233600,0.731233642578125,-0.01230477029979229,-0.013151669452711939,-0.059742813301086425
1738773146392224800,0.741224853515625,-0.014881342789530754,0.0002313245378434658,-0.07276303839385509
1738773146402215700,0.751215576171875,-0.008164638287760317,-0.00457048625331372,-0.0501712673574686
1738773146412206600,0.76120654296875,-0.014775526061188428,-0.0167135083864443,-0.05869944172799587
1738773146422197800,0.77119775390625,-0.014935703325271606,-0.011279847698844969,-0.06064239248931408
1738773146432188700,0.781188720703125,-0.01576985259447247,-0.005913863686285913,-0.07022387530505657
1738773146442179600,0.7911796875,-0.019058372745849192,-0.004631477459240705,-0.06798048029243946
1738773146452171800,0.801171875,-0.004960837277770042,-0.007433985925652086,-0.05915244619250297
1738773146462162700,0.81116259765625,-0.024608353289496152,0.000775514417141676,-0.06244798060655594
1738773146472153600,0.821153564453125,-0.010640581680927425,-0.0079272310690023,-0.06214928992092609
1738773146482144800,0.831144775390625,-0.014394472588039935,-0.004376753779500722,-0.06305062267482281
1738773146492135700,0.8411357421875,-0.009345957026816905,-0.006187620860058814,-0.055125090372562406
1738773146502126600,0.851126708984375,-0.0038146263847127554,0.006101988403219729,-0.055873278391361234
1738773146512117500,0.861117431640625,-0.0047463177442550655,-0.002575476511195302,-0.06948913128972053
1738773146522108700,0.871108642578125,-0.022222353202104566,-0.00554612635243684,-0.06844283710718155
1738773146532100600,0.8811005859375,-0.009362853362690656,-0.009692998632509262,-0.05183364761173725
1738773146542091800,0.891091796875,-0.009172883748542518,0.003566515108849853,-0.07308218734562397
1738773146552082700,0.901082763671875,-0.019752711685560642,0.001790646276436746,-0.06201075823307037
1738773146562073600,0.911073486328125,-0.021648352706432342,-0.00012408303739503025,-0.06964344506859779
1738773146572064500,0.921064453125,-0.011775193467736244,-0.009989077235944568,-0.06306348215639591
1738773146582055700,0.9310556640625,-0.014783143112063407,-0.0008948664804920553,-0.06231470961570739
1738773146592046800,0.941046875,-0.005973265723325312,-0.007593432537373155,-0.06635550943911075
1738773146602038500,0.95103857421875,0.005901296465657651,-0.0008908296261914074,-0.06875263370871544
1738773146612029700,0.96102978515625,-0.014919921234250068,0.001943498750589788,-0.05019873988628387
1738773146622020600,0.9710205078125,-0.013877682172320781,0.005537102795764803,-0.056035190954804415
1738773146632011800,0.98101171875,-0.021440262913703916,-0.0025638956712558864,-0.06576280424296856
1738773146642003000,0.9910029296875,-0.020182408339716493,-0.0018594006637111305,-0.06441723485291004
1738773146651993900,1.000993896484375,-0.00901979381237179,-0.002542268361337483,-0.057982817891240115
1738773146661984800,1.01098486328125,-0.018413608568906784,-0.0043148675244301556,-0.06397182917296886
1738773146671976000,1.020975830078125,-0.012121796682011335,-0.00747026281543076,-0.06786474495828151
1738773146681967600,1.030967529296875,-0.00867779370797798,0.00853655860638246,-0.053498950475454325
1738773146691958800,1.040958740234375,-0.0023111995518207548,-0.0016560418450273571,-0.059336570587754246
1738773146701950000,1.050949951171875,-0.0038654249901883303,0.0025070143848657605,-0.06981003380715847
1738773146711940900,1.06094091796875,-0.00953002662314102,-0.002430094957444817,-0.0669675038576126
1738773146721931800,1.070931884765625,-0.015022797086834907,-0.01338553300751373,-0.05200432800352573
1738773146731922700,1.080922607421875,-0.008186795320641248,-0.008454999536462128,-0.07160510053038596
1738773146741913900,1.090913818359375,-0.011201192972064018,0.0017289061518386006,-0.061732525813579554
1738773146751905800,1.10090576171875,-0.012526888617873192,0.006574483019486069,-0.06367956822812557
1738773146761897000,1.11089697265625,-0.018075754916667935,-0.00004519084859639406,-0.05245557890236378
1738773146771887900,1.120887939453125,-0.01731704550385475,-0.005042195418290794,-0.05484861151874065
1738773146781878800,1.130878662109375,-0.011528506963979453,-0.01464570740275085,-0.06128244395852089
1738773146791869700,1.14086962890625,-0.01559502575052902,0.0006101312549784779,-0.04123392766416072
1738773146801860900,1.15086083984375,-0.012277864026557653,0.0022945041453465817,-0.053954293027520174
1738773146811851800,1.160851806640625,-0.01566867550862953,-0.003744301094859838,-0.0705669896543026
1738773146821842700,1.1708427734375,-0.014096275092754513,-0.008623341840691865,-0.05440905105769634
1738773146831835000,1.1808349609375,-0.011368914221785962,0.000243727361690253,-0.055607905453443525
1738773146841825800,1.19082568359375,-0.025203981095086782,0.001785367313120514,-0.0684796619862318
1738773146851816700,1.200816650390625,-0.008787062768731266,-0.007418642226047814,-0.05740647930800914
1738773146861807900,1.210807861328125,-0.003299626067280769,-0.008904935261048377,-0.06069733754694461
1738773146871798800,1.220798828125,-0.008694763109087943,-0.010549049206264316,-0.06743453684747219
1738773146881789700,1.230789794921875,-0.0184171157002449,-0.011925561723858117,-0.05097615399956703
1738773146891780600,1.240780517578125,-0.0144961793968454,0.0056097479068674145,-0.06594225246310234
1738773146901772800,1.250772705078125,-0.011984415771625935,-0.001853482379578054,-0.07252922963798046
1738773146911763700,1.260763671875,-0.010708404486440122,0.004182473316416144,-0.06609773528575896
1738773146921755000,1.2707548828125,0.012387242685165256,-0.0007403152395971119,-0.06580021364390849
1738773146931745800,1.280745849609375,-0.013331756993662566,-0.001545859468821436,-0.054583238580822944
1738773146941736700,1.29073681640625,-0.018259824512992053,0.005709956878330558,-0.05966857902109623
1738773146951727600,1.3007275390625,-0.008802315136790275,-0.00404607878671959,-0.07089198382496834
1738773146961718800,1.31071875,-0.015965594362281264,-0.004626015832833946,-0.060120998963713645
1738773146971709700,1.320709716796875,-0.0013829787909984588,-0.0011907989534549414,-0.06939619230926036
1738773146981702000,1.330701904296875,0.0018728081345558165,0.008354315640963613,-0.05907645834684372
1738773146991692800,1.34069287109375,-0.017805157814361153,-0.006811926770862191,-0.05997545301318168
1738773147001683700,1.35068359375,-0.009921711088158189,0.0026425503980368375,-0.05608429079353809
1738773147011674600,1.360674560546875,-0.007304222066141664,0.014490626438893378,-0.06341828694343567
1738773147021665800,1.370665771484375,-0.01332713561747223,-0.004185542056336999,-0.06386719975471496
1738773147031656700,1.38065673828125,-0.010606149688363075,-0.0017081556247547267,-0.06760930889248848
1738773147041647600,1.390647705078125,-0.022141652648709712,0.0022497516881674526,-0.06850830355882644
1738773147051638800,1.400638671875,-0.013119593814015387,-0.0013460443140938876,-0.06341770242154599
1738773147061630700,1.410630615234375,-0.014759177714586257,-0.013300156279001385,-0.05623568196296692
1738773147071621600,1.42062158203125,-0.009534118276368827,0.006070497286412865,-0.06177344234585762
1738773147081612800,1.43061279296875,-0.00604103372991085,-0.008689356281608343,-0.07569149306118488
1738773147091603700,1.440603759765625,-0.011326280656456947,-0.0046938021057285366,-0.05429390024542808
1738773147101594600,1.4505947265625,-0.007706318327318876,-0.009818268979992717,-0.05504208826422691
1738773147111585500,1.46058544921875,-0.01421791044473648,-0.00944780996609479,-0.0584802460193634
1738773147121576700,1.47057666015625,-0.0011579378634691238,0.004701309558749199,-0.05174246219694614
1738773147131568600,1.480568603515625,-0.016352566119562834,-0.0032143589366227386,-0.05967559328377246
1738773147141559800,1.490559814453125,-0.011464209556113929,-0.00593936345372349,-0.050097033077478405
1738773147151550700,1.50055078125,0.005063713130354881,-0.008086750745959579,-0.05862754553556442
1738773147161541600,1.510541748046875,-0.017224654512666165,0.003963496803492308,-0.06521276914477347
1738773147171532500,1.520532470703125,-0.007405271287821233,-0.006123670512065291,-0.07478957578539848
1738773147181523700,1.530523681640625,-0.017146328579448162,0.006266348652075975,-0.058630468145012854
1738773147191514600,1.5405146484375,-0.010175357055664061,-0.00015133637050166726,-0.0682049366980791
1738773147201505500,1.550505615234375,-0.016625556108355522,-0.0005791333285160362,-0.0664098699748516
1738773147211497700,1.560497802734375,-0.024601941815018652,0.008365531154721976,-0.05742927566170692
1738773147221488600,1.570488525390625,0.0036749256530776617,0.003667034607566893,-0.06386310810148715
1738773147231479600,1.5804794921875,-0.020459435182809828,0.00009991671051830052,-0.060869771504402155
1738773147241470700,1.590470703125,0.0001835581396706402,-0.00642846214491874,-0.06580839695036411
1738773147251461600,1.600461669921875,-0.009652794486284255,-0.0045043074156157666,-0.06431318995654582
1738773147261452800,1.610452880859375,-0.0110363577991724,-0.00783264812072739,-0.06236614754199981
1738773147271444000,1.62044384765625,0.011081402517296373,-0.002864833112899214,-0.06850479642748833
1738773147281435000,1.630434814453125,-0.00868015006184578,0.004626947414595633,-0.0551864651709795
1738773147291426600,1.640426513671875,-0.00838675660584122,-0.015625037296302616,-0.05802957964241504
1738773147301417700,1.650417724609375,-0.005024586696363985,-0.006133077661227435,-0.06027706630825996
1738773147311408600,1.66040869140625,-0.011361351969838143,-0.005838661291915923,-0.06266892988085747
1738773147321399800,1.67039990234375,-0.0066524253602139646,-0.006373096962179988,-0.05907470478117466
1738773147331391000,1.680390869140625,-0.0024561244478449222,-0.008835578085575252,-0.05803016416430473
1738773147341382000,1.6903818359375,-0.011875712966453284,0.012249587780144065,-0.04829962826669216
1738773147351372800,1.700372802734375,-0.007453238615393638,-0.0060757945160381495,-0.06431202091276646
1738773147361364000,1.710364013671875,-0.009975487102009356,-0.005295074200816452,-0.058926236221194264
1738773147371355600,1.720355712890625,-0.01683598398864269,0.002461184215452522,-0.07269114220142364
1738773147381346800,1.730346923828125,-0.014832827472686766,-0.0032189072475768622,-0.054736383315920824
1738773147391338000,1.740337890625,-0.014372187690995632,0.0014799180931411682,-0.062220017069578165
1738773147401329000,1.750328857421875,-0.017068039178848266,-0.002327109507005662,-0.06790741505622863
1738773147411319800,1.76031982421875,-0.01946516344845295,-0.008395487901568412,-0.05937865616381168
1738773147421311000,1.77031103515625,-0.011647767695784569,0.0002508877548389137,-0.0610205781519413
1738773147431302000,1.780302001953125,-0.005608487531542777,-0.010007160881906747,-0.06879822641611098
1738773147441293800,1.7902939453125,-0.019399660464189946,0.003594955752044916,-0.07822481093108653
1738773147451285000,1.800284912109375,-0.014655699073802679,-0.006701232938002795,-0.0686450816810131
1738773147461276000,1.81027587890625,-0.0011473982031457125,0.003339848479814827,-0.06250877088308333
1738773147471266800,1.820266845703125,-0.007317611270677298,-0.0024450185319408774,-0.06131283909678459
1738773147481258000,1.830258056640625,-0.0037286468680016696,-0.01042971540922299,-0.061461892178654665
1738773147491249000,1.840248779296875,-0.018413024047017095,-0.00499572592806071,-0.054279287198185915
1738773147501239800,1.85023974609375,-0.022478940045367924,-0.002907028286810964,-0.05577917036712169
1738773147511230700,1.860230712890625,-0.012816208686958997,-0.002906973487883806,-0.06879588832855224
1738773147521223000,1.870222900390625,0.003652129299379885,-0.003879088189359754,-0.060714288681745526
1738773147531213800,1.8802138671875,-0.004873743516206741,-0.005581617790926248,-0.0641577071338892
1738773147541205000,1.890205078125,-0.0036637466719374057,-0.017873766071163116,-0.06998948202729224
1738773147551196000,1.90019580078125,-0.009107435563206673,-0.012967143198661506,-0.06295826821625232
1738773147561186800,1.910186767578125,-0.010950433081388473,-0.002538231507036835,-0.057421676877141
1738773147571177700,1.920177734375,-0.012145743813179432,-0.00855614008968696,-0.06730009681284427
1738773147581169000,1.9301689453125,0.0017986103871837258,-0.0009272891790606081,-0.07283785719573498
1738773147591159800,1.940159912109375,-0.00881983252717182,-0.015833656811993568,-0.062364393976330756
1738773147601151700,1.95015185546875,-0.009023227878473698,0.0020546492411755023,-0.05802607251107692
1738773147611143000,1.960142822265625,-0.004929254829417914,-0.0007829122723080217,-0.06461129612028599
1738773147621133800,1.9701337890625,-0.016327395145688206,0.007814801936782896,-0.06041968964934349
1738773147631124700,1.980124755859375,0.00594402136253193,0.0023411928312852977,-0.06086918698251247
1738773147641116000,1.990115966796875,-0.0051484322717413305,0.0038918563393875952,-0.070745268830657
1738773147651106800,2.00010693359375,-0.002552607092261314,-0.00349986134711653,-0.05952069498300552
1738773147661097700,2.01009765625,-0.012046996146440505,-0.00653674482498318,-0.054580900493264195
1738773147671089000,2.0200888671875,-0.019651077941991387,-0.009664265728369354,-0.06280979965627193
1738773147681080800,2.030080810546875,-0.015013481269218027,0.004066171726677567,-0.05817044941782951
1738773147691071700,2.04007177734375,0.00336626156270504,0.0011439458707347512,-0.054875499525666234
1738773147701063000,2.05006298828125,-0.010056699112057685,0.0016926475283689797,-0.06086158819794654
1738773147711053800,2.0600537109375,-0.015790310860611497,-0.01821874358393252,-0.06265665492117405
1738773147721044700,2.070044677734375,-0.002135879517532885,-0.00024062208915129302,-0.05592179370820522
1738773147731035600,2.08003564453125,-0.010361856071092189,0.010524846346769482,-0.06250584827363491
1738773147741026800,2.09002685546875,-0.010997779354453086,-0.0021108181415125725,-0.06340308937430382
1738773147751017700,2.100017822265625,-0.02413962153289467,-0.009848444922547786,-0.061460138612985604
1738773147761010000,2.110010009765625,-0.014938589402101934,0.0026298735795542596,-0.05846329488456249
1738773147771000800,2.120000732421875,0.010160744008421898,0.008247074140515178,-0.06758885062634945
1738773147780991700,2.12999169921875,-0.008954290828108787,-0.0029669235141947864,-0.06310147607922553
1738773147790982700,2.139982666015625,-0.0014057568783871828,-0.001757748653832823,-0.07746434795260429
1738773147800973800,2.149973876953125,-0.01334346569776535,-0.000876764568220824,-0.05876023200452327
1738773147810964700,2.15996484375,-0.014084639453887939,-0.0021700557817704975,-0.06190145263969898
1738773147820955600,2.16995556640625,-0.023119009780883788,-0.010377674694731831,-0.06444178477227687
1738773147830946800,2.17994677734375,-0.005776245313882827,-0.004096018875669688,-0.06489011306166649
1738773147840938800,2.189938720703125,-0.0071258880908600985,-0.000929590734001249,-0.06324409942030906
1738773147850929700,2.1999296875,-0.013973580294847488,-0.004672850649245083,-0.05740531026422977
1738773147860920800,2.2099208984375,-0.015036825612187384,-0.009700031161494552,-0.05231821625828743
1738773147870911700,2.219911865234375,-0.01593114410340786,-0.0035017610432580113,-0.06324059228897094
1738773147880902700,2.229902587890625,-0.002670680513978004,0.003999956356361508,-0.05321311927139759
1738773147890893800,2.239893798828125,-0.015420838227402417,-0.01092915283134207,-0.04902501993179321
1738773147900885000,2.249885009765625,-0.019672047664783893,-0.0019372699392028153,-0.07476502586603165
1738773147910876000,2.2598759765625,-0.0005429660365916788,0.00532044610409066,-0.05426525867283344
1738773147920867800,2.269867919921875,0.008969524929858743,-0.006637282590009272,-0.05905658460259437
1738773147930858800,2.279858642578125,-0.0032505079622380433,-0.006654471186827868,-0.0644406157284975
1738773147940849700,2.289849609375,0.003491970301605761,0.00047154476819559927,-0.06683423286676407
1738773147950840800,2.2998408203125,-0.011195932275056839,-0.005046323604136705,-0.06608487580418586
1738773147960832000,2.30983203125,0.004472176977992058,0.0030092282859608527,-0.05755436334609985
1738773147970823000,2.319822998046875,-0.006507482197880745,-0.008390775193832814,-0.047829672667384145
1738773147980813800,2.329813720703125,-0.01710782319996506,0.010713665183447301,-0.05321721092462539
1738773147990805800,2.3398056640625,-0.004189889437891543,0.0001486694893799722,-0.05426408962905407
1738773148000796700,2.349796630859375,-0.003961852835677564,0.0012083711427636444,-0.05186813440322876
1738773148010787800,2.359787841796875,0.00021101240217685698,-0.0035831922490149734,-0.05486088647842407
1738773148020779000,2.369779052734375,-0.020264241404272614,-0.009829521026369184,-0.07131985384821891
1738773148030770000,2.37977001953125,-0.004433635065890848,0.0034842801854945717,-0.06024608664810657
1738773148040760800,2.3897607421875,-0.0138859020113945,-0.0011257343606092035,-0.053210196661949156
1738773148050752000,2.399751953125,-0.0036626506933942434,-0.010598879697360097,-0.06488076071143149
1738773148060743000,2.409742919921875,-0.01006955859363079,0.0009183386876247823,-0.062037646239995956
1738773148070733800,2.41973388671875,-0.017543255475163458,0.003924443434737622,-0.05994388883113861
1738773148080726000,2.42972607421875,-0.017338088291883467,0.001103285066783428,-0.0683230101197958
1738773148090717000,2.439717041015625,-0.0005984956161119043,0.0053277343614026905,-0.06383154391944408
1738773148100707800,2.449707763671875,0.007026501103304326,0.0011930274431593715,-0.062333414316177366
1738773148110698800,2.45969873046875,-0.014899499500729142,0.0016216281187720596,-0.052608139115571974
1738773148120690000,2.46968994140625,-0.019228468615747986,-0.000763714381493628,-0.04707213229835033
1738773148130680800,2.479680908203125,0.0029816461592912674,-0.002268474654946476,-0.06323065541684628
1738773148140671700,2.489671630859375,-0.00020867431461811065,0.0032443887487053867,-0.07041501396298408
1738773148150663000,2.499662841796875,-0.009233692291378975,-0.004772128038946539,-0.04781973579525947
1738773148160654800,2.50965478515625,-0.016742460486292837,-0.018141769357584416,-0.07146481527686119
1738773148170645800,2.519645751953125,-0.0086229034492746,0.00020365107962861656,-0.05575345140397548
1738773148180637000,2.529636962890625,0.0017600136761553584,-0.0033346791143529114,-0.05754734908342361
1738773148190627800,2.5396279296875,-0.018496610677242276,-0.008405863165110349,-0.05799684641659259
1738773148200618800,2.54961865234375,-0.013946692287921905,-0.0004421177443116903,-0.06502981379330158
1738773148210610000,2.55960986328125,-0.00457211195481941,-0.012434753355011343,-0.05859305874407291
1738773148220600800,2.569600830078125,0.0020288754791021346,0.0050981816555373365,-0.05948913080096244
1738773148230592800,2.5795927734375,-0.028944921189080923,-0.0004686952239833772,-0.06218260766863823
1738773148240584000,2.589583984375,-0.013086842321883885,0.00402677129805088,-0.055748190706968306
1738773148250574800,2.599574951171875,-0.008397204934619366,-0.004390782304853201,-0.060088265737891194
1738773148260565800,2.609565673828125,-0.008281487866770475,-0.00825377787593752,-0.05903846442401409
1738773148270557000,2.619556884765625,-0.008878869238030164,-0.006610723376646637,-0.06188099437355995
1738773148280547800,2.6295478515625,-0.001059153664112091,-0.0065205974077805874,-0.06711889502704144
1738773148290538800,2.639538818359375,-0.012335749959945679,-0.010678319875430315,-0.07669453262388706
1738773148300529700,2.64952978515625,-0.00395777944875881,-0.0013536248323507607,-0.06562193446755409
1738773148310520800,2.659520751953125,0.0029916195640340448,-0.009003956922423093,-0.056499885857105255
1738773148320512500,2.669512451171875,-0.00763849552180618,-0.0056348458155058324,-0.04916588970720768
1738773148330503700,2.679503662109375,-0.011104728593956678,-0.005943765634205192,-0.06472761597633361
1738773148340494600,2.68949462890625,-0.010735365558601915,-0.01436663473304361,-0.0620312164992094
1738773148350485500,2.699485595703125,0.005703764599561691,-0.0023273104364052413,-0.06606909371316433
1738773148360476400,2.709476318359375,-0.0138379712164402,-0.008012991390004753,-0.08028641963601112
1738773148370467600,2.719467529296875,-0.020450649088155477,-0.005729958486743271,-0.059935705524683
1738773148380458500,2.72945849609375,-0.01598548637283966,0.0027939598337747154,-0.055745268097519875
1738773148390449400,2.739449462890625,-0.011022292741201818,-0.010898556763678789,-0.06337853945493697
1738773148400441600,2.749441650390625,-0.012492949815653263,-0.008793401177972554,-0.0701134006679058
1738773148410432500,2.7594326171875,-0.011059154152870178,0.0039460890109650785,-0.059786652442812914
1738773148420423400,2.76942333984375,-0.007141085659991949,-0.007413655523676425,-0.05260521650612354
1738773148430414600,2.77941455078125,-0.0241769578685984,-0.0020140432361513377,-0.06487666905820369
1738773148440405500,2.789405517578125,-0.019712416207790375,0.004843275312706828,-0.05694470701515674
1738773148450396400,2.799396484375,-0.0141734867811203,0.0004971358671784401,-0.06053951663672923
1738773148460387600,2.8093876953125,-0.003742145670391619,0.0024829759221523997,-0.0596434445798397
1738773148470379500,2.819379638671875,0.003299589534662664,-0.00918464725157246,-0.059194531768560404
1738773148480370400,2.829370361328125,-0.00959320978615433,-0.01416181460963562,-0.06204056884944439
1738773148490361600,2.839361572265625,-0.0063601461490616195,0.0027738303611986336,-0.059499652194976806
1738773148500352500,2.8493525390625,0.0006792144358158111,-0.008443765756394713,-0.06324059228897094
1738773148510343400,2.859343505859375,0.0034282391493208704,-0.005109908625949174,-0.062494742357730865
1738773148520334800,2.8693349609375,-0.017117120751272887,-0.013921302118338644,-0.053669046345353126
1738773148530325800,2.87932568359375,0.0007499598507769406,-0.004324384271446615,-0.05875497130751609
1738773148540316700,2.889316650390625,0.004612462231516838,-0.006181063255108893,-0.06384031174778938
1738773148550307600,2.8993076171875,-0.006229816033970564,-0.009877524886559694,-0.06937631856501102
1738773148560299500,2.909299560546875,-0.002959434327483177,0.004645871310774236,-0.07206921091079711
1738773148570290700,2.919290771484375,-0.015606734454631805,-0.0026245398173108695,-0.0696779318600893
1738773148580281600,2.929281494140625,-0.023994039049744606,0.00020461919400840996,-0.05800619876682758
1738773148590272800,2.939272705078125,-0.01668806341793388,0.008041103239636868,-0.05770692355930805
1738773148600263700,2.949263671875,-0.020225005372427402,0.0022184249681420623,-0.06728489924371242
1738773148610254600,2.959254638671875,-0.009589063333999365,0.0034219738053157924,-0.06070142920017242
1738773148620245800,2.969245849609375,-0.016088946747314183,-0.00021276596784591673,-0.0719260030478239
1738773148630236700,2.979236572265625,-0.005433130964636802,-0.0052103733257390554,-0.07162614331841469
1738773148640228600,2.989228515625,-0.010322693104483187,0.00011297712149098515,-0.07072481056451797
1738773148650219800,2.9992197265625,-0.004619476494193077,-0.004505019801668822,-0.0578571456849575
1738773148660210700,3.009210693359375,-0.027108371677994725,-0.0098336857448332,-0.06204407598078251
1738773148670201600,3.01920166015625,-0.013196714170835911,-0.0007729936664924025,-0.05964870527684688
1738773148680192800,3.02919287109375,-0.01822597704231739,0.008508994746021925,-0.0524672693401575
1738773148690183700,3.03918359375,-0.010546491922996937,-0.0007464161868207157,-0.0653384413510561
1738773148700174600,3.049174560546875,-0.006216390296816826,-0.011831143172364682,-0.07237082420587539
1738773148710165500,3.05916552734375,-0.011036339532863348,-0.006719426181819289,-0.060253685432672496
1738773148720157700,3.06915771484375,-0.016792181379534303,-0.0071780566695146255,-0.0622013123691082
1738773148730148600,3.079148681640625,-0.014441179540287702,-0.01093724480625242,-0.06444412285983563
1738773148740139800,3.089139892578125,-0.008009739986993373,0.009464359242096543,-0.0647416445016861
1738773148750130700,3.099130615234375,-0.0223211374014616,0.005513393126614392,-0.0654863253891468
1738773148760121600,3.10912158203125,-0.004915226304065436,-0.018797657716739923,-0.06339139893651008
1738773148770112500,3.119112548828125,-0.0013198504269123076,-0.000021152385883033274,-0.06144961721897125
1738773148780103700,3.129103759765625,-0.01135547021832317,0.004031374407932162,-0.07730828060805797
1738773148790094600,3.139094482421875,0.004001636856794357,-0.001719754731003195,-0.06114508131444454
1738773148800086500,3.14908642578125,-0.012740805363189429,-0.007773721007723361,-0.06563596299290657
1738773148810077700,3.15907763671875,0.0030623284463770686,-0.00994332013176754,-0.0633908144146204
1738773148820068600,3.169068603515625,0.004044909742940217,-0.0038928427200764417,-0.06593406915664672
1738773148830059500,3.1790595703125,-0.0018926818788051604,-0.0034305407042615112,-0.06638415101170539
1738773148840050700,3.18905078125,-0.014300291498564183,-0.01722759538842365,-0.06279518660902976
1738773148850041600,3.19904150390625,-0.012017185530066489,-0.001165627979580313,-0.06998012967705726
1738773148860032500,3.209032470703125,-0.015247838014364242,0.007760477933660149,-0.07013035180270671
1738773148870023400,3.2190234375,-0.007634440401196479,-0.0032019926453940566,-0.06174889242649078
1738773148880015600,3.229015625,0.0013332944303750991,-0.003225464852526784,-0.06489128210544585
1738773148890006500,3.239006591796875,-0.004079378268122673,-0.0066697052885778246,-0.050524903100728984
1738773148899997700,3.248997802734375,-0.0076888374695554375,-0.000673880673572421,-0.06623685149550437
1738773148909988600,3.258988525390625,-0.014055395093094556,0.00761668554879725,-0.06952946330010891
1738773148919979500,3.2689794921875,-0.009207955061923711,-0.014133995020948349,-0.0542670122385025
1738773148929970400,3.278970458984375,-0.000550656152702868,-0.011576182030607014,-0.06938216378390788
1738773148939961600,3.288961669921875,-0.0008691657836548983,-0.002464216422755271,-0.054716509571671484
1738773148949952500,3.298952392578125,-0.0035866080488078295,-0.008309417053312063,-0.0595084200233221
1738773148959944700,3.30894482421875,-0.014849175819288938,0.0011013488380238413,-0.06145253982841968
1738773148969935600,3.318935546875,0.0069189856082201,-0.004776018762774765,-0.05980301905572414
1738773148979926500,3.328926513671875,-0.019427754047513006,-0.006115450672991574,-0.06309504633843899
1738773148989917400,3.33891748046875,-0.01597788758827373,0.0016477306744083762,-0.05845628062188625
1738773148999908600,3.34890869140625,-0.018356909945607184,-0.006763247057236731,-0.055313890942931175
1738773149009899500,3.3588994140625,-0.021008867492806164,-0.008792506128828972,-0.05501695382297039
1738773149019890400,3.368890380859375,-0.005815444813109934,-0.0009704707336612046,-0.05651216081678867
1738773149029881600,3.378881591796875,-0.015110457103978842,0.0067257463247515255,-0.05980418809950351
1738773149039873500,3.38887353515625,-0.018644494715332985,-0.012208031927049159,-0.05980418809950351
1738773149049864400,3.398864501953125,-0.01473057267460972,-0.013715422549005598,-0.061896776464581485
1738773149059855600,3.408855712890625,-0.00043837315095588564,-0.0007998268744908273,-0.04034486986994743
1738773149069846500,3.418846435546875,-0.012274904884491115,-0.007498666926007718,-0.06278817234635353
1738773149079837400,3.42883740234375,-0.011795030679367482,-0.00901000307071954,-0.06129238083064556
1738773149089828600,3.43882861328125,-0.012499964078329503,-0.00867616800647229,-0.055907180660963056
1738773149099819800,3.44881982421875,-0.007031195544730871,-0.0035299824907444417,-0.05994622691869735
1738773149109810700,3.458810791015625,-0.008325893264077603,-0.00552060831869021,-0.07146890693008899
1738773149119802600,3.468802734375,-0.01341185475885868,0.011784180491790175,-0.060844052541255945
1738773149129793500,3.47879345703125,-0.01749824728965759,-0.004154050939530134,-0.06234218214452266
1738773149139784400,3.488784423828125,-0.014895407847501336,-0.0036771358764730393,-0.062487143573164934
1738773149149775600,3.498775634765625,-0.012309483007527888,-0.0024673764942213894,-0.0755026924908161
1738773149159766800,3.508766845703125,-0.00942537893857807,-0.01301726595070213,-0.06278349617123603
1738773149169757700,3.5187578125,-0.016727847439050675,-0.004610526002757251,-0.0536567713856697
1738773149179748600,3.52874853515625,-0.02387012040913105,-0.004890639852080494,-0.052610477203130716
1738773149189739800,3.53873974609375,-0.00956979237794876,-0.01582563790231943,-0.06308335590064525
1738773149199731700,3.548731689453125,-0.007269114220142364,-0.002087656461633742,-0.06742459997534751
1738773149209722600,3.55872265625,-0.00490647674202919,-0.0009441124496981501,-0.07445581378638744
1738773149219713800,3.5687138671875,-0.018540449818968772,0.002116645094100386,-0.067869421133399
1738773149229704700,3.57870458984375,-0.01116961052371189,-0.0012968166111968456,-0.05889058038592338
1738773149239695600,3.588695556640625,-0.019396756121050567,-0.006585680266935378,-0.05963818388283253
1738773149249686800,3.598686767578125,-0.024940964511036872,-0.008197828171309084,-0.07101064176857472
1738773149259677700,3.608677734375,-0.010080061721336096,0.0021420535299926996,-0.0665232672214508
1738773149269668600,3.618668701171875,-0.01833528263568878,-0.0065747204815037544,-0.061733694857358926
1738773149279659500,3.628659423828125,-0.010130896859429776,-0.0058368711936287575,-0.06861585558652877
1738773149289651700,3.638651611328125,-0.017281353135965762,-0.005359408141300082,-0.053952539461851114
1738773149299642600,3.648642578125,-0.001956961020361632,-0.002047963772062212,-0.06397825891375541
1738773149309633500,3.658633544921875,-0.019512546254135666,-0.008844711240101605,-0.06143208156228065
1738773149319624700,3.668624755859375,-0.008878887504339218,0.00044725057715550064,-0.06562251898944378
1738773149329616000,3.678615966796875,-0.0052390696972608565,-0.008470361502375453,-0.06158464177548885
1738773149339606800,3.688606689453125,-0.006166121414303779,-0.00864706977615133,-0.06412731199562549
1738773149349597700,3.69859765625,-0.006211714121699333,-0.009608900545630603,-0.06427870316505432
1738773149359588600,3.708588623046875,0.0005839373677968978,-0.0005736717021092772,-0.05470423461198806
1738773149369580800,3.718580810546875,-0.004379859052039682,0.0015714505678042767,-0.06532908900082111
1738773149379571700,3.72857177734375,-0.013479056509863585,-0.005581526459380984,-0.055900166398286814
1738773149389563000,3.73856298828125,-0.008600655084848403,-0.002060622324235737,-0.06083586923480033
1738773149399553800,3.7485537109375,-0.01603984690858051,-0.0007292823889292776,-0.056044543305039406
1738773149409544700,3.758544677734375,-0.021552454583905634,-0.013569145946111529,-0.05649170255064964
1738773149419535600,3.76853564453125,-0.014728179788123815,-0.0095315792594105,-0.06232347744405269
1738773149429526800,3.77852685546875,-0.00047576428558677433,-0.011423329556453973,-0.055739422878623004
1738773149439517700,3.788517578125,-0.017793978833220897,-0.008145604793727397,-0.06681319007873535
1738773149449508600,3.798508544921875,-0.024586780778504905,-0.007161434328276663,-0.06830722802877426
1738773149459500800,3.808500732421875,-0.014724690923094749,-0.009914861222263425,-0.05064823721945286
1738773149469491700,3.81849169921875,-0.008967734831571579,-0.011103175957687198,-0.05917933419942856
1738773149479482600,3.828482666015625,-0.004981332076527178,-0.00038834173046052453,-0.057683542683720584
1738773149489473800,3.838473876953125,-0.0047427923466078934,-0.0014239501222036777,-0.05484276629984378
1738773149499464700,3.848464599609375,-0.005742379576899111,-0.017036986453458667,-0.06591653349995613
1738773149509455600,3.85845556640625,-0.015195852098800242,-0.013350279031042009,-0.05693477014303207
1738773149519446800,3.86844677734375,-0.018774295107461512,-0.008006068458873777,-0.05618599760234356
1738773149529438700,3.878438720703125,-0.015287000980973242,-0.008913904018793255,-0.06860708775818347
1738773149539429600,3.8884296875,-0.007815057665109634,-0.008684296514000742,-0.062470192438364026
1738773149549420800,3.8984208984375,-0.013020225092768668,-0.007653455628920346,-0.062470192438364026
1738773149559411700,3.90841162109375,-0.006772307146526873,-0.004612316101044416,-0.0662093789666891
1738773149569402600,3.918402587890625,-0.011273655420076101,-0.01719952007140964,-0.06426350559592246
1738773149579393500,3.9283935546875,-0.0208089427402243,-0.006635638622194528,-0.05932371110618114
1738773149593755600,3.942755615234375,-0.009950900650024413,-0.0122997835974209,-0.055286418414115905
1738773149603746600,3.95274658203125,-0.003800561326742172,-0.015599190468993038,-0.06725684219300747
1738773149613737700,3.96273779296875,0.00200136641766876,-0.005515658148936927,-0.05722936917543411
1738773149623729700,3.972729736328125,-0.024523031359910963,-0.007033350969199091,-0.04959668233990669
1738773149633720600,3.982720458984375,-0.004995908591151237,-0.0003489778344519436,-0.06051672028303146
1738773149643711700,3.992711669921875,-0.01541910292804241,-0.0012548406329937279,-0.06560556785464286
1738773149653702700,4.00270263671875,-0.0006114098966121674,-0.00751130721187219,-0.060817749056220054
1738773149663693600,4.012693603515625,-0.008755553385615348,-0.0038837643644772466,-0.0611205313950777
1738773149673684700,4.022684814453125,-0.015793196937441824,-0.007035561192594468,-0.059627077966928475
1738773149683675600,4.032675537109375,-0.017001403683423996,0.003732957716938108,-0.06800678377747535
1738773149693666800,4.042666748046875,0.005797872623801231,-0.002961863746587187,-0.0733896458595991
1738773149703658800,4.05265869140625,-0.012151625564694403,-0.003766111067868769,-0.05767886650860309
1738773149713649700,4.062649658203125,-0.003497778987884521,0.0019407222716137766,-0.0611205313950777
1738773149723640600,4.072640625,-0.0012327566653490066,-0.009461016507539898,-0.06007248364686966
1738773149733631700,4.0826318359375,-0.024021511578559872,0.0002494447164237499,-0.052739072018861764
1738773149743622700,4.09262255859375,-0.0042716859698295594,-0.006975976492464542,-0.055282911282777784
1738773149753613800,4.10261376953125,-0.007857179773785174,0.002891227929480374,-0.05318798483014107
1738773149763604700,4.112604736328125,0.001273088675737381,-0.0006426087524741888,-0.05318623126447201
1738773149773596000,4.122595947265625,-0.0020727146208286283,-0.005729173035454005,-0.06021744507551193
1738773149783587600,4.132587646484375,-0.006075520521402359,-0.0017855317099019885,-0.060818333578109736
1738773149793578800,4.142578857421875,-0.01367372056543827,-0.007902060095127672,-0.05857026239037513
1738773149803570000,4.15256982421875,-0.005894355268217623,-0.008408968437649308,-0.06425649133324622
1738773149813560800,4.162560791015625,-0.015784429109096526,-0.0002950374238193035,-0.0662011956602335
1738773149823551700,4.1725517578125,-0.007919687083363533,-0.009241455472726375,-0.057521045598387714
1738773149833543000,4.18254296875,-0.009223791951872408,-0.014259411498904227,-0.060360652938485145
1738773149843533800,4.192533935546875,-0.011170834366418421,0.0023466544576920567,-0.0675432579189539
1738773149853524700,4.202524658203125,-0.0011082535028457642,0.005279913164302707,-0.06634732613265514
1738773149863515600,4.212515625,-0.011411036330461501,-0.005982344078924506,-0.05392740502059459
1738773149873507800,4.2225078125,-0.022266776865720747,-0.02080583746768534,-0.06605038901269436
1738773149883498800,4.232498779296875,-0.015749339529406277,-0.006045454176701605,-0.06081307288110256
1738773149893490000,4.242489990234375,-0.005428454789519309,0.006610376316774636,-0.05767185224592685
1738773149903480800,4.252480712890625,-0.00015546455634757875,-0.009999342901632189,-0.06425707585513592
1738773149913471700,4.2624716796875,-0.0025952589238993824,-0.0051303668920882044,-0.054230771881341934
1738773149923462700,4.272462646484375,-0.0016536124259233474,0.007381324156653136,-0.06829729115664959
1738773149933453800,4.282453857421875,-0.018017266195081174,0.003626793928723782,-0.07323357851505279
1738773149944069600,4.293069580078125,-0.010870353582501411,-0.010543386650457977,-0.056773442101478576
1738773149954060800,4.303060791015625,-0.0018231055076234042,0.002711670111492276,-0.055878539088368415
1738773149964051700,4.3130517578125,-0.018864256679546085,0.006012976679205894,-0.05857260047793388
1738773149974042600,4.323042724609375,-0.010783296353556215,-0.005225223834998905,-0.07099252158999443
1738773149984034800,4.333034912109375,-0.008474964612256735,-0.010575297892373055,-0.06231587865948677
1738773149994025700,4.343025634765625,-0.0014309095859527587,0.0016992416659370063,-0.06590718114972115
1738773150004016600,4.3530166015625,-0.008616418909560889,-0.005329213932435959,-0.04465864141583442
1738773150014007800,4.3630078125,-0.0023696517407894133,0.0017277371080592274,-0.06037409694194793
1738773150023998700,4.372998779296875,-0.02303653739551082,-0.00030340339336544275,-0.061871057501435275
1738773150033989600,4.38298974609375,-0.013033084574341772,-0.017132628847658635,-0.06875204918682574
1738773150043980800,4.392980712890625,-0.006527940464019775,0.00009405322531238198,-0.06336801806092261
1738773150053971700,4.4029716796875,-0.016657704812288284,-0.0021965053972788154,-0.05917874967753887
1738773150063963600,4.412963623046875,0.0012590601503849029,-0.011476831575669347,-0.05079787482321262
1738773150073954800,4.422954833984375,-0.012409381451737134,-0.006796583071257919,-0.060224459338188166
1738773150083945700,4.43294580078125,-0.03130702894423157,0.004969696437660605,-0.061571782293915744
1738773150093936600,4.4429365234375,-0.019582067826390267,-0.0015018559303134678,-0.06261924552023411
1738773150103927800,4.452927734375,-0.0007358947928063571,0.0011610614023171365,-0.06710778911113739
1738773150113918700,4.462918701171875,-0.007111877831816673,-0.016715024490095674,-0.062170917230844495
1738773150123909600,4.47290966796875,-0.017087894656788557,-0.00385455653630197,-0.052744332715868945
1738773150133900500,4.482900634765625,-0.003289689195156097,-0.015071275871060788,-0.0606762947589159
1738773150143892700,4.492892822265625,-0.009506664013862609,-0.006361534388549626,-0.05363923572897911
1738773150153883600,4.502883544921875,-0.013845022011734544,-0.0009395276061259209,-0.05378711976706981
1738773150163874600,4.51287451171875,-0.019856245125271378,-0.010281922702677547,-0.05692775588035583
1738773150173865700,4.52286572265625,-0.02638294348027557,-0.0029798377946950493,-0.04600128819644451
1738773150183856600,4.532856689453125,-0.011565934631228446,0.004047046901099384,-0.0630599750250578
1738773150193847600,4.54284765625,-0.011510989573597908,0.00042971492046490307,-0.06784954738914967
1738773150203838700,4.552838623046875,-0.018715806385874747,0.0020261355327442286,-0.06844634423851967
1738773150213829600,4.56282958984375,-0.01834872663915157,-0.016627784598059952,-0.05887187568545341
1738773150223821600,4.572821533203125,-0.005211633701063693,-0.015387684876471757,-0.0650070174396038
1738773150233812700,4.582812744140625,-0.0075479311615228644,-0.005906337966956198,-0.06934884603619575
1738773150243803600,4.5928037109375,-0.024822872823011127,-0.008502144880127162,-0.0641138679921627
1738773150253794600,4.602794677734375,0.0002636193722486496,-0.011641758080106228,-0.05423778614401817
1738773150263785700,4.61278564453125,-0.0032487726628780363,-0.008312796320486813,-0.068152914249897
1738773150273777000,4.62277685546875,-0.008612327256333083,-0.005595554984733462,-0.06171908181011677
1738773150283767800,4.632767822265625,-0.0067465333844535045,-0.0045109563521109515,-0.04705751925110817
1738773150293758700,4.6427587890625,-0.010144943651091308,-0.00215494954418391,-0.05843289974629878
1738773150303750700,4.652750732421875,-0.014159458255767822,-0.0005600085029378533,-0.05184826065897941
1738773150313741600,4.662741455078125,-0.010964461606740951,-0.010614296462200582,-0.06127250708639621
1738773150323732500,4.672732421875,-0.00890807706620544,-0.014518610424362121,-0.07159633270204067
1738773150333723600,4.6827236328125,0.009796605137456208,-0.011715572234988212,-0.06112111591696739
1738773150343714600,4.692714599609375,-0.026150340300798415,-0.0034530082643963395,-0.04989829563498497
1738773150353705500,4.70270556640625,-0.01319616618156433,0.002654752292484045,-0.0509469279050827
1738773150363696400,4.7126962890625,-0.01156772472951561,0.00034910569861531257,-0.06381868443787098
1738773150373687600,4.7226875,-0.016994937410019336,-0.0031430107334628698,-0.06486848575174808
1738773150383679500,4.732679443359375,-0.005462923314701765,-0.004422017693333328,-0.07519231136739253
1738773150393670700,4.742670654296875,-0.009176390879880637,0.007280621994845569,-0.06202537128031253
1738773150403661600,4.75266162109375,-0.020530783385969698,-0.0012017952715046704,-0.053797056639194485
1738773150413652500,4.762652587890625,-0.0003407762616872787,-0.012695998107083141,-0.060380526682734484
1738773150423643400,4.772643310546875,-0.014951485416293143,-0.02187503760177642,-0.05499708007872104
1738773150433634600,4.782634521484375,-0.020222119295597075,-0.018566917700786143,-0.047369069418311115
1738773150443625500,4.79262548828125,-0.010410316589009016,-0.009815163707453757,-0.06741933927834033
1738773150453616400,4.802616455078125,-0.013634521066211163,-0.019981862532626838,-0.06098726040422916
1738773150463608600,4.812608642578125,-0.016463588745985178,-0.02501914431378245,-0.05709785175025463
1738773150473599500,4.822599609375,-0.01745733075737953,-0.017613708629179745,-0.06682663408219813
1738773150483590400,4.83259033203125,-0.008751461732387542,-0.00824553977055475,-0.06263911926448344
1738773150493581600,4.84258154296875,0.011220482194423675,-0.009939593804720788,-0.057255088138580316
1738773150503572500,4.852572509765625,-0.00844224965274334,-0.010936386289726941,-0.05710954218804836
1738773150513563400,4.8625634765625,-0.009490881922841072,0.003019092092849314,-0.05756254665255546
1738773150523554300,4.87255419921875,0.00587212517010048,-0.015482231292128562,-0.06818857008516788
1738773150533545500,4.88254541015625,-0.011101239728927612,-0.009042900693323462,-0.057113633841276164
1738773150543537400,4.892537353515625,-0.007220014381408691,0.004634436601307243,-0.05516659142673015
1738773150553528600,4.902528564453125,-0.006548398730158805,-0.008273085364606232,-0.06414601669609546
1738773150563519500,4.91251953125,-0.01430796334836632,-0.009199698690231888,-0.04514262554049492
1738773150573510400,4.922510498046875,0.00978022025823593,-0.010862444270681589,-0.05367138443291187
1738773150583501300,4.932501220703125,-0.011933014377951622,-0.01158979043085128,-0.06803600987195968
1738773150593492500,4.942492431640625,-0.015941062709223477,-0.011800528838392346,-0.06684183165133
1738773150603483400,4.9524833984375,-0.009826397487521172,-0.007047196831461042,-0.06579495294690131
1738773150613474300,4.962474365234375,-0.0029810616374015804,-0.015564301818702369,-0.058761401048302644
1738773150623466500,4.972466552734375,-0.012891082287766038,-0.015395429791510104,-0.06085574297904968
1738773150633457400,4.98245751953125,-0.0063280157114379105,-0.012641801968123763,-0.07402443663179874
1738773150643448300,4.9924482421875,-0.022912673553824422,-0.008135320861730725,-0.05726619405448436
1738773150653439500,5.002439453125,-0.01443940770830959,0.006732157799229026,-0.06250234114229679
1738773150663430400,5.012430419921875,-0.007438607301842421,-0.01053914886675775,-0.06698971568942069
1738773150673421300,5.02242138671875,-0.020102840297482907,-0.005710267405584454,-0.0512777672946453
1738773150683412500,5.03241259765625,0.0035445042064413427,-0.0019891279906034467,-0.051127545168995855
1738773150693403400,5.0424033203125,-0.017693514133431017,-0.0020847521184943615,-0.05427168841361999
1738773150703395300,5.052395263671875,-0.02151219563875347,-0.0022330562816932796,-0.054421326017379756
1738773150713386500,5.062386474609375,-0.00255669874548912,-0.0053595177391543986,-0.06310264512300491
1738773150723377400,5.07237744140625,-0.003096212449669838,-0.011814100706018507,-0.059064183387160296
1738773150733368300,5.082368408203125,-0.009625303691159933,-0.012233641292341052,-0.05951484976410865
1738773150743359200,5.092359130859375,-0.010536628116108476,-0.007161781388148665,-0.057274377360939974
1738773150753350400,5.102350341796875,-0.021737821088172495,-0.009918313554674386,-0.06924480113983154
1738773150763341300,5.11234130859375,-0.007560827175714075,-0.01641943907700479,-0.06879647285044192
1738773150773332500,5.12233251953125,0.0025969942232593893,-0.003660075143817812,-0.06670096187591552
1738773150783324400,5.132324462890625,-0.011916592966113238,-0.0028914288588799534,-0.0637087943226099
1738773150793315300,5.1423154296875,-0.011554828715324402,0.0076641048870980735,-0.05802548798918724
1738773150803306200,5.15230615234375,-0.010925883162021637,0.0014582542506046592,-0.06341419529020786
1738773150813297400,5.16229736328125,-0.020199852664861826,-0.013455748699512332,-0.056532034561038016
1738773150823288300,5.172288330078125,-0.012174367119465023,-0.0029875279108062384,-0.05848258410692215
1738773150833279500,5.182279541015625,0.000699709234572947,-0.0009667444066144526,-0.061923079949617384
1738773150843270700,5.192270751953125,-0.011083083017729221,-0.009684468266181648,-0.04606207847297191
1738773150853261600,5.202261474609375,-0.013086276066303252,-0.013036810901388526,-0.06476385633349419
1738773150863253200,5.212253173828125,-0.0014607202023267745,-0.004961805392149836,-0.05802899512052535
1738773150873244400,5.222244384765625,-0.006139817929267883,0.005035802210122346,-0.06281622939705848
1738773150883235300,5.2322353515625,-0.005371737899910659,-0.0006848039263859391,-0.06296528247892856
1738773150893226500,5.2422265625,-0.013038308738730848,-0.003750913498736918,-0.07029986315071582
1738773150903217700,5.2522177734375,-0.004372205468546599,-0.007434406050760299,-0.060574003428220745
1738773150913208600,5.26220849609375,-0.028762568625807762,-0.00041343963909894226,-0.05608429079353809
1738773150923199500,5.272199462890625,-0.007142272970080375,-0.011348894347064197,-0.056385904088616365
1738773150933190400,5.2821904296875,0.0041197285448201,0.0017515015761367975,-0.058630468145012854
1738773150943182600,5.2921826171875,-0.013521744874119758,0.005179539796058088,-0.060875032201409336
1738773150953173500,5.302173583984375,-0.0071533606196753675,-0.004765442569833248,-0.06715922703742981
1738773150963164400,5.312164306640625,-0.007779968085419386,0.0009345774363726377,-0.06566226647794246
1738773150973155600,5.322155517578125,-0.01623743357360363,-0.009331234381720423,-0.06341828694343567
1738773150983146500,5.332146484375,-0.003465630283951759,0.0053528140037320555,-0.05758358944058418
1738773150993137400,5.342137451171875,-0.0041320217708125705,0.006926767055876553,-0.06192717160284519
1738773151003128600,5.352128662109375,-0.010190554624795914,-0.007105247161630541,-0.06058277125656605
1738773151013119500,5.362119384765625,-0.024224340674281118,-0.014792988652642815,-0.05863806692957878
1738773151023111400,5.372111328125,-0.004430657657515258,-0.003363393752183765,-0.056093643143773075
1738773151033102600,5.3821025390625,-0.016997896552085875,-0.0012573796499520539,-0.05654255595505237
1738773151043093500,5.392093505859375,0.00029401451051235195,-0.021608605217933653,-0.05713935280442237
1738773151053084400,5.40208447265625,-0.005936404311656951,-0.015013079410418868,-0.07180091536343097
1738773151063075600,5.41207568359375,-0.01486322261095047,-0.0006452208346687257,-0.05997720657885074
1738773151073066500,5.42206640625,0.004122048366069793,-0.012599844256229698,-0.054444122371077534
1738773151083057400,5.432057373046875,-0.022529793449770658,-0.010979348648618907,-0.06641513067185878
1738773151093048300,5.44204833984375,-0.011493417384289205,-0.003936608796566724,-0.058632806232571597
1738773151103040500,5.45204052734375,-0.0007803001901134848,0.004931574650667608,-0.06686170539557934
1738773151113031400,5.462031494140625,-0.008149952175281942,-0.006503207881562411,-0.053093292284011835
1738773151123022600,5.472022705078125,-0.025005261918902396,-0.013628712379932403,-0.06910393136441707
1738773151133013500,5.482013427734375,-0.004442950883507728,0.0028896935595199465,-0.06656301470994949
1738773151143004400,5.49200439453125,-0.011452537384629249,-0.008825531615596264,-0.06222644681036472
1738773151152995300,5.501995361328125,-0.012960603860020637,-0.006826265823468566,-0.06327449455857277
1738773151162986500,5.511986572265625,-0.0029816278929822144,-0.005169073200970888,-0.05998480536341667
1738773151172977400,5.521977294921875,-0.0162649061024189,0.006385883378516882,-0.05863982049524784
1738773151182969300,5.53196923828125,-0.005496825584303588,-0.004330430419743061,-0.07315525258183479
1738773151192960500,5.54196044921875,-0.0062742579638957975,0.002548223178088665,-0.0724058955192566
1738773151202951400,5.551951416015625,-0.005896072301268577,-0.010028130604699254,-0.061783963739871973
1738773151212942300,5.5619423828125,-0.010437222862243651,-0.0036689343037083744,-0.0724058955192566
1738773151222933500,5.57193359375,-0.010270615857373922,-0.008548157712630927,-0.0718085141479969
1738773151232924400,5.58192431640625,-0.013314239603281021,-0.0068367689511738714,-0.058195583859086034
1738773151242915300,5.591915283203125,-0.01817799144843593,-0.007453092484921217,-0.0629810645699501
1738773151252906200,5.60190625,-0.008153459306620061,0.002495890202652663,-0.05609656575322151
1738773151262898400,5.6118984375,0.00006079027652740478,-0.01033480366738513,-0.05923953995406627
1738773151272889300,5.621889404296875,-0.015329050024412571,-0.004676869237236678,-0.05594751267135143
1738773151282880500,5.631880615234375,-0.012621581164002417,-0.009045421443972737,-0.049961423999071115
1738773151292871400,5.641871337890625,-0.002574234402179718,-0.013807484746631234,-0.05699556041955948
1738773151302862300,5.6518623046875,-0.004935118314623833,-0.004353537300694733,-0.06582534808516502
1738773151312853200,5.661853271484375,-0.009324877706170081,-0.00915001432960853,-0.06597790829837322
1738773151322844400,5.671844482421875,-0.003160509857535362,0.0004971358671784401,-0.06044307052493095
1738773151332836400,5.68183642578125,0.000775076025724411,-0.002049260680004954,-0.05296294390261173
1738773151342827500,5.69182763671875,-0.007646130838990211,-0.0040814240947365755,-0.06628010611534119
1738773151352818400,5.701818359375,-0.011981529694795608,-0.006046312693227082,-0.05550619864463806
1738773151362809300,5.711809326171875,-0.010272387689352035,0.005266761421784758,-0.05700140563845634
1738773151372800300,5.72180029296875,-0.005445953913591802,0.0011796199723146856,-0.05655541543662548
1738773151382791400,5.73179150390625,-0.006248539000749588,-0.010274871907383203,-0.056559507089853286
1738773151392782300,5.7417822265625,0.00001698766741901636,-0.004319762895256281,-0.06359364351034164
1738773151402773500,5.7517734375,-0.00450838080253452,-0.00041113808415830133,-0.05985621054768562
1738773151412765400,5.761765380859375,-0.007731434502266347,-0.0100942729097791,-0.05252221439778804
1738773151422756400,5.77175634765625,0.00011102262642234563,-0.001843344578053802,-0.05237082322835922
1738773151432747300,5.781747314453125,-0.010023363098036498,0.0016035079401917755,-0.07272445994913578
1738773151442738400,5.791738525390625,-0.008268646651506423,0.0004212941519916057,-0.05386895283162593
1738773151452729300,5.801729248046875,-0.0020774273285642264,-0.0071176865180954335,-0.05551613551676273
1738773151462720500,5.811720458984375,-0.005140285497903824,-0.001187109159026295,-0.07047697328329086
1738773151472711400,5.82171142578125,0.003922178412415087,-0.011550627464242279,-0.06374094302654267
1738773151482702600,5.83170263671875,-0.005953318913839757,0.0005682648746296763,-0.06014964053630829
1738773151492694300,5.8416943359375,-0.001589315018057823,-0.006768635618407279,-0.060898413076996796
1738773151502685400,5.851685546875,0.00074347531106323,0.0031975539322942493,-0.07151976033449173
1738773151512676400,5.86167626953125,-0.012715141198970376,-0.003099792646244168,-0.06104571259319782
1738773151522667500,5.87166748046875,-0.020327296703122555,-0.007300093880295753,-0.06448328582644462
1738773151532658400,5.881658447265625,-0.015730032040737568,-0.011759959365986287,-0.06582943973839282
1738773151542649600,5.891649658203125,-0.013129475887212902,0.0008011055161245167,-0.04862286887168884
1738773151552640500,5.901640625,-0.010550656641460954,-0.011397738457471131,-0.05131868382692337
1738773151562631400,5.91163134765625,0.0017634660085663197,-0.0012235139129683375,-0.05715747298300266
1738773151572623600,5.92162353515625,-0.016205266603361815,-0.010242156947869807,-0.06209726747274399
1738773151582614500,5.931614501953125,-0.022751327245961874,-0.00907758841421455,-0.05715981107056141
1738773151592605400,5.94160546875,-0.011412187107931822,-0.01230181115772575,-0.05057341841757297
1738773151602596600,5.9515966796875,0.0006897540961392223,-0.016237616236694157,-0.05087152458131313
1738773151612587500,5.96158740234375,-0.010437186329625547,-0.01100415429631248,-0.07062193471193313
1738773151622578400,5.971578369140625,0.00483167620645836,-0.007962320648692548,-0.06882745251059531
1738773151632569600,5.981569580078125,-0.021862287718057632,-0.0038946510846726594,-0.0668850862711668
1738773151642561500,5.9915615234375,0.0014677344650030136,-0.0019424210383556782,-0.07092471705079079
1738773151652552400,6.001552490234375,-0.002499981855880469,0.0000056808221153914924,-0.05312018029093742
1738773151662543600,6.011543701171875,-0.009177541657350958,-0.008162957787327467,-0.05162205068767071
1738773151672534500,6.021534423828125,0.002184979356266558,-0.006865501855313778,-0.04548573988974094
1738773151682525400,6.031525390625,-0.00864681404782459,-0.007808536592777818,-0.07227262452840805
1738773151692516400,6.041516357421875,-0.011496961048245428,0.001141973109357059,-0.06239537363648414
1738773151702507500,6.051507568359375,-0.0114636798331514,-0.005265647176932543,-0.05416355186402797
1738773151712498400,6.06149853515625,0.006410999553464353,-0.003921685222070664,-0.06553776331543922
1738773151722490600,6.07149072265625,-0.011263152292370796,-0.01581009327331558,-0.06643325085043907
1738773151732481500,6.0814814453125,-0.01784017432881519,-0.012896196854300795,-0.05775602339804172
1738773151742472400,6.091472412109375,-0.008839140015840529,0.004482040784880519,-0.06015139410197735
1738773151752463400,6.10146337890625,-0.00609247165620327,-0.015253738032188265,-0.06329086117148398
1738773151762454500,6.11145458984375,-0.008965378477703779,-0.0038403453478589654,-0.05954992107748985
1738773151772445400,6.121445556640625,-0.018412476057745514,-0.00631356706097722,-0.06299041692018509
1738773151782436400,6.131436279296875,-0.015205734171997755,-0.004164298338908702,-0.06433306370079517
1738773151792428500,6.141428466796875,-0.000911214827094227,0.007202149931155145,-0.0583452214628458
1738773151802419500,6.15141943359375,-0.0021937106519937513,-0.0068281289869919415,-0.07570493706464768
1738773151812410400,6.161410400390625,-0.008718180517293513,-0.005020257581118494,-0.06328326238691806
1738773151822401500,6.171401611328125,-0.006518569847475737,-0.002108680983353406,-0.03934124578535556
1738773151832392400,6.181392333984375,-0.004015062593948096,-0.011597498813271523,-0.06104045189619064
1738773151842383400,6.19138330078125,-0.007726776593457907,-0.008145641326345503,-0.05430559068322181
1738773151852374500,6.20137451171875,0.00325642624637112,-0.004664941337425261,-0.06059270812869071
1738773151862366500,6.211366455078125,-0.013182174188829958,-0.013324103410169482,-0.05849895071983337
1738773151872357400,6.221357421875,-0.01424478018535301,-0.00035915216859430074,-0.06403378849327564
1738773151882348500,6.2313486328125,-0.014225454430375248,0.004888009503576905,-0.04862169982790947
1738773151892339500,6.24133935546875,-0.018794114052783698,-0.005019910521246493,-0.07810206133425235
1738773151902330400,6.251330322265625,-0.0007674772411584853,-0.010156962882447986,-0.060142626273632045
1738773151912321300,6.2613212890625,-0.003474398112297058,0.010033975823596119,-0.05356149431765079
1738773151922312400,6.2713125,-0.0031914712513796983,-0.01516911022234708,-0.06613046851158141
1738773151932303400,6.281303466796875,0.0016542152141220867,-0.012040328943636268,-0.0643359863102436
1738773151942295600,6.291295654296875,-0.0034866548056714233,-0.0075181570777669545,-0.06763093620240689
1738773151952286500,6.301286376953125,0.00335985008822754,-0.009083415366802364,-0.0574561636686325
1738773151962277400,6.31127734375,-0.0030026706810109315,0.0012802673351950942,-0.05850596498250961
1738773151972268300,6.321268310546875,-0.011246201157569885,-0.0025832579588517543,-0.05715922654867172
1738773151982259500,6.331259521484375,-0.01539689109623432,-0.0038791977872140704,-0.0604495002657175
1738773151992250400,6.34125048828125,-0.015950433325767517,-0.009185359637625515,-0.061794485133886336
1738773152002241300,6.3512412109375,-0.004887808574177324,-0.017100571475271133,-0.04787818798422813
1738773152012233500,6.3612333984375,-0.020434300741553304,-0.012588592209853231,-0.0640396337121725
1738773152022224400,6.371224365234375,-0.008272701772116125,-0.00859765941016376,-0.05416413638591766
1738773152032215300,6.38121533203125,-0.004302629097364842,-0.008851798568014055,-0.06763444333374499
1738773152042206500,6.39120654296875,-0.015721300745010373,-0.017484036101214587,-0.054615387284755706
1738773152052197400,6.401197265625,-0.0014823292459361255,-0.0030611959352158007,-0.06598959873616694
1738773152062188300,6.411188232421875,0.012258026814926415,-0.011308288342040031,-0.05521452222168445
1738773152072179500,6.421179443359375,-0.016164989391900596,-0.0038773163573816417,-0.05102350027263164
1738773152082171400,6.43117138671875,-0.011989091946743429,-0.002325282876100391,-0.05611176332235336
1738773152092162300,6.441162353515625,-0.01827270226087421,-0.008757544413302093,-0.05716214915812015
1738773152102153500,6.451153564453125,-0.014568660111166537,-0.015774967161007226,-0.05087678527832031
1738773152112144400,6.461144287109375,0.0015373291024938225,0.008960081248078495,-0.06464636743366718
1738773152122135300,6.47113525390625,-0.0010656199375167488,-0.017517043321672827,-0.06509820285439491
1738773152132126200,6.481126220703125,-0.009117335902713238,-0.008819193206354976,-0.06315349852740765
1738773152142117400,6.491117431640625,0.006249086990021168,-0.0041975612876936795,-0.05462298606932163
1738773152152108500,6.501108642578125,-0.007294869715906679,-0.005665697611495852,-0.06270517023801803
1738773152162100500,6.5111005859375,-0.015150222858786581,0.0057768846346996725,-0.05641980635821819
1738773152172091400,6.52109130859375,-0.0012046996146440505,-0.007987345492094755,-0.067194298350811
1738773152182082300,6.531082275390625,0.00014203881919384003,-0.007131897706538439,-0.057767129313945766
1738773152192073500,6.541073486328125,-0.004380973296891898,0.002603588360827416,-0.06420037723183632
1738773152202064600,6.551064697265625,0.0006301511297002434,-0.0047812794597819445,-0.06644611033201217
1738773152212055600,6.5610556640625,-0.023339338000677525,0.0009395641387440264,-0.05267945078611374
1738773152222046500,6.57104638671875,-0.01569561831448227,0.00013078677281737328,-0.05297755694985389
1738773152232038400,6.581038330078125,-0.010855119480751454,-0.007994980809278785,-0.07228197687864303
1738773152242029300,6.591029296875,-0.026551304050814357,-0.008081435250025241,-0.06031272214353084
1738773152252020500,6.6010205078125,-0.0027969372421503065,-0.0017718502444215118,-0.05792144309282302
1738773152262011600,6.61101171875,-0.009871405673027038,0.0035306218115612863,-0.0787187319278717
1738773152272002600,6.62100244140625,-0.004571545699238777,-0.007411682762298733,-0.05013561152219772
1738773152281993500,6.630993408203125,-0.0034656120176427066,-0.002025441413000226,-0.0627063392817974
1738773152291984600,6.640984619140625,0.00038874358925968406,-0.0015974617918953298,-0.06255553263425827
1738773152301976300,6.650976318359375,-0.01085455322517082,-0.006921433293633162,-0.06225684194862842
1738773152311967500,6.660967529296875,-0.010143190085422247,0.002129157515801489,-0.05178630133867263
1738773152321958400,6.67095849609375,-0.007390110251307487,-0.002371295708604157,-0.06315583661496639
1738773152331949300,6.68094921875,-0.005111643925309181,-0.005234868446178734,-0.058214288559556
1738773152341940500,6.6909404296875,0.00286824891269207,-0.016479407369624822,-0.05791618239581585
1738773152351931400,6.700931396484375,-0.021050386813282966,-0.00000931581761687994,-0.06644435676634311
1738773152361922300,6.71092236328125,-0.011625537597667426,-0.002876304354984313,-0.06659340984821319
1738773152371914500,6.72091455078125,-0.018607048781774937,-0.005126275238860398,-0.0721311702311039
1738773152381905400,6.730905517578125,-0.007257423782348633,0.0022104060584679243,-0.059112114182114595
1738773152391896300,6.740896240234375,-0.016087193181645126,-0.004326320500206202,-0.05821487308144569
1738773152401887500,6.750887451171875,-0.008799355994723737,0.00002190130455419421,-0.0634516046911478
1738773152411878400,6.76087841796875,-0.02009118639230728,-0.015786474935710428,-0.06599369038939476
1738773152421869300,6.770869384765625,-0.011392331629991531,-0.009644866908155381,-0.06075754330158233
1738773152431860200,6.780860107421875,-0.011706256417371332,-0.004703136189654469,-0.05911152966022491
1738773152441851400,6.790851318359375,-0.02057520704958588,0.0012131021168082952,-0.05596855545938015
1738773152451843300,6.80084326171875,-0.023484883951209484,-0.025608050117641685,-0.05567103381752968
1738773152461834500,6.81083447265625,-0.013868366354703902,-0.006401446273829788,-0.051931847289204594
1738773152471825400,6.820825439453125,-0.005869184294342994,-0.010193111908063292,-0.05941080486774444
1738773152481816300,6.83081640625,-0.01268120239675045,-0.009503102083597332,-0.05866612398028374
1738773152491807200,6.84080712890625,-0.011585223853588103,0.003341547246556729,-0.06120704063475132
1738773152501798400,6.85079833984375,-0.014121427800320089,0.0042917058445513245,-0.0632990444779396
1738773152511789300,6.860789306640625,0.004390343913435936,-0.006066570029966533,-0.06674304745197296
1738773152521781200,6.87078125,-0.017406477352976797,-0.0032591844590380784,-0.07511924613118172
1738773152531772400,6.8807724609375,-0.01779405189845711,0.0051496013155207035,-0.057310617718100546
1738773152541763300,6.890763427734375,-0.014919957766868172,0.0031629575429484246,-0.06389759489297867
1738773152551754200,6.900754150390625,-0.001772891424037516,-0.0033876331442967054,-0.07706570402383804
1738773152561745400,6.910745361328125,-0.009196903944946825,-0.012074249479547142,-0.056117608541250225
1738773152571736300,6.920736328125,-0.015608469753991812,-0.004567563643865287,-0.05926116726398468
1738773152581727200,6.930727294921875,-0.011322152470611035,-0.00859645383376628,-0.06599310586750506
1738773152591718100,6.94071826171875,-0.009731120419502257,-0.014280417754314838,-0.05626958423256874
1738773152601710300,6.95071044921875,-0.007217091771960258,0.0010822422787547111,-0.056716158956289286
1738773152611701200,6.960701171875,-0.00876899738907814,-0.005827025653049349,-0.06524374880492687
1738773152621692400,6.9706923828125,0.002379588612914085,-0.006420826827734708,-0.05955985794961452
1738773152631683300,6.980683349609375,-0.0032084223861806095,-0.006737016637437045,-0.05491992318928241
1738773152641674200,6.99067431640625,-0.0044984439304098485,0.00008384235855191945,-0.05222878440916538
1738773152651665200,7.0006650390625,-0.004917034668661654,-0.004608005252107978,-0.07168459550738335
1738773152661656300,7.01065625,0.0024070611417293547,-0.00194324302226305,-0.06509937189817429
1738773152671648300,7.020648193359375,0.0008405424773693085,0.003887052300106734,-0.05671732800006866
1738773152681639400,7.030639404296875,-0.017467267629504204,0.01228202874502167,-0.046241526693105696
1738773152691630300,7.04063037109375,-0.008939641248248517,0.007718337558675557,-0.05791267526447773
1738773152701621200,7.050621337890625,-0.012865874781273304,-0.003931348099559545,-0.05297404981851577
1738773152711612200,7.060612060546875,-0.019584351115021853,-0.006448500285949558,-0.051777533510327337
1738773152721603300,7.070603271484375,-0.010476331029925495,-0.015544007949344813,-0.057014849641919135
1738773152731594200,7.08059423828125,-0.016059136130940167,-0.004617120140325278,-0.06659048723876476
1738773152741586200,7.090586181640625,-0.0033077911074273288,0.0007374291627667844,-0.07227730070352553
1738773152751577300,7.100577392578125,-0.0041834231644868845,-0.002132153190486133,-0.06180266844034195
1738773152761568300,7.110568359375,-0.010611392119061201,-0.007720456450525671,-0.06629121203124523
1738773152771559200,7.12055908203125,-0.02196516357064247,-0.0015619703534059226,-0.07122749938964844
1738773152781550300,7.13055029296875,-0.021083120039105414,-0.004355290866363794,-0.06150163966715336
1738773152791541200,7.140541259765625,-0.013310769004561006,-0.015372103714849799,-0.0677870035469532
1738773152801532200,7.1505322265625,-0.009296802389156074,-0.003658029317203909,-0.06075812782347202
1738773152811523000,7.160523193359375,-0.0007539967050775885,0.012741718678642064,-0.061056818509101864
1738773152821515300,7.170515380859375,-0.004572751275636255,0.001559705331083387,-0.06599369038939476
1738773152831506200,7.180506103515625,-0.005374678775668144,0.0014291925529018043,-0.05821078142821789
1738773152841497300,7.190497314453125,-0.004272252225410193,0.000607701835874468,-0.053720484271645545
1738773152851488300,7.20048828125,-0.0031902839412912723,-0.0020335516542196275,-0.057762453138828274
1738773152861479200,7.210479248046875,-0.014670878376625477,-0.0021054295803420242,-0.07691606642007827
1738773152871470300,7.22047021484375,0.0022586291143670677,-0.0032487726628780363,-0.05851181020140647
1738773152881461500,7.23046142578125,0.009959668478369712,-0.006464994763024151,-0.06075988138914108
1738773152891453200,7.240453125,-0.0027834932386875152,-0.006243844559323042,-0.05118365927040577
1738773152901444400,7.2504443359375,-0.012751911279093473,0.001407985368091613,-0.0447469042211771
1738773152911435300,7.260435302734375,-0.006396423038840294,-0.010539970850665121,-0.06300502996742725
1738773152921426200,7.27042626953125,-0.002813285588752478,-0.004412263484299183,-0.06450082148313523
1738773152931417300,7.280417236328125,-0.016617354535590857,0.001565861077234149,-0.06480126573443412
1738773152941408500,7.290408447265625,-0.010862754797935486,-0.002934464283008128,-0.0636082565575838
1738773152951399400,7.3003994140625,-0.00886074905944988,0.007923029817920178,-0.062110711476206774
1738773152961391000,7.31039111328125,0.002532751614321023,0.0006530022823251784,-0.06001753858923912
1738773152971382300,7.32038232421875,-0.004030278429389,-0.011356036473903805,-0.060765726608037945
1738773152981373200,7.330373291015625,0.0003682853231206536,-0.013496007644664496,-0.06644903294146061
1738773152991364400,7.3403642578125,-0.013519370253942906,0.004200155103579163,-0.0637567251175642
1738773153001355500,7.35035546875,-0.015347772991191595,0.008065744490548967,-0.0553781883507967
1738773153011346400,7.360346435546875,-0.014706570744514464,-0.010598806632123887,-0.06779986302852631
1738773153021337300,7.37033740234375,-0.0034200010439381003,-0.006655512366443872,-0.06480944904088974
1738773153031328300,7.380328369140625,-0.01702593533648178,0.005697407924011349,-0.051042204973101614
1738773153041320400,7.390320556640625,-0.0010018705189228057,-0.0021399711707606912,-0.06780103207230567
1738773153051311400,7.400311279296875,-0.0055874082108959555,-0.009321206178050488,-0.061517421758174894
1738773153061302500,7.410302490234375,-0.005765175930596888,-0.0037351679403334853,-0.06136836867630481
1738773153071293400,7.42029345703125,0.00008009776519611478,-0.0030896548447199162,-0.053289107117056846
1738773153081284400,7.430284423828125,0.0011649521261453627,-0.006476118945237249,-0.060173605933785436
1738773153091275300,7.440275146484375,-0.00017360300123691558,-0.0017968933541327714,-0.05418927082717418
1738773153101266400,7.450266357421875,-0.007059855383634567,-0.013496756563335656,-0.06032616614699363
1738773153111258400,7.46025830078125,-0.0035082638492807744,-0.0019175240591168402,-0.05882979010939598
1738773153121249300,7.470249267578125,-0.004395020088553428,0.0053081163454800845,-0.06002805998325347
1738773153131240400,7.480240478515625,-0.01907525081541389,-0.004168262127973139,-0.06661036098301411
1738773153141231400,7.4902314453125,0.004434767577052116,-0.00558454040037468,-0.06002630641758441
1738773153151222300,7.50022216796875,-0.010275292032491416,0.00011494988286867738,-0.052094344374537464
1738773153161213400,7.51021337890625,-0.012629746204148978,-0.0057893970564007755,-0.06212240191400051
1738773153171204400,7.520204345703125,-0.015964461851119993,-0.007280165337119251,-0.05239478862583637
1738773153181195300,7.5301953125,-0.01640288980100304,-0.0057902007739990945,-0.06646364598870277
1738773153191187500,7.5401875,-0.013034253618121147,0.0014363346797414123,-0.06152735863029957
1738773153201178400,7.550178466796875,-0.011501052701473235,-0.008191288832668215,-0.06945873615145683
1738773153211169300,7.560169189453125,0.0012339622417464851,0.0064757901516743,-0.07649287257194519
1738773153221160400,7.570160400390625,-0.019611293920874594,0.005559259828645736,-0.07379764213860035
1738773153231151400,7.5801513671875,-0.002730301746726036,-0.01375297808041796,-0.06362053151726722
1738773153241142300,7.590142333984375,-0.01514494389547035,-0.00041179567128419876,-0.05823474682569504
1738773153251133200,7.60013330078125,-0.0032516587397083637,0.010438976427912711,-0.06691723497509956
1738773153261124400,7.610124267578125,-0.015987824460398405,-0.0036180078340694306,-0.07005904013216495
1738773153271116300,7.6201162109375,-0.009794230517279356,-0.013303937404975295,-0.07784253361523151
1738773153281107500,7.630107421875,-0.002294814672600478,-0.00787672472447157,-0.05764262615144253
1738773153291098400,7.640098388671875,-0.001851801879145205,-0.00768399689765647,-0.06018471184968948
1738773153301089300,7.65008935546875,0.0024199206233024594,-0.0033271716613322492,-0.0585410362958908
1738773153311080200,7.660080078125,-0.0026601225873455403,-0.005939107725396752,-0.045074821001291274
1738773153321071400,7.6700712890625,-0.015589180531632154,-0.0024122305071912703,-0.06198796187937259
1738773153331062000,7.68006201171875,0.003984703988302499,-0.010444127527065574,-0.07320844407379627
1738773153341053200,7.69005322265625,-0.0189004787703976,-0.0004215133477002382,-0.059741059735417365
1738773153351045000,7.700045166015625,-0.013344634741544723,-0.009031648646946996,-0.06797229698598384
1738773153361036300,7.710036376953125,-0.013047113099694252,-0.007580426925327628,-0.05570376704335212
1738773153371027200,7.720027099609375,-0.012245733588933943,0.0004206365648657083,-0.05525777684152126
1738773153381018000,7.73001806640625,-0.0073959372038953,-0.013297124071698635,-0.07561082904040813
1738773153391009000,7.740009033203125,-0.0008943184912204742,-0.011774389750137924,-0.06274491772651672
1738773153401000200,7.750000244140625,0.008567337337136268,0.001189520311821252,-0.059604866135120387
1738773153410991000,7.7599912109375,-0.005222703084349632,0.003530219952762127,-0.059601359003782266
1738773153420983000,7.769983154296875,-0.012553192102909087,-0.0037733262599445876,-0.05481354020535945
1738773153430974200,7.77997412109375,-0.007721570695377886,-0.002328150686621666,-0.06783259625434875
1738773153440965000,7.789965087890625,-0.018923932711221277,-0.005613857826404273,-0.05286942040026187
1738773153450956000,7.7999560546875,-0.02364621199276298,0.0018238726926036177,-0.060654082927107805
1738773153460947200,7.809947265625,-0.005367627980373799,0.006197028009220958,-0.07008475909531116
1738773153470938000,7.819938232421875,-0.005436619829665869,-0.008927256690710782,-0.0666454322963953
1738773153480929000,7.829928955078125,-0.022471907516382634,-0.005049227947276086,-0.06275485459864139
1738773153490920200,7.839920166015625,-0.015130933636426924,-0.006766461927630007,-0.05841711765527725
1738773153500912000,7.849912109375,-0.003981178590655327,-0.0054029915546998375,-0.06365268022119999
1738773153510903000,7.859903076171875,-0.013861352092027664,-0.00521587148476392,-0.05827040266096591
1738773153520894200,7.869894287109375,-0.008925064733624458,-0.001962879304494709,-0.05767535937726497
1738773153530885000,7.879885009765625,0.003791811764705926,-0.005351206568535417,-0.05961889466047287
1738773153540876000,7.8898759765625,-0.0008756137907505035,-0.002078705970197916,-0.060820671665668485
1738773153550867200,7.8998671875,-0.011653028392791748,0.007072587001044303,-0.07503741306662559
1738773153560858400,7.9098583984375,-0.012101338415872305,0.00917155030798167,-0.052146951344609255
1738773153570849300,7.919849365234375,-0.00713872930612415,0.002982468143198639,-0.05454758274555206
1738773153580841200,7.92984130859375,-0.016674619414471088,-0.005638078952208161,-0.06547288138568401
1738773153595203000,7.944203125,-0.008593019767664372,-0.015258304609451443,-0.056952305799722665
1738773153605194000,7.954194091796875,-0.004657470417022705,-0.0011072488558478654,-0.06727671593725681
1738773153615185200,7.96418505859375,0.0131213656459935,-0.0002661218565888703,-0.06443243242204189
1738773153625176000,7.974176025390625,-0.004621814581751823,-0.0012671521252952515,-0.06832534820735454
1738773153635167200,7.984167236328125,-0.0024906295056454837,0.005191358098015189,-0.0683271017730236
1738773153645158400,7.994158447265625,-0.00930379838552326,-0.007846713178697973,-0.05650748464167118
1738773153655150000,8.004150146484376,0.0043050402501597996,0.009362999493163078,-0.05875146417617798
1738773153665141000,8.01414111328125,0.002991583031415939,0.00993488109698519,-0.06982523137629032
1738773153675132200,8.024132080078125,-0.004196282646059989,-0.004599292222689837,-0.056955812931060786
1738773153685123300,8.034123291015625,-0.01309624947104603,0.003015292700566351,-0.05740706382989883
1738773153695114200,8.0441142578125,-0.0019300730134360492,-0.009796787800546734,-0.06234159762263298
1738773153705105400,8.05410546875,-0.003637461453210562,-0.013632749234233051,-0.06069266137182712
1738773153715096300,8.064096435546874,0.004025035998690873,0.0011387765052728355,-0.07131693123877048
1738773153725087200,8.074087158203126,-0.0028525033542886376,-0.0011393792934715748,-0.06817454155981541
1738773153735079200,8.0840791015625,-0.0027443668046966195,0.0016732852407731116,-0.05650047037899494
1738773153745070300,8.0940703125,-0.012366108565591274,0.005037519243173301,-0.05111760829687118
1738773153755061200,8.104061279296875,-0.010730579785630107,0.006222217249404639,-0.0684749858111143
1738773153765052200,8.11405224609375,-0.017263799212966113,-0.016798921647574752,-0.0644365240752697
1738773153775043300,8.124043212890625,-0.01810088935792446,-0.009664795451331884,-0.05979483574926853
1738773153785034200,8.1340341796875,-0.005016951379179954,-0.006898563874699175,-0.06638181292414665
1738773153795025200,8.144025146484376,0.001663567564357072,-0.00983448946243152,-0.05007072959244251
1738773153805016300,8.154016357421876,0.003987571798823773,0.0006639620677568018,-0.06698270142674445
1738773153815008300,8.16400830078125,-0.01729015749692917,0.002126929026097059,-0.0717693511813879
1738773153824999200,8.173999267578125,-0.013094459372758865,-0.0018924992157146334,-0.05680383723974228
1738773153834990300,8.183990234375,-0.009430055113695561,-0.009330156669486313,-0.05381108516454696
1738773153844981200,8.193981201171875,-0.01540094621684402,-0.006767283911537378,-0.07221767947077751
1738773153854972200,8.20397216796875,-0.00461132972035557,-0.0125019733723253,-0.07072130343317985
1738773153864963300,8.21396337890625,-0.007714519900083541,0.009652191698085516,-0.07386369311213493
1738773153874954200,8.223954345703126,0.000301028773188591,0.00022389015005901456,-0.06488777497410773
1738773153884945200,8.233945068359375,-0.0036959136421792207,0.0033619872463867065,-0.05366670825779438
1738773153894937300,8.243937255859375,-0.008497742699645459,-0.009157759244646877,-0.055014031213521955
1738773153904928300,8.25392822265625,-0.005049045284185558,-0.0034284766113385555,-0.07327449504733086
1738773153914919200,8.263919189453125,-0.0020054763372056184,0.003185516434628516,-0.07043371866345405
1738773153924910300,8.273910400390625,0.002715706965792924,-0.006125314479880035,-0.06579670651257037
1738773153934901200,8.2839013671875,-0.007205383067857474,-0.002057900644186884,-0.05891629934906959
1738773153945517300,8.294517333984375,-0.012585961861349642,-0.007157013881485909,-0.057418754267692565
1738773153955508200,8.30450830078125,-0.016672902381420135,-0.008241174122691155,-0.06520400131642819
1738773153965499100,8.3144990234375,0.0011526771664619444,-0.001393573250249028,-0.05368190582692623
1738773153975490000,8.324489990234374,-0.0030377602607011794,0.001159965423773974,-0.06954349182546138
1738773153985482200,8.334482177734374,0.0015851868322119115,0.0027412980647757647,-0.06385901644825935
1738773153995473200,8.34447314453125,-0.010162497574090957,0.006560052635334432,-0.05113572847545147
1738773154005464000,8.354464111328125,0.009937474912870675,-0.004587601784896105,-0.05862053127288818
1738773154015455200,8.364455322265625,-0.010044424152374267,-0.013243932579737156,-0.06625380263030528
1738773154025446100,8.374446044921875,0.0026414726858027277,-0.003101582744531333,-0.05877484505176544
1738773154035437000,8.38443701171875,-0.009257036634348332,-0.002271232867613435,-0.06820142956674098
1738773154045428200,8.39442822265625,0.0009054244071245193,-0.0031412389014847577,-0.06326338864266871
1738773154055419100,8.404419189453124,-0.0032908947715535757,0.0034516382912173865,-0.054584992146492
1738773154065411000,8.4144111328125,-0.006558335602283478,-0.006591269757505506,-0.051591655549407
1738773154075402200,8.42440234375,-0.00039225072059780356,-0.01403354858746752,-0.05548457133471965
1738773154085393200,8.43439306640625,0.008612893511913716,-0.002403554010391235,-0.06386603071093559
1738773154095384000,8.444384033203125,0.0034556568792089818,-0.004455481571517884,-0.07224515199959278
1738773154105375200,8.454375244140625,-0.006531447595357894,0.002266995083913207,-0.05713233854174614
1738773154115366100,8.4643662109375,-0.0014145795056596398,-0.01284943510312587,-0.0723965431690216
1738773154125357000,8.474357177734374,0.004902933078072965,0.003004588643461466,-0.0662619859367609
1738773154135349200,8.484349365234374,-0.011698036578297615,-0.002681768163572997,-0.06656359923183917
1738773154145340200,8.494340087890626,-0.015696166303753853,0.004025985846761614,-0.06686404348313808
1738773154155331000,8.5043310546875,-0.008019055804610252,-0.0016241671357303856,-0.05758826561570167
1738773154165322200,8.514322265625,-0.01022679498195648,-0.01218198417034,-0.061630234482884405
1738773154175313200,8.524313232421875,-0.007983984491229057,-0.005861421112995594,-0.06866378638148307
1738773154185304000,8.534303955078125,-0.007498246800899505,0.0018595102615654468,-0.05654606308639049
1738773154195295000,8.544294921875,0.0017675941944122313,-0.004120422664564103,-0.05295359155237674
1738773154205286100,8.5542861328125,0.0026817864298820495,-0.004104275247361511,-0.05265548538863658
1738773154215278000,8.564278076171876,-0.00895019917488098,-0.0002871281119994819,-0.05699731398522854
1738773154225269000,8.57426904296875,-0.007279087624885141,-0.0014927410420961678,-0.05804769982099533
1738773154235260200,8.58426025390625,0.0025152159576304254,-0.013927092538308351,-0.05745148749351501
1738773154245251000,8.5942509765625,-0.009117938690911978,-0.0012055033322423696,-0.07496025617718696
1738773154255242000,8.604241943359375,-0.012208890443574637,0.0015931326766498385,-0.06748129859864711
1738773154265233200,8.614233154296874,-0.0035077158600091934,0.002222607952915132,-0.06074877547323703
1738773154275224300,8.624224365234374,-0.006637246057391166,0.0034649909631349145,-0.06583703852295875
1738773154285216000,8.634216064453126,-0.010403357125259935,0.0024989041436463593,-0.06134907945394515
1738773154295207200,8.644207275390626,-0.008352233281731606,0.00013948153592646122,-0.06434475413858891
1738773154305198000,8.654197998046875,-0.006134557232260703,0.004116714603826403,-0.07197919453978538
1738773154315189200,8.664189208984375,0.00015603081192821263,-0.009074720603693276,-0.06659224080443382
1738773154325180400,8.674180419921875,-0.0005261062333360314,-0.0021544563538394867,-0.06060907474160194
1738773154335171600,8.684171630859375,-0.0032394020463339984,0.0024083215170539914,-0.0603103840559721
1738773154345162500,8.69416259765625,-0.012715086400043218,-0.0016573204866610466,-0.07378010648190975
1738773154355153400,8.7041533203125,-0.0068108855912461875,0.0055904769508168094,-0.05238543627560138
1738773154365145300,8.714145263671876,-0.019836919370293617,-0.0016394560364075004,-0.06121463941931724
1738773154375136300,8.72413623046875,-0.009684358668327332,-0.00686592198042199,-0.067947747066617
1738773154385127400,8.73412744140625,0.0026198271095752715,-0.0042167957111261785,-0.05792553474605083
1738773154395118600,8.74411865234375,-0.006361936247348785,-0.003418503206595778,-0.07752806083858013
1738773154405109500,8.754109619140625,-0.018531134001351892,0.0037813999685458836,-0.0664537091165781
1738773154415100400,8.764100341796874,-0.0009404957205057144,0.005637220435682684,-0.052989831909537315
1738773154425091600,8.774091552734374,-0.010284699181653558,0.006705689917411654,-0.05718260742425918
1738773154435083300,8.784083251953126,0.006113477911613882,-0.005814860291220247,-0.06526596063673495
1738773154445074400,8.794074462890626,-0.00033789018485695123,0.00008154080361127852,-0.05748948141634464
1738773154455065600,8.804065673828125,-0.008919256047345697,0.010602587758097796,-0.0655693274974823
1738773154465056500,8.814056396484375,-0.004719429737329483,0.003834755857288837,-0.05778817210197448
1738773154475047400,8.82404736328125,-0.016532617127895353,0.008439929831493645,-0.06093289986848831
1738773154485038600,8.83403857421875,-0.020874445724487302,0.0006963482337072491,-0.06527239037752151
1738773154495029500,8.844029541015624,-0.01381515659643337,0.005076919671799987,-0.06467559352815151
1738773154505020400,8.8540205078125,-0.0075362224574200805,-0.00587172331130132,-0.061083706516027444
1738773154515012600,8.8640126953125,-0.012244509746227412,-0.005598568925727158,-0.05374678775668144
1738773154525003500,8.87400341796875,0.004965513452887535,0.0017848923890851436,-0.062127078089118
1738773154534994400,8.883994384765625,0.00034136078357696533,-0.002512658674363047,-0.0633253479629755
1738773154544985600,8.893985595703125,-0.018108488142490387,0.0026038258228451012,-0.05464578242301941
1738773154554976500,8.9039765625,-0.01178218946410343,0.010182627046667038,-0.05883154367506504
1738773154564967400,8.913967529296874,0.004149520894885063,-0.0029429763830266893,-0.06481997043490409
1738773154574958300,8.923958251953126,-0.01091653081178665,-0.0061911279913969336,-0.0576350273668766
1738773154584949500,8.933949462890626,-0.01721767678260803,-0.004177504880353808,-0.06795826846063137
1738773154594941400,8.94394140625,-0.0034440029740333555,0.002784991076029837,-0.06017594402134418
1738773154604932600,8.9539326171875,-0.010261318306066095,0.00516328278100118,-0.05149462491571903
1738773154614923500,8.963923583984375,0.002584774062503129,0.006546042376291006,-0.06780512372553348
1738773154624914400,8.97391455078125,-0.006361917981039732,0.004316511492244899,-0.05748129810988903
1738773154634905300,8.9839052734375,0.002944273290969431,0.003212166979536414,-0.0758867233723402
1738773154644896500,8.993896484375,-0.010074234768748283,0.002488949005212635,-0.04147007450759411
1738773154654887400,9.003887451171876,-0.005956862577795982,-0.004100512387696653,-0.058979427713155744
1738773154664879400,9.01387939453125,-0.0038847690114751456,0.00535918894559145,-0.06122866794466972
1738773154674870500,9.02387060546875,-0.004381576085090637,-0.007848868603166193,-0.06137538293898105
1738773154684861400,9.033861328125,0.004285129973292351,-0.010728424361161887,-0.05718962168693542
1738773154694852400,9.043852294921875,-0.01335806047869846,0.007053845767956227,-0.06153145028352737
1738773154704843500,9.053843505859374,-0.007618694842793047,0.002279160445742309,-0.0649678544729948
1738773154714834400,9.06383447265625,0.016662965509295462,0.005238777436316013,-0.06347264747917651
1738773154724825300,9.073825439453126,-0.008950180908571928,0.002831624963041395,-0.05239829575717449
1738773154734816500,9.08381640625,-0.009770813109073788,-0.0013737543049268423,-0.05988192951083183
1738773154744808400,9.093808349609375,-0.002422258710861206,-0.0009851203135214745,-0.06362462317049503
1738773154754799400,9.10379931640625,0.0010240823507308959,0.004883315062150359,-0.06078209322094917
1738773154764790500,9.11379052734375,-0.00042323038075119254,-0.00030068171331658957,-0.06632160716950893
1738773154774781400,9.123781494140625,0.00507828964497894,0.006270202843286097,-0.05300269139111042
1738773154784772400,9.1337724609375,-0.017299509847164152,0.002668031899165362,-0.05330372016429901
1738773154794763300,9.14376318359375,-0.002930189966689795,-0.0016453925868496297,-0.054500820994377135
1738773154804754400,9.15375439453125,0.008064082256425171,-0.002115275120921433,-0.05958616143465042
1738773154814746400,9.163746337890625,-0.0016010054558515548,-0.0013640183622017502,-0.04985679458081722
1738773154824737500,9.173737548828125,-0.0033434652090072628,-0.006076561701018363,-0.06422083549797535
1738773154834728400,9.183728515625,-0.0038473596105352043,0.00008928571864962577,-0.06556698940992355
1738773154844719400,9.19371923828125,0.006759995654225349,0.0005151099152863025,-0.06526654515862465
1738773154854710300,9.203710205078124,-0.007277882048487663,0.0008181662487797438,-0.06811082867383957
1738773154864701400,9.213701416015626,-0.004887772041559219,0.004599657548870891,-0.06496843899488448
1738773154874692400,9.2236923828125,0.004805354455113411,0.00009756035665050148,-0.06002922902703285
1738773154884683300,9.233683349609375,-0.009240158564783631,0.006470200661104172,-0.06930676046013831
1738773154894675500,9.243675537109375,-0.009938077701069414,-0.0026667532575316726,-0.07199731471836567
1738773154904666400,9.253666259765625,-0.0008885098049417138,0.002869965945743024,-0.06077274087071419
1738773154914657300,9.2636572265625,-0.012815605898760258,-0.002180631974712014,-0.05778115783929824
1738773154924648400,9.2736484375,-0.010966196906100957,0.0015508644375018775,-0.05299392356276512
1738773154934639400,9.283639404296874,-0.010417933639883994,0.002440196226350963,-0.063770169121027
1738773154944630300,9.29363037109375,-0.01564706646502018,0.0038320889761671423,-0.07080430554151534
1738773154954621400,9.303621337890625,-0.0036333515336737033,0.0007410641582682729,-0.059282210052013395
1738773154964613400,9.31361328125,-0.004337097622547298,-0.012541209404170512,-0.05703939956128597
1738773154974604300,9.323604248046875,-0.01211069076610729,-0.00357911886209622,-0.06212941617667675
1738773154984595500,9.333595458984375,-0.012717479286529124,-0.005101487857475877,-0.05075637376904487
1738773154994586400,9.34358642578125,-0.0037584757506847377,-0.007193820494227111,-0.05240180288851261
1738773155004577300,9.353577392578124,0.001886252138018608,-0.005229808678571135,-0.0568897619575262
1738773155014568400,9.363568359375,-0.004677325894962996,-0.006942439549043774,-0.0636257922142744
1738773155024559600,9.3735595703125,-0.002716273221373558,0.004274243253096938,-0.06691840401887893
1738773155034550500,9.383550537109375,0.005622516056895256,0.005518014502804726,-0.059285717183351516
1738773155044542500,9.39354248046875,-0.007296038759686052,-0.006928283159527927,-0.07066109767854213
1738773155054533400,9.403533447265625,0.006561221679113805,0.007844996145647019,-0.06961071184277534
1738773155064524300,9.413524169921875,0.00016370266173034906,0.006026164954341948,-0.058089785397052764
1738773155074515500,9.423515380859374,0.00036419366989284753,0.00021822759425267575,-0.060036827811598775
1738773155084506600,9.433506591796874,0.0022901750301010907,0.007020473221316933,-0.059139586710929865
1738773155094497500,9.44349755859375,-0.002494136636983603,0.003945248760748654,-0.0606371317923069
1738773155104488400,9.453488525390625,0.0006786481802351773,0.00043952392842620607,-0.056150341767072676
1738773155114479600,9.463479736328125,0.0028349859639070925,0.001194671410974115,-0.05405307722687721
1738773155124471600,9.473471435546875,-0.004452303233742714,-0.009985204778425395,-0.054205052918195724
1738773155134462500,9.48346240234375,-0.014633505508303642,0.0022776260757818817,-0.0666238049864769
1738773155144453600,9.49345361328125,0.0007130801727995276,0.011802099740970878,-0.06153203480541706
1738773155154444500,9.503444580078124,-0.012456782523728907,0.0007529372591525315,-0.05928747074902057
1738773155164435500,9.513435546875,-0.02659572771443054,-0.0006802008165046572,-0.052253334328532214
1738773155174426600,9.523426513671875,-0.007592921080719679,-0.008011913677770644,-0.05913666410148143
1738773155184417500,9.53341748046875,-0.011989110213052481,-0.0010409421539865433,-0.07529927887320519
1738773155194409500,9.543409423828125,-0.0030774712165817617,-0.015549853168241678,-0.07095803479850292
1738773155204400600,9.553400634765625,0.007184943068027496,-0.0029342998862266537,-0.06407704311311245
1738773155214391600,9.5633916015625,-0.013082184413075446,-0.011762699312344192,-0.05270750783681869
1738773155224382500,9.573382568359374,-0.010267711514234543,0.006182780288159847,-0.06063771631419658
1738773155234373400,9.583373291015626,-0.01824994243979454,0.017106654156185685,-0.06438157901763916
1738773155244364500,9.593364501953126,0.0004524199426174164,0.01473165038684383,-0.07171382160186768
1738773155254355500,9.60335546875,0.0034159459233283995,0.004427625450212508,-0.057197804993391034
1738773155264346400,9.613346435546875,-0.01699380489885807,-0.012786014478094875,-0.06468260779082775
1738773155274338600,9.623338623046875,-0.01165244387090206,0.001834978608507663,-0.0666278966397047
1738773155284329500,9.63332958984375,0.012235230461228638,-0.007089264141209423,-0.06917173590362072
1738773155294320400,9.6433203125,0.0019195333531126378,-0.005006557849328965,-0.05645663123726844
1738773155304311600,9.6533115234375,-0.006367781466245651,-0.0020060973917134105,-0.06379179643094539
1738773155314302500,9.663302490234376,-0.005884966385364532,0.005480385906156152,-0.06708499275743961
1738773155324293400,9.67329345703125,0.0041618323871865865,-0.002666716724913567,-0.04927753338813781
1738773155334284500,9.683284423828125,0.001684610352385789,-0.006901395152602344,-0.05525953040719032
1738773155344275500,9.693275390625,-0.003531078469287604,0.004502955708745867,-0.06753098295927047
1738773155354267600,9.703267578125,-0.0120429044932127,0.007213822102639824,-0.0660357759654522
1738773155364258600,9.713258544921874,-0.0002262465039268136,-0.0021072379449382423,-0.0616957009345293
1738773155374249500,9.72324951171875,0.008366882861591875,-0.003779829065967351,-0.05735270329415798
1738773155384240400,9.733240478515626,-0.01114915225757286,0.009518116989638656,-0.06288754106760025
1738773155394231600,9.7432314453125,-0.00300853416621685,0.015300170989800244,-0.07156710660755634
1738773155404222500,9.753222412109375,-0.01238600057614967,0.0012409947707317768,-0.06977262440621852
1738773155414213400,9.76321337890625,0.01362578977048397,0.004834544016979634,-0.0690244363874197
1738773155424204500,9.77320458984375,-0.0015203779676929115,-0.0008509177409112453,-0.06349135217964649
1738773155434196500,9.783196533203125,-0.0033370354682207104,-0.001014821332041174,-0.045533086162805554
1738773155444187400,9.7931875,0.014901216533780097,-0.008680716317426413,-0.05226970094144344
1738773155454178600,9.803178466796876,0.015609036009572445,0.009219937760662288,-0.05197334834337234
1738773155464169500,9.81316943359375,0.009081734866369515,0.00207907129637897,-0.06304886910915375
1738773155474160400,9.823160400390625,-0.0036876938031055032,0.003482453554589301,-0.05497194563746452
1738773155484151300,9.8331513671875,-0.012227010622154921,0.004105444291140884,-0.056169046467542644
1738773155494142500,9.843142578125,-0.004533533510100096,0.008460735157504676,-0.04704349072575569
1738773155504133400,9.85313330078125,-0.005759915233589708,-0.0017834128180518746,-0.06096154144108295
1738773155514125600,9.86312548828125,-0.008313691369630396,0.008832783340290189,-0.05961480300724506
1738773155524116500,9.873116455078126,0.0012777648508548736,0.00509847391648218,-0.06051262862980365
1738773155534107400,9.883107421875,-0.009472761744260788,0.0007138473577797413,-0.05796878936588764
1738773155544098300,9.893098388671875,-0.008536357676982879,-0.0036533531420864162,-0.05333060817122459
1738773155554089500,9.90308935546875,0.0037660745352506636,0.009811967103369533,-0.0623100334405899
1738773155564080400,9.913080322265625,0.014077661723829805,0.0008195179556496441,-0.0497398902028799
1738773155574071300,9.9230712890625,0.002668981747236103,0.004535140945296734,-0.04824176059961319
1738773155584062500,9.9330625,0.00445814845263958,-0.00440711238514632,-0.053629298856854433
1738773155594054400,9.943054443359374,-0.003986987276934087,-0.011770298096910119,-0.06604688188135624
1738773155604045300,9.95304541015625,-0.007899813339114188,0.007847863956168294,-0.06484919652938842
1738773155614036500,9.963036376953125,-0.004193341770302504,-0.010448237446602433,-0.06679740798771382
1738773155624027400,9.97302734375,0.0011415895168669522,-0.007021642265096307,-0.06245616391301155
1738773155634018300,9.983018310546875,0.0035632454395294185,-0.0013166355565190314,-0.0608113193154335
1738773155644009500,9.993009521484375,-0.0003951002648100257,0.00647484030360356,-0.06545242311954498
1738773155654000600,10.003000732421874,0.00114737993683666,0.00024464067714288827,-0.058417702177166936
1738773155663992300,10.012992431640624,0.0013660459225066006,-0.014577756733074784,-0.058867784032225604
1738773155673983500,10.0229833984375,-0.004699519460462033,-0.0005365180294960737,-0.0669458765476942
1738773155683974400,10.032974365234375,0.002505260819196701,0.008687018194049597,-0.05422200405299663
1738773155693965300,10.04296533203125,0.001874579966533929,0.007802399112936109,-0.057817398196458814
1738773155703956500,10.05295654296875,-0.012950082466006279,-0.0029549408154562113,-0.05662029736638069
1738773155713947600,10.06294775390625,-0.0029015666604042052,0.014234898112155496,-0.061408700686693185
1738773155723938600,10.0729384765625,0.004921108055580407,0.001739482344780117,-0.0706885702073574
1738773155733929500,10.082929443359374,0.0032727380603551864,-0.003097253629285842,-0.0685924747109413
1738773155743921400,10.09292138671875,0.011584602799080312,0.0005843757592141628,-0.05961188039779663
1738773155753912600,10.10291259765625,-0.0048632038558833295,0.003957377589959651,-0.05631868407130241
1738773155763903500,10.112903564453125,-0.0029372224956750867,0.002551876439899206,-0.05197802451848983
1738773155773894700,10.122894775390625,0.005904858395922929,-0.011339140138030052,-0.060657590058445926
1738773155783885600,10.132885498046875,-0.00014145429730415344,0.008508830349240451,-0.07457564077377318
1738773155793876500,10.14287646484375,-0.008045943811535835,0.010447835587803274,-0.07233166123926639
1738773155803867600,10.15286767578125,-0.013290219406876712,-0.00157727752039209,-0.07397884392440318
1738773155813858600,10.162858642578126,-0.01795947159323841,0.004281056586373597,-0.06365326474308967
1738773155823850500,10.1728505859375,-0.004944507197476924,-0.002411262392811477,-0.07128595157861708
1738773155833841700,10.182841552734375,0.004110321395657956,-0.0027127660900354384,-0.07173603343367577
1738773155843832600,10.19283251953125,-0.015628398297168312,-0.005827171783521771,-0.06066460432112217
1738773155853823500,10.202823486328125,-0.018906360521912573,-0.00006442527202889323,-0.06560322976708412
1738773155863814700,10.212814697265625,0.006495170705579221,-0.003917611835151911,-0.06724924340844154
1738773155873805600,10.2228056640625,0.0017658040961250662,0.0026595380654558538,-0.05273673393130302
1738773155883796500,10.23279638671875,0.005564648389816284,0.005113360958360135,-0.06261456934511661
1738773155893787400,10.242787353515626,-0.004675572329293936,0.0003920497911982238,-0.05827449431419372
1738773155903779600,10.252779541015625,-0.005600852214358747,-0.002810673506557941,-0.06380991660952567
1738773155913770500,10.2627705078125,-0.008587832135893404,-0.01125738013871014,-0.057523383685946464
1738773155923761400,10.272761474609375,-0.004304419195652008,0.007314341601356864,-0.06545359216332436
1738773155933752600,10.282752685546875,-0.009921090033650397,-0.005442775575816631,-0.07263678166568278
1738773155943743500,10.292743408203124,-0.013207820086739956,0.00017031506560742855,-0.0558791236102581
1738773155953734400,10.302734375,-0.00005492679132148623,0.005721227191016078,-0.06605448066592216
1738773155963725600,10.3127255859375,-0.0011719115898944437,-0.006015296500455587,-0.06725275053977967
1738773155973716500,10.322716552734375,0.006111194622982293,0.00709187622340396,-0.07219254502952098
1738773155983708400,10.33270849609375,-0.0032230354334227738,0.0077723510345444075,-0.059919923433661454
1738773155993699600,10.342699462890625,-0.007258592826128006,0.004996420047804713,-0.05917699611186981
1738773156003690500,10.3526904296875,-0.0018646248281002043,-0.0013557985231280325,-0.0683054744631052
1738773156013681400,10.362681396484374,-0.0016360402366146444,-0.001602357162721455,-0.07803133418560028
1738773156023672600,10.372672607421874,0.007700491374731063,0.008668952814396471,-0.06471417197287083
1738773156033663500,10.38266357421875,-0.014687318054772913,0.002183061393816024,-0.06965396646261215
1738773156043654400,10.392654296875,-0.011387691987492144,0.003570351033750921,-0.06665712273418903
1738773156053645300,10.402645263671875,-0.0034136443683877586,-0.01211264526117593,-0.0557353312253952
1738773156063637500,10.412637451171875,-0.007412943137623369,0.008500573977548628,-0.060524319067597386
1738773156073628400,10.42262841796875,-0.008331153961084782,0.0004581738299690187,-0.06411562155783176
1738773156083619600,10.43261962890625,-0.002175553940795362,0.0016854323362931608,-0.06860591871440411
1738773156093610500,10.442610595703124,-0.0028548049092292785,-0.004479720963630825,-0.05214285969138145
1738773156103601400,10.452601318359376,0.0015256021320819854,-0.010094693034887314,-0.04526186800599098
1738773156113592300,10.46259228515625,-0.007503507497906684,-0.00535818429859355,-0.06307108094096184
1738773156123583500,10.47258349609375,-0.006176040020119398,-0.009292491540219635,-0.05693477014303207
1738773156133575400,10.482575439453125,0.008875416905619203,0.0032472565592266615,-0.06082943949401378
1738773156143566300,10.49256640625,-0.0037631519258022306,0.0035207397383637726,-0.05723521439433098
1738773156153557500,10.5025576171875,-0.0004389759391546249,-0.00856322741759941,-0.06816051303446292
1738773156163548400,10.51254833984375,-0.0006809680014848708,-0.002876505284383893,-0.061578796556591986
1738773156173539300,10.522539306640626,0.0037316242763772603,0.0014717530529946088,-0.058284431186318396
1738773156183530500,10.532530517578126,0.0008201024775393306,0.006890581497643143,-0.061575289425253865
1738773156193521400,10.542521484375,0.0008253814408555626,0.0032840083730407057,-0.050202831539511675
1738773156203512300,10.55251220703125,0.0015384250810369848,-0.0022680910624563694,-0.06202303319275379
1738773156213503500,10.56250341796875,-0.00027530981004238127,-0.004479337371140718,-0.0677086776137352
1738773156223495400,10.572495361328125,0.007261478902958333,-0.006915076618082821,-0.05678630158305168
1738773156233486300,10.582486328125,-0.0077735383446328335,-0.002112462109327316,-0.05499532651305198
1738773156243477500,10.5924775390625,-0.0009147767573595046,0.00044860228402540084,-0.0579880785882473
1738773156253468400,10.602468505859376,0.013397826233506202,-0.009253365106228739,-0.05843348426818847
1738773156263459300,10.612459228515625,0.008952500729821622,-0.004922112702578306,-0.05783610289692878
1738773156273450500,10.622450439453125,-0.0009141922354698181,0.0041022659533657135,-0.06172726511657237
1738773156283441700,10.632441650390625,-0.0029459903240203855,0.0031315577576868235,-0.06263210500180721
1738773156293433300,10.642433349609375,-0.008719897550344467,0.0024591018562205133,-0.06278232712745666
1738773156303424500,10.652424560546875,0.004322539374232292,-0.005522672411613166,-0.06607376988828181
1738773156313415400,10.66241552734375,-0.008043642256595193,0.00430862044673413,-0.056498716813325876
1738773156323406300,10.67240625,-0.0069540934542194005,0.01191626417255029,-0.07221124972999096
1738773156333397500,10.6823974609375,0.0014548749834299086,-0.005867248065583408,-0.06248597452938556
1738773156343388700,10.692388671875,-0.010824158086907117,0.00088551413025707,-0.06443126337826252
1738773156353379800,10.7023798828125,-0.005811901149153709,0.007442333628889173,-0.06413374173641205
1738773156363370800,10.712370849609375,0.009600205782521515,0.007450096810236573,-0.0612906272649765
1738773156373362700,10.72236279296875,-0.0043634559065103525,0.011498824211768805,-0.05291384406387806
1738773156383353600,10.732353515625,0.0007622165441513061,-0.00650110725602135,-0.06578326250910758
1738773156393344800,10.7423447265625,0.004756309415306896,0.0012544753068126737,-0.06832943986058235
1738773156403336000,10.7523359375,-0.0043838959063403305,-0.0005946231585927307,-0.06698387047052383
1738773156413326800,10.762326904296875,-0.007330470752250403,-0.006774298174213617,-0.06518880374729633
1738773156423317800,10.77231787109375,0.0021574702948331833,0.015227452813461422,-0.060252516388893125
1738773156433308700,10.78230859375,-0.0014490662971511482,0.00005425093788653612,-0.052472530037164684
1738773156443299800,10.7922998046875,0.004011537196300923,-0.006079411245230585,-0.0752197838962078
1738773156453291800,10.802291748046875,-0.005231470912694931,0.013816307373903691,-0.07028174297213553
1738773156463282700,10.81228271484375,-0.014010971429478377,0.007500986747257411,-0.05426759676039219
1738773156473273900,10.82227392578125,-0.011893887943960726,0.006136584792565554,-0.07057868009209632
1738773156483264800,10.8322646484375,0.004956709091924131,-0.005223689465038478,-0.05740881739556789
1738773156493255700,10.842255615234375,0.0036596915513277053,-0.010328501790761948,-0.07581073552668094
1738773156503246800,10.852246826171875,-0.004580350060202181,-0.003957943845540285,-0.04693009347915649
1738773156513237800,10.86223779296875,-0.0015671397188678382,-0.0034769005966372784,-0.06368658249080181
1738773156523229700,10.872229736328125,0.009789006352890282,-0.002358436227031052,-0.052015433919429775
1738773156533220900,10.882220947265624,-0.009140753310918808,-0.009677837595995515,-0.05875146417617798
1738773156543211800,10.892211669921876,-0.01116495261490345,0.0016392185743898152,-0.06383972722589969
1738773156553202700,10.90220263671875,0.009334814578294753,-0.0012750614371150732,-0.0612947189182043
1738773156563193900,10.91219384765625,-0.0008972411006689071,-0.005383190875686705,-0.06907762787938118
1738773156573184800,10.922184814453125,0.004113883325923234,-0.006568491670116782,-0.06398819578588008
1738773156583175700,10.93217578125,0.003559172052610665,0.0026159911846742032,-0.06294248612523079
1738773156593168000,10.94216796875,-0.0007358947928063571,-0.0017939342120662331,-0.05561258162856102
1738773156603158800,10.95215869140625,-0.004469820624124259,0.004553973509930074,-0.07236965516209602
1738773156613149700,10.962149658203124,-0.007582381420396268,-0.0021809059693478046,-0.07222060208022595
1738773156623140600,10.972140625,0.0014151640275493263,0.0012888890330679714,-0.07117138528823852
1738773156633131800,10.9821318359375,-0.006713818424940109,-0.006544964664056897,-0.06608136867284774
1738773156643122700,10.992122802734375,0.009012158495187758,0.0005468750267289579,-0.06862696150243282
1738773156653113600,11.002113525390625,-0.008334734157659113,-0.00028535628002136944,-0.07715572039484977
1738773156663104800,11.012104736328125,0.009043138155341147,0.0039723742296919225,-0.07131400862932205
1738773156673096700,11.0220966796875,0.000059639499057084316,-0.003126187462825328,-0.05695055223405361
1738773156683087600,11.032087646484374,-0.0171556991959922,-0.004513933760486543,-0.06099252110123634
1738773156693078800,11.042078857421876,0.0018312705477699636,-0.0018001264908351004,-0.07221475686132907
1738773156703069700,11.052069580078125,-0.00964399012532085,-0.0012100881758145988,-0.06383212844133376
1738773156713060600,11.062060546875,-0.007197802549600601,0.004172974835708737,-0.0630851094663143
1738773156723051800,11.0720517578125,0.0071019409596920005,-0.011858780097961425,-0.0716121147930622
1738773156733042700,11.082042724609375,0.0013829787909984588,0.004569171079061925,-0.07340601247251033
1738773156743034600,11.09203466796875,0.00321490692589432,0.00006168532567098736,-0.05964052197039127
1738773156753025800,11.10202587890625,-0.01484276434481144,-0.0002122910438105464,-0.059490299844741815
1738773156763016700,11.1120166015625,-0.008697101196646689,-0.0003866794963367283,-0.05754208838641643
1738773156773007600,11.122007568359376,-0.00599661006629467,0.0018950199663639068,-0.062032385542988774
1738773156782998800,11.131998779296875,-0.008823339658509939,-0.005835848280321806,-0.06951601929664611
1738773156792989700,11.14198974609375,-0.0016272906745783983,0.00029520182060077785,-0.06412906556129455
1738773156802980600,11.151980712890625,0.0006043956339359284,-0.013168054331932216,-0.05574935975074768
1738773156812972800,11.161972900390625,0.005011708948481828,0.0049585539891384535,-0.05305529836118221
1738773156822963700,11.171963623046874,0.0077198171297088265,0.0035713922133669253,-0.05769406407773495
1738773156832954600,11.18195458984375,-0.0030208091259002682,-0.004424392313510179,-0.05470072748064995
1738773156842945500,11.191945556640626,-0.013362754920125007,-0.007662442652974277,-0.06607318536639213
1738773156852936700,11.201936767578125,-0.015327332991361617,0.007808664456941187,-0.06562251898944378
1738773156862927600,11.211927734375,-0.006260813960433006,-0.0014936360912397504,-0.06083236210346222
1738773156872918500,11.22191845703125,0.010249591335654258,0.002490410309936851,-0.07130757888853549
1738773156882909700,11.23190966796875,0.005116338366735727,0.005738269657362252,-0.07878712098896502
1738773156892901600,11.241901611328124,0.005932897180318832,0.007763126548472791,-0.06756079357564448
1738773156902892500,11.251892578125,0.003112579062581062,0.005608651928324252,-0.06980769571959972
1738773156912883700,11.2618837890625,0.004876045071147382,0.004558430489338934,-0.06621522418558597
1738773156922874600,11.27187451171875,0.005961538752913474,0.005137527285236865,-0.0642705198585987
1738773156932865500,11.281865478515625,-0.0036947628647089003,0.002885857634618878,-0.06995441071391105
1738773156942856700,11.291856689453125,0.008901117602456361,0.009888411606755108,-0.06830898159444332
1738773156952847600,11.30184765625,-0.0018231055076234042,-0.009503595273941755,-0.05993161387145519
1738773156962839600,11.311839599609375,-0.004873158994317055,0.0030668036920949815,-0.07025953114032744
1738773156972830700,11.321830810546874,-0.0019855843266472217,-0.005499857791606336,-0.07759235824644566
1738773156982821600,11.331821533203126,-0.005679799202084541,-0.007011193936318159,-0.07370061150491238
1738773156992812500,11.3418125,-0.010240238985419273,0.008018580880574881,-0.06517185261249542
1738773157002803700,11.3518037109375,-0.009102741121780127,0.010387027044966817,-0.06038111120462417
1738773157012794600,11.361794677734375,-0.0008522329151630402,0.002935834256187081,-0.05858662900328636
1738773157022785500,11.37178564453125,-0.00873746973965317,-0.010078892677556723,-0.06442424911558628
1738773157032777700,11.38177783203125,-0.005363572859764099,-0.015202336638513952,-0.0702571930527687
1738773157042768600,11.3917685546875,-0.005604980400204658,-0.0018422120668925345,-0.0702571930527687
1738773157052759600,11.401759521484376,-0.003641571372747421,0.00597332052225247,-0.05469546678364277
1738773157062750500,11.41175048828125,-0.002599368843436241,-0.001936721949931234,-0.057539165776968
1738773157072741600,11.42174169921875,-0.0041261400192975995,-0.003239968301914632,-0.06592296324074268
1738773157082732800,11.43173291015625,-0.003090367230772972,0.006884060425311327,-0.06712590928971766
1738773157092723700,11.4417236328125,-0.0030167174726724623,-0.0029572971693240103,-0.0659264703720808
1738773157102715600,11.451715576171875,-0.0026175255546346306,-0.005438610857352614,-0.057846039769053455
1738773157112706600,11.46170654296875,-0.006198233585618436,0.0029891536123119295,-0.06742401545345783
1738773157122697500,11.471697509765624,0.002420468612574041,-0.00624072102047503,-0.06024082595109939
1738773157132688600,11.481688720703126,0.0006458601554855704,-0.01032676649140194,-0.06682429599463939
1738773157142679800,11.4916796875,-0.0018021175185218453,0.004777260871790349,-0.055151393857598305
1738773157152670700,11.501670654296875,0.008289652906917034,0.006845354116428643,-0.06292962664365769
1738773157162662000,11.511661865234375,0.013337035956978797,-0.00015356486020609735,-0.06023907238543033
1738773157172653600,11.521653564453125,-0.003272190071083605,0.01015745607279241,-0.05350596473813057
1738773157182644500,11.53164453125,-0.008925649255514144,0.006097841951064765,-0.06756722331643104
1738773157192635600,11.5416357421875,-0.0037263270467519758,-0.002599606305453926,-0.0639747517824173
1738773157202626800,11.551626708984376,-0.017863610003329814,-0.00544270251058042,-0.058736266607046124
1738773157212617700,11.56161767578125,0.004164718464016914,-0.003803776197135448,-0.05604337426126003
1738773157222609000,11.57160888671875,-0.007556735522486269,-0.008310732227563858,-0.049911155116558074
1738773157232599800,11.581599853515625,0.01174242370929569,-0.005367463583592325,-0.05439911418557167
1738773157242590700,11.5915908203125,-0.009374562066793442,-0.0029225546495057642,-0.05694295344948768
1738773157252583000,11.6015830078125,-0.006747136172652244,-0.003540887477248907,-0.06352876158058643
1738773157262573800,11.61157373046875,-0.01512395590636879,-0.005631101222150027,-0.07699673044085502
1738773157272564700,11.621564697265624,-0.0019985168734565377,-0.006130392513796687,-0.06053484046161174
1738773157282555600,11.6315556640625,-0.009769735396839677,-0.01420035652173683,-0.05963759936094284
1738773157292546800,11.641546875,-0.006302936069108546,-0.01483366772290319,-0.06323065541684628
1738773157302537700,11.651537841796875,-0.007284878044854849,-0.00900561915654689,-0.07251052493751049
1738773157312528600,11.661528564453125,-0.0007768295913934707,-0.0005950615500099957,-0.06846855607032776
1738773157322520800,11.671520751953125,0.002027724701631814,-0.005954378359764814,-0.052907998844981194
1738773157332511000,11.681510986328124,0.00602813771571964,-0.0008664623699150979,-0.0647328766733408
1738773157342502100,11.691502197265624,0.0011316343784332275,0.009076949093397707,-0.07071721177995205
1738773157352493000,11.7014931640625,0.010530746364593505,0.011078370309993623,-0.05859247422218322
1738773157362484000,11.71148388671875,-0.00797401108648628,0.009524875523988157,-0.05829670614600181
1738773157372475100,11.72147509765625,0.00043075610008090734,-0.0026838139901868997,-0.05814648402035236
1738773157382466000,11.731466064453125,0.007634440401196479,0.006330006739124656,-0.06263619665503502
1738773157392458000,11.7414580078125,-0.004304985451232641,-0.009524528464116156,-0.049320203486084936
1738773157402449200,11.75144921875,-0.0006079027652740478,-0.009430931896530092,-0.0523106174737215
1738773157412440000,11.761440185546874,-0.010547094711195677,0.004317004682589322,-0.0599397971779108
1738773157422431000,11.771430908203126,-0.0033539866030216216,0.005268204460199922,-0.06562427255511283
1738773157432422100,11.781422119140625,-0.007331658062338829,-0.00007810673750936985,-0.06322656376361846
