time,seconds_elapsed,z,y,x
1738773145672862500,0.021862548828125,-0.028076171875,-0.0160369873046875,-1.00653076171875
1738773145682853400,0.031853271484375,-0.027587890625,-0.0167083740234375,-1.0064849853515625
1738773145692844300,0.04184423828125,-0.027984619140625,-0.016387939453125,-1.00537109375
1738773145702835500,0.05183544921875,-0.02740478515625,-0.0165863037109375,-1.006439208984375
1738773145712826400,0.061826416015625,-0.027618408203125,-0.01641845703125,-1.0066375732421875
1738773145722818300,0.071818359375,-0.0292510986328125,-0.017608642578125,-1.0057373046875
1738773145732809500,0.0818095703125,-0.0285491943359375,-0.0159759521484375,-1.005401611328125
1738773145742800400,0.09180029296875,-0.02716064453125,-0.0169677734375,-1.005340576171875
1738773145752791300,0.101791259765625,-0.0272216796875,-0.017120361328125,-1.00604248046875
1738773145762782500,0.111782470703125,-0.0289154052734375,-0.0168304443359375,-1.0059051513671875
1738773145772773600,0.121773681640625,-0.027923583984375,-0.0173187255859375,-1.00482177734375
1738773145782764500,0.1317646484375,-0.0271453857421875,-0.0172271728515625,-1.0054168701171875
1738773145792756500,0.141756591796875,-0.028228759765625,-0.017120361328125,-1.006134033203125
1738773145802747400,0.151747314453125,-0.0282135009765625,-0.0172119140625,-1.0052642822265625
1738773145812738300,0.16173828125,-0.028839111328125,-0.0169830322265625,-1.00555419921875
1738773145822729500,0.1717294921875,-0.0281524658203125,-0.0169677734375,-1.005828857421875
1738773145832720600,0.181720703125,-0.0286865234375,-0.014984130859375,-1.0061187744140625
1738773145842711600,0.191711669921875,-0.0265350341796875,-0.0177459716796875,-1.0050048828125
1738773145852702500,0.201702392578125,-0.028411865234375,-0.0171966552734375,-1.0046539306640625
1738773145862693600,0.211693603515625,-0.027618408203125,-0.016815185546875,-1.0056610107421875
1738773145872685300,0.221685302734375,-0.0283355712890625,-0.0162811279296875,-1.0049896240234375
1738773145882676500,0.231676513671875,-0.0276641845703125,-0.016845703125,-1.0055084228515625
1738773145892667600,0.241667724609375,-0.0267181396484375,-0.01708984375,-1.005462646484375
1738773145902658600,0.251658447265625,-0.02801513671875,-0.01690673828125,-1.0063629150390625
1738773145912649500,0.2616494140625,-0.028167724609375,-0.0163421630859375,-1.005615234375
1738773145922640600,0.271640625,-0.0270843505859375,-0.016815185546875,-1.0051116943359375
1738773145932631600,0.281631591796875,-0.02923583984375,-0.0167694091796875,-1.0055999755859375
1738773145942623500,0.29162353515625,-0.0289154052734375,-0.016754150390625,-1.00494384765625
1738773145952614700,0.30161474609375,-0.028106689453125,-0.0170440673828125,-1.0053253173828125
1738773145962605600,0.31160546875,-0.02874755859375,-0.017608642578125,-1.0058441162109375
1738773145972596500,0.321596435546875,-0.0288238525390625,-0.016693115234375,-1.00726318359375
1738773145982587600,0.331587646484375,-0.0276031494140625,-0.0165252685546875,-1.0061798095703125
1738773145992578600,0.34157861328125,-0.02862548828125,-0.01617431640625,-1.0062255859375
1738773146002569500,0.351569580078125,-0.0272979736328125,-0.0171966552734375,-1.0043792724609375
1738773146012560400,0.361560302734375,-0.0283355712890625,-0.0169219970703125,-1.005889892578125
1738773146022552600,0.371552490234375,-0.027496337890625,-0.017120361328125,-1.0055694580078125
1738773146032543500,0.38154345703125,-0.0287933349609375,-0.016204833984375,-1.00634765625
1738773146042534700,0.39153466796875,-0.0309906005859375,-0.0147857666015625,-1.0074920654296875
1738773146052525600,0.401525634765625,-0.0267181396484375,-0.0173492431640625,-1.0050811767578125
1738773146062516500,0.4115166015625,-0.028717041015625,-0.0165557861328125,-1.0056610107421875
1738773146072507400,0.42150732421875,-0.029937744140625,-0.016998291015625,-1.00665283203125
1738773146082498600,0.43149853515625,-0.0265655517578125,-0.0175018310546875,-1.006378173828125
1738773146092490500,0.441490478515625,-0.028228759765625,-0.0168304443359375,-1.005828857421875
1738773146102481400,0.4514814453125,-0.02813720703125,-0.016387939453125,-1.0050811767578125
1738773146112472600,0.46147265625,-0.0279388427734375,-0.0175933837890625,-1.0066986083984375
1738773146122463500,0.47146337890625,-0.029754638671875,-0.0173492431640625,-1.0059661865234375
1738773146132454400,0.481454345703125,-0.026885986328125,-0.0172576904296875,-1.0068511962890625
1738773146142445600,0.491445556640625,-0.027587890625,-0.0172271728515625,-1.006103515625
1738773146152436500,0.5014365234375,-0.0290069580078125,-0.016326904296875,-1.0063323974609375
1738773146162428400,0.511428466796875,-0.0285797119140625,-0.0164337158203125,-1.006103515625
1738773146172419600,0.521419677734375,-0.0292816162109375,-0.0168609619140625,-1.0049896240234375
1738773146182410500,0.531410400390625,-0.02899169921875,-0.0170745849609375,-1.007354736328125
1738773146192401400,0.5414013671875,-0.028289794921875,-0.0176849365234375,-1.00537109375
1738773146202392600,0.551392578125,-0.029754638671875,-0.016876220703125,-1.0061187744140625
1738773146212383500,0.561383544921875,-0.0270233154296875,-0.0147857666015625,-1.00567626953125
1738773146222374400,0.57137451171875,-0.0272674560546875,-0.0156097412109375,-1.0050811767578125
1738773146232366600,0.58136669921875,-0.0283355712890625,-0.0162200927734375,-1.0059051513671875
1738773146242357500,0.591357421875,-0.02764892578125,-0.0167388916015625,-1.0058135986328125
1738773146252348400,0.601348388671875,-0.0280914306640625,-0.016876220703125,-1.00653076171875
1738773146262339600,0.611339599609375,-0.028289794921875,-0.0155792236328125,-1.0057220458984375
1738773146272330500,0.62133056640625,-0.0272369384765625,-0.015380859375,-1.0054779052734375
1738773146282321400,0.6313212890625,-0.02850341796875,-0.01531982421875,-1.0044708251953125
1738773146292312300,0.641312255859375,-0.0280914306640625,-0.016357421875,-1.005767822265625
1738773146302303500,0.651303466796875,-0.02789306640625,-0.01800537109375,-1.0051727294921875
1738773146312295400,0.66129541015625,-0.028594970703125,-0.016357421875,-1.0049896240234375
1738773146322286800,0.671286865234375,-0.0283966064453125,-0.0157318115234375,-1.00555419921875
1738773146332277800,0.68127783203125,-0.0279541015625,-0.01611328125,-1.0065155029296875
1738773146342268700,0.6912685546875,-0.029296875,-0.0168304443359375,-1.0051116943359375
1738773146352259600,0.701259521484375,-0.0292510986328125,-0.0167236328125,-1.00543212890625
1738773146362250800,0.711250732421875,-0.0269317626953125,-0.0168914794921875,-1.0052947998046875
1738773146372241700,0.72124169921875,-0.0283355712890625,-0.01666259765625,-1.005401611328125
1738773146382233600,0.731233642578125,-0.0286712646484375,-0.017181396484375,-1.00518798828125
1738773146392224800,0.741224853515625,-0.0283966064453125,-0.01727294921875,-1.0059661865234375
1738773146402215700,0.751215576171875,-0.0277862548828125,-0.0157623291015625,-1.005615234375
1738773146412206600,0.76120654296875,-0.0283050537109375,-0.0178070068359375,-1.00531005859375
1738773146422197800,0.77119775390625,-0.0290069580078125,-0.0172119140625,-1.00469970703125
1738773146432188700,0.781188720703125,-0.0286102294921875,-0.016204833984375,-1.00616455078125
1738773146442179600,0.7911796875,-0.0298309326171875,-0.0167999267578125,-1.006744384765625
1738773146452171800,0.801171875,-0.0280303955078125,-0.0167083740234375,-1.00604248046875
1738773146462162700,0.81116259765625,-0.0286407470703125,-0.0162811279296875,-1.0059661865234375
1738773146472153600,0.821153564453125,-0.02801513671875,-0.0160980224609375,-1.0055999755859375
1738773146482144800,0.831144775390625,-0.0272979736328125,-0.016143798828125,-1.005615234375
1738773146492135700,0.8411357421875,-0.0280609130859375,-0.0165252685546875,-1.005889892578125
1738773146502126600,0.851126708984375,-0.0278167724609375,-0.0157623291015625,-1.0048675537109375
1738773146512117500,0.861117431640625,-0.0272216796875,-0.01568603515625,-1.0053253173828125
1738773146522108700,0.871108642578125,-0.0284881591796875,-0.016876220703125,-1.00726318359375
1738773146532100600,0.8811005859375,-0.0285797119140625,-0.0162200927734375,-1.0058746337890625
1738773146542091800,0.891091796875,-0.0275726318359375,-0.0161895751953125,-1.0064239501953125
1738773146552082700,0.901082763671875,-0.0282135009765625,-0.01531982421875,-1.0064544677734375
1738773146562073600,0.911073486328125,-0.0296478271484375,-0.015777587890625,-1.0064849853515625
1738773146572064500,0.921064453125,-0.02874755859375,-0.016448974609375,-1.0064239501953125
1738773146582055700,0.9310556640625,-0.028472900390625,-0.0165863037109375,-1.006072998046875
1738773146592046800,0.941046875,-0.0280609130859375,-0.0159454345703125,-1.0063629150390625
1738773146602038500,0.95103857421875,-0.0267486572265625,-0.016265869140625,-1.0063323974609375
1738773146612029700,0.96102978515625,-0.027435302734375,-0.0164794921875,-1.0055694580078125
1738773146622020600,0.9710205078125,-0.02850341796875,-0.0156707763671875,-1.0045928955078125
1738773146632011800,0.98101171875,-0.02850341796875,-0.015533447265625,-1.0056915283203125
1738773146642003000,0.9910029296875,-0.0297393798828125,-0.016632080078125,-1.006256103515625
1738773146651993900,1.000993896484375,-0.0279083251953125,-0.0156402587890625,-1.005157470703125
1738773146661984800,1.01098486328125,-0.0293426513671875,-0.0160675048828125,-1.00537109375
1738773146671976000,1.020975830078125,-0.0284576416015625,-0.016143798828125,-1.0069427490234375
1738773146681967600,1.030967529296875,-0.027496337890625,-0.0162200927734375,-1.0055084228515625
1738773146691958800,1.040958740234375,-0.0275726318359375,-0.0162506103515625,-1.004669189453125
1738773146701950000,1.050949951171875,-0.027862548828125,-0.016632080078125,-1.00665283203125
1738773146711940900,1.06094091796875,-0.027679443359375,-0.0159454345703125,-1.006561279296875
1738773146721931800,1.070931884765625,-0.0283966064453125,-0.0177001953125,-1.0048828125
1738773146731922700,1.080922607421875,-0.0274505615234375,-0.0175628662109375,-1.005889892578125
1738773146741913900,1.090913818359375,-0.0284271240234375,-0.01641845703125,-1.0064239501953125
1738773146751905800,1.10090576171875,-0.0284423828125,-0.0148773193359375,-1.0066070556640625
1738773146761897000,1.11089697265625,-0.0283660888671875,-0.0161285400390625,-1.0058135986328125
1738773146771887900,1.120887939453125,-0.0293731689453125,-0.016693115234375,-1.00494384765625
1738773146781878800,1.130878662109375,-0.0283203125,-0.017181396484375,-1.00518798828125
1738773146791869700,1.14086962890625,-0.029052734375,-0.0169677734375,-1.003875732421875
1738773146801860900,1.15086083984375,-0.028839111328125,-0.0157318115234375,-1.0045166015625
1738773146811851800,1.160851806640625,-0.027862548828125,-0.0164031982421875,-1.005828857421875
1738773146821842700,1.1708427734375,-0.0288848876953125,-0.01666259765625,-1.0064239501953125
1738773146831835000,1.1808349609375,-0.0289154052734375,-0.0167694091796875,-1.0040740966796875
1738773146841825800,1.19082568359375,-0.0284423828125,-0.016448974609375,-1.0074462890625
1738773146851816700,1.200816650390625,-0.0290069580078125,-0.01654052734375,-1.0052337646484375
1738773146861807900,1.210807861328125,-0.0269622802734375,-0.016998291015625,-1.0055694580078125
1738773146871798800,1.220798828125,-0.0276336669921875,-0.017181396484375,-1.006134033203125
1738773146881789700,1.230789794921875,-0.028564453125,-0.0175018310546875,-1.0058746337890625
1738773146891780600,1.240780517578125,-0.0281982421875,-0.0156707763671875,-1.00469970703125
1738773146901772800,1.250772705078125,-0.0287933349609375,-0.016265869140625,-1.006317138671875
1738773146911763700,1.260763671875,-0.02911376953125,-0.0155029296875,-1.0062713623046875
1738773146921755000,1.2707548828125,-0.02642822265625,-0.0156097412109375,-1.00604248046875
1738773146931745800,1.280745849609375,-0.027679443359375,-0.0167999267578125,-1.0059356689453125
1738773146941736700,1.29073681640625,-0.02972412109375,-0.0158843994140625,-1.005340576171875
1738773146951727600,1.3007275390625,-0.028350830078125,-0.0165863037109375,-1.0067138671875
1738773146961718800,1.31071875,-0.028594970703125,-0.0162506103515625,-1.0060272216796875
1738773146971709700,1.320709716796875,-0.0284271240234375,-0.0164337158203125,-1.0062713623046875
1738773146981702000,1.330701904296875,-0.0272674560546875,-0.01580810546875,-1.005645751953125
1738773146991692800,1.34069287109375,-0.0279541015625,-0.0166778564453125,-1.0059356689453125
1738773147001683700,1.35068359375,-0.0282745361328125,-0.0164642333984375,-1.0057830810546875
1738773147011674600,1.360674560546875,-0.0280609130859375,-0.0147857666015625,-1.0054168701171875
1738773147021665800,1.370665771484375,-0.0281524658203125,-0.0154571533203125,-1.0062408447265625
1738773147031656700,1.38065673828125,-0.0270538330078125,-0.0171051025390625,-1.006072998046875
1738773147041647600,1.390647705078125,-0.028839111328125,-0.0158538818359375,-1.0070953369140625
1738773147051638800,1.400638671875,-0.028411865234375,-0.0158843994140625,-1.006988525390625
1738773147061630700,1.410630615234375,-0.0282745361328125,-0.0167694091796875,-1.0055084228515625
1738773147071621600,1.42062158203125,-0.02880859375,-0.0157623291015625,-1.005340576171875
1738773147081612800,1.43061279296875,-0.0276641845703125,-0.016204833984375,-1.0064697265625
1738773147091603700,1.440603759765625,-0.0283355712890625,-0.016815185546875,-1.00604248046875
1738773147101594600,1.4505947265625,-0.0276641845703125,-0.016448974609375,-1.004058837890625
1738773147111585500,1.46058544921875,-0.0279388427734375,-0.017120361328125,-1.0056915283203125
1738773147121576700,1.47057666015625,-0.0273590087890625,-0.016754150390625,-1.0049285888671875
1738773147131568600,1.480568603515625,-0.0282745361328125,-0.0158233642578125,-1.005462646484375
1738773147141559800,1.490559814453125,-0.0292205810546875,-0.016998291015625,-1.0044403076171875
1738773147151550700,1.50055078125,-0.026153564453125,-0.0177459716796875,-1.0054931640625
1738773147161541600,1.510541748046875,-0.0286407470703125,-0.0169219970703125,-1.0052032470703125
1738773147171532500,1.520532470703125,-0.0287322998046875,-0.01654052734375,-1.0067596435546875
1738773147181523700,1.530523681640625,-0.0284423828125,-0.01593017578125,-1.006256103515625
1738773147191514600,1.5405146484375,-0.028411865234375,-0.0155792236328125,-1.0054779052734375
1738773147201505500,1.550505615234375,-0.0281829833984375,-0.0166168212890625,-1.0066680908203125
1738773147211497700,1.560497802734375,-0.02947998046875,-0.0154266357421875,-1.0062408447265625
1738773147221488600,1.570488525390625,-0.02691650390625,-0.0154571533203125,-1.005523681640625
1738773147231479600,1.5804794921875,-0.0286102294921875,-0.0155487060546875,-1.005615234375
1738773147241470700,1.590470703125,-0.028594970703125,-0.0162353515625,-1.0055694580078125
1738773147251461600,1.600461669921875,-0.0280609130859375,-0.0167694091796875,-1.006256103515625
1738773147261452800,1.610452880859375,-0.028167724609375,-0.0166473388671875,-1.0052947998046875
1738773147271444000,1.62044384765625,-0.027008056640625,-0.0165252685546875,-1.0066986083984375
1738773147281435000,1.630434814453125,-0.027557373046875,-0.0157623291015625,-1.0055999755859375
1738773147291426600,1.640426513671875,-0.028289794921875,-0.016876220703125,-1.0050506591796875
1738773147301417700,1.650417724609375,-0.0274505615234375,-0.017303466796875,-1.0057373046875
1738773147311408600,1.66040869140625,-0.0280609130859375,-0.01611328125,-1.0055389404296875
1738773147321399800,1.67039990234375,-0.0279998779296875,-0.0174407958984375,-1.0061798095703125
1738773147331391000,1.680390869140625,-0.02740478515625,-0.0170745849609375,-1.0052337646484375
1738773147341382000,1.6903818359375,-0.0272064208984375,-0.01513671875,-1.0051116943359375
1738773147351372800,1.700372802734375,-0.0278167724609375,-0.0162200927734375,-1.0054168701171875
1738773147361364000,1.710364013671875,-0.0285797119140625,-0.0175933837890625,-1.0052947998046875
1738773147371355600,1.720355712890625,-0.028656005859375,-0.0169830322265625,-1.0063629150390625
1738773147381346800,1.730346923828125,-0.028350830078125,-0.016021728515625,-1.0058441162109375
1738773147391338000,1.740337890625,-0.0292510986328125,-0.0175628662109375,-1.004669189453125
1738773147401329000,1.750328857421875,-0.029449462890625,-0.01611328125,-1.0071258544921875
1738773147411319800,1.76031982421875,-0.0291900634765625,-0.017547607421875,-1.00543212890625
1738773147421311000,1.77031103515625,-0.0283966064453125,-0.016204833984375,-1.005615234375
1738773147431302000,1.780302001953125,-0.0277862548828125,-0.016693115234375,-1.0063934326171875
1738773147441293800,1.7902939453125,-0.02911376953125,-0.016357421875,-1.00689697265625
1738773147451285000,1.800284912109375,-0.029815673828125,-0.0166015625,-1.0069122314453125
1738773147461276000,1.81027587890625,-0.0273590087890625,-0.01556396484375,-1.00494384765625
1738773147471266800,1.820266845703125,-0.0284423828125,-0.016021728515625,-1.0059661865234375
1738773147481258000,1.830258056640625,-0.028076171875,-0.017242431640625,-1.0053558349609375
1738773147491249000,1.840248779296875,-0.0281219482421875,-0.0170440673828125,-1.0057525634765625
1738773147501239800,1.85023974609375,-0.0288238525390625,-0.0165557861328125,-1.004425048828125
1738773147511230700,1.860230712890625,-0.028533935546875,-0.01568603515625,-1.0058746337890625
1738773147521223000,1.870222900390625,-0.0275115966796875,-0.0164337158203125,-1.0064239501953125
1738773147531213800,1.8802138671875,-0.0270843505859375,-0.0166778564453125,-1.005157470703125
1738773147541205000,1.890205078125,-0.02764892578125,-0.0168609619140625,-1.006500244140625
1738773147551196000,1.90019580078125,-0.027801513671875,-0.01806640625,-1.0062408447265625
1738773147561186800,1.910186767578125,-0.028411865234375,-0.0166015625,-1.004730224609375
1738773147571177700,1.920177734375,-0.027923583984375,-0.0166473388671875,-1.0054168701171875
1738773147581169000,1.9301689453125,-0.0279083251953125,-0.0169830322265625,-1.006988525390625
1738773147591159800,1.940159912109375,-0.027374267578125,-0.0171661376953125,-1.005584716796875
1738773147601151700,1.95015185546875,-0.0284423828125,-0.0163116455078125,-1.00506591796875
1738773147611143000,1.960142822265625,-0.0280914306640625,-0.016326904296875,-1.0050201416015625
1738773147621133800,1.9701337890625,-0.02935791015625,-0.0164794921875,-1.0060272216796875
1738773147631124700,1.980124755859375,-0.0277099609375,-0.015289306640625,-1.0054931640625
1738773147641116000,1.990115966796875,-0.0278472900390625,-0.0164337158203125,-1.0065765380859375
1738773147651106800,2.00010693359375,-0.0274200439453125,-0.016082763671875,-1.0060577392578125
1738773147661097700,2.01009765625,-0.028228759765625,-0.016510009765625,-1.00494384765625
1738773147671089000,2.0200888671875,-0.028717041015625,-0.016876220703125,-1.006103515625
1738773147681080800,2.030080810546875,-0.0283203125,-0.0167999267578125,-1.00531005859375
1738773147691071700,2.04007177734375,-0.0275115966796875,-0.0156707763671875,-1.005157470703125
1738773147701063000,2.05006298828125,-0.0278472900390625,-0.0166015625,-1.0051422119140625
1738773147711053800,2.0600537109375,-0.0285797119140625,-0.017608642578125,-1.0056610107421875
1738773147721044700,2.070044677734375,-0.027374267578125,-0.017608642578125,-1.0055389404296875
1738773147731035600,2.08003564453125,-0.027313232421875,-0.014739990234375,-1.0055999755859375
1738773147741026800,2.09002685546875,-0.0290985107421875,-0.0158538818359375,-1.006011962890625
1738773147751017700,2.100017822265625,-0.0288238525390625,-0.016387939453125,-1.0057525634765625
1738773147761010000,2.110010009765625,-0.028594970703125,-0.0169677734375,-1.0052642822265625
1738773147771000800,2.120000732421875,-0.02703857421875,-0.0159454345703125,-1.0059661865234375
1738773147780991700,2.12999169921875,-0.027679443359375,-0.016265869140625,-1.00567626953125
1738773147790982700,2.139982666015625,-0.0279693603515625,-0.01654052734375,-1.006622314453125
1738773147800973800,2.149973876953125,-0.0283050537109375,-0.0157623291015625,-1.0059967041015625
1738773147810964700,2.15996484375,-0.028411865234375,-0.0161590576171875,-1.005859375
1738773147820955600,2.16995556640625,-0.02923583984375,-0.0165863037109375,-1.00634765625
1738773147830946800,2.17994677734375,-0.0287322998046875,-0.0162200927734375,-1.0060272216796875
1738773147840938800,2.189938720703125,-0.0273895263671875,-0.01702880859375,-1.006256103515625
1738773147850929700,2.1999296875,-0.0274200439453125,-0.0159149169921875,-1.005828857421875
1738773147860920800,2.2099208984375,-0.02880859375,-0.0169830322265625,-1.004241943359375
1738773147870911700,2.219911865234375,-0.0282440185546875,-0.0169830322265625,-1.0058135986328125
1738773147880902700,2.229902587890625,-0.0275726318359375,-0.0155487060546875,-1.005706787109375
1738773147890893800,2.239893798828125,-0.02886962890625,-0.0172882080078125,-1.0044708251953125
1738773147900885000,2.249885009765625,-0.0290985107421875,-0.0169830322265625,-1.0067901611328125
1738773147910876000,2.2598759765625,-0.0282440185546875,-0.0150604248046875,-1.005523681640625
1738773147920867800,2.269867919921875,-0.0257415771484375,-0.0162200927734375,-1.005523681640625
1738773147930858800,2.279858642578125,-0.027252197265625,-0.0167083740234375,-1.005706787109375
1738773147940849700,2.289849609375,-0.027313232421875,-0.0157012939453125,-1.00701904296875
1738773147950840800,2.2998408203125,-0.0281982421875,-0.016693115234375,-1.006622314453125
1738773147960832000,2.30983203125,-0.0275726318359375,-0.01531982421875,-1.0055389404296875
1738773147970823000,2.319822998046875,-0.0277099609375,-0.017578125,-1.005462646484375
1738773147980813800,2.329813720703125,-0.0278167724609375,-0.015350341796875,-1.004486083984375
1738773147990805800,2.3398056640625,-0.028045654296875,-0.0156707763671875,-1.0058135986328125
1738773148000796700,2.349796630859375,-0.0272064208984375,-0.015777587890625,-1.0051116943359375
1738773148010787800,2.359787841796875,-0.02691650390625,-0.01513671875,-1.004974365234375
1738773148020779000,2.369779052734375,-0.0280609130859375,-0.017608642578125,-1.006500244140625
1738773148030770000,2.37977001953125,-0.0275421142578125,-0.0161285400390625,-1.0055389404296875
1738773148040760800,2.3897607421875,-0.0278472900390625,-0.0161895751953125,-1.0057373046875
1738773148050752000,2.399751953125,-0.02813720703125,-0.0164794921875,-1.006011962890625
1738773148060743000,2.409742919921875,-0.028045654296875,-0.0160675048828125,-1.0064239501953125
1738773148070733800,2.41973388671875,-0.028472900390625,-0.01617431640625,-1.005035400390625
1738773148080726000,2.42972607421875,-0.02923583984375,-0.0164642333984375,-1.0058746337890625
1738773148090717000,2.439717041015625,-0.0277099609375,-0.0160369873046875,-1.006683349609375
1738773148100707800,2.449707763671875,-0.0272064208984375,-0.015228271484375,-1.0058441162109375
1738773148110698800,2.45969873046875,-0.0277252197265625,-0.015838623046875,-1.005523681640625
1738773148120690000,2.46968994140625,-0.028411865234375,-0.0162200927734375,-1.00469970703125
1738773148130680800,2.479680908203125,-0.028106689453125,-0.0164794921875,-1.0043792724609375
1738773148140671700,2.489671630859375,-0.026885986328125,-0.0163726806640625,-1.007354736328125
1738773148150663000,2.499662841796875,-0.0284271240234375,-0.0162200927734375,-1.0051727294921875
1738773148160654800,2.50965478515625,-0.0289306640625,-0.01812744140625,-1.0063323974609375
1738773148170645800,2.519645751953125,-0.027862548828125,-0.016998291015625,-1.0066680908203125
1738773148180637000,2.529636962890625,-0.027191162109375,-0.0162353515625,-1.0055694580078125
1738773148190627800,2.5396279296875,-0.02838134765625,-0.0164947509765625,-1.006103515625
1738773148200618800,2.54961865234375,-0.0289306640625,-0.015899658203125,-1.005859375
1738773148210610000,2.55960986328125,-0.0284576416015625,-0.01727294921875,-1.005889892578125
1738773148220600800,2.569600830078125,-0.0260467529296875,-0.0160675048828125,-1.0047454833984375
1738773148230592800,2.5795927734375,-0.02923583984375,-0.0151214599609375,-1.00567626953125
1738773148240584000,2.589583984375,-0.029022216796875,-0.015899658203125,-1.0052642822265625
1738773148250574800,2.599574951171875,-0.0283966064453125,-0.01617431640625,-1.0062713623046875
1738773148260565800,2.609565673828125,-0.0274505615234375,-0.01629638671875,-1.0057830810546875
1738773148270557000,2.619556884765625,-0.0286712646484375,-0.01751708984375,-1.0046539306640625
1738773148280547800,2.6295478515625,-0.0273284912109375,-0.0164031982421875,-1.0062408447265625
1738773148290538800,2.639538818359375,-0.0285186767578125,-0.0172576904296875,-1.0067138671875
1738773148300529700,2.64952978515625,-0.028106689453125,-0.016387939453125,-1.0066070556640625
1738773148310520800,2.659520751953125,-0.0263519287109375,-0.0173187255859375,-1.0055084228515625
1738773148320512500,2.669512451171875,-0.0279541015625,-0.0164337158203125,-1.005340576171875
1738773148330503700,2.679503662109375,-0.028350830078125,-0.0162506103515625,-1.0049591064453125
1738773148340494600,2.68949462890625,-0.028350830078125,-0.017578125,-1.00689697265625
1738773148350485500,2.699485595703125,-0.027587890625,-0.0172271728515625,-1.0058135986328125
1738773148360476400,2.709476318359375,-0.0271759033203125,-0.0162200927734375,-1.007720947265625
1738773148370467600,2.719467529296875,-0.029693603515625,-0.0167083740234375,-1.00604248046875
1738773148380458500,2.72945849609375,-0.0282135009765625,-0.0162811279296875,-1.004913330078125
1738773148390449400,2.739449462890625,-0.02862548828125,-0.016326904296875,-1.0058135986328125
1738773148400441600,2.749441650390625,-0.0286102294921875,-0.0174407958984375,-1.0062103271484375
1738773148410432500,2.7594326171875,-0.028656005859375,-0.0163116455078125,-1.0069580078125
1738773148420423400,2.76942333984375,-0.0282135009765625,-0.0167083740234375,-1.004913330078125
1738773148430414600,2.77941455078125,-0.0291290283203125,-0.016754150390625,-1.0059967041015625
1738773148440405500,2.789405517578125,-0.028656005859375,-0.016387939453125,-1.006103515625
1738773148450396400,2.799396484375,-0.0290374755859375,-0.0155792236328125,-1.00567626953125
1738773148460387600,2.8093876953125,-0.0284881591796875,-0.015380859375,-1.006317138671875
1738773148470379500,2.819379638671875,-0.027099609375,-0.016632080078125,-1.0061798095703125
1738773148480370400,2.829370361328125,-0.028167724609375,-0.0166015625,-1.0060272216796875
1738773148490361600,2.839361572265625,-0.0282745361328125,-0.0165863037109375,-1.0057373046875
1738773148500352500,2.8493525390625,-0.027099609375,-0.0158538818359375,-1.006317138671875
1738773148510343400,2.859343505859375,-0.026519775390625,-0.0169525146484375,-1.00592041015625
1738773148520334800,2.8693349609375,-0.0286712646484375,-0.017059326171875,-1.00537109375
1738773148530325800,2.87932568359375,-0.028106689453125,-0.0175323486328125,-1.005126953125
1738773148540316700,2.889316650390625,-0.0266571044921875,-0.01556396484375,-1.0059967041015625
1738773148550307600,2.8993076171875,-0.027587890625,-0.0170745849609375,-1.005767822265625
1738773148560299500,2.909299560546875,-0.02728271484375,-0.0155487060546875,-1.0064697265625
1738773148570290700,2.919290771484375,-0.0283050537109375,-0.0163726806640625,-1.0063323974609375
1738773148580281600,2.929281494140625,-0.029571533203125,-0.0160064697265625,-1.006011962890625
1738773148590272800,2.939272705078125,-0.0298614501953125,-0.0150909423828125,-1.00628662109375
1738773148600263700,2.949263671875,-0.029541015625,-0.0159912109375,-1.006103515625
1738773148610254600,2.959254638671875,-0.0288543701171875,-0.015869140625,-1.0060882568359375
1738773148620245800,2.969245849609375,-0.02838134765625,-0.01605224609375,-1.0059661865234375
1738773148630236700,2.979236572265625,-0.027587890625,-0.0173492431640625,-1.007568359375
1738773148640228600,2.989228515625,-0.0285797119140625,-0.0167236328125,-1.00567626953125
1738773148650219800,2.9992197265625,-0.0273284912109375,-0.0157470703125,-1.0059967041015625
1738773148660210700,3.009210693359375,-0.0291900634765625,-0.0169525146484375,-1.00616455078125
1738773148670201600,3.01920166015625,-0.0291900634765625,-0.0161285400390625,-1.0055999755859375
1738773148680192800,3.02919287109375,-0.0290069580078125,-0.015594482421875,-1.005096435546875
1738773148690183700,3.03918359375,-0.0287628173828125,-0.0158538818359375,-1.0054168701171875
1738773148700174600,3.049174560546875,-0.0281982421875,-0.0166015625,-1.0066986083984375
1738773148710165500,3.05916552734375,-0.027862548828125,-0.017730712890625,-1.00555419921875
1738773148720157700,3.06915771484375,-0.02880859375,-0.016387939453125,-1.0057373046875
1738773148730148600,3.079148681640625,-0.028656005859375,-0.01678466796875,-1.0057830810546875
1738773148740139800,3.089139892578125,-0.0283966064453125,-0.0155487060546875,-1.0063018798828125
1738773148750130700,3.099130615234375,-0.0290374755859375,-0.0147247314453125,-1.0060882568359375
1738773148760121600,3.10912158203125,-0.0291595458984375,-0.017181396484375,-1.0067138671875
1738773148770112500,3.119112548828125,-0.0266571044921875,-0.0163726806640625,-1.0054473876953125
1738773148780103700,3.129103759765625,-0.028228759765625,-0.0147247314453125,-1.0065765380859375
1738773148790094600,3.139094482421875,-0.0265655517578125,-0.0159149169921875,-1.0065765380859375
1738773148800086500,3.14908642578125,-0.0284881591796875,-0.015777587890625,-1.0052490234375
1738773148810077700,3.15907763671875,-0.0284576416015625,-0.0164031982421875,-1.00653076171875
1738773148820068600,3.169068603515625,-0.02667236328125,-0.01641845703125,-1.0055694580078125
1738773148830059500,3.1790595703125,-0.0278167724609375,-0.01641845703125,-1.006500244140625
1738773148840050700,3.18905078125,-0.0281982421875,-0.017425537109375,-1.00506591796875
1738773148850041600,3.19904150390625,-0.0286102294921875,-0.01666259765625,-1.0061492919921875
1738773148860032500,3.209032470703125,-0.02850341796875,-0.0157012939453125,-1.0066680908203125
1738773148870023400,3.2190234375,-0.028717041015625,-0.01544189453125,-1.00616455078125
1738773148880015600,3.229015625,-0.0262451171875,-0.01611328125,-1.0060882568359375
1738773148890006500,3.239006591796875,-0.027679443359375,-0.0156707763671875,-1.0052490234375
1738773148899997700,3.248997802734375,-0.0277557373046875,-0.0164794921875,-1.0059814453125
1738773148909988600,3.258988525390625,-0.0285491943359375,-0.01519775390625,-1.0066986083984375
1738773148919979500,3.2689794921875,-0.028839111328125,-0.016571044921875,-1.005401611328125
1738773148929970400,3.278970458984375,-0.0282440185546875,-0.0167388916015625,-1.0056610107421875
1738773148939961600,3.288961669921875,-0.0274505615234375,-0.017120361328125,-1.0059661865234375
1738773148949952500,3.298952392578125,-0.02752685546875,-0.0167388916015625,-1.0057220458984375
1738773148959944700,3.30894482421875,-0.0289764404296875,-0.0167236328125,-1.005340576171875
1738773148969935600,3.318935546875,-0.0275115966796875,-0.016265869140625,-1.005218505859375
1738773148979926500,3.328926513671875,-0.027740478515625,-0.017059326171875,-1.0058441162109375
1738773148989917400,3.33891748046875,-0.0295562744140625,-0.0155487060546875,-1.005523681640625
1738773148999908600,3.34890869140625,-0.0287628173828125,-0.0174713134765625,-1.005767822265625
1738773149009899500,3.3588994140625,-0.029266357421875,-0.016632080078125,-1.0048370361328125
1738773149019890400,3.368890380859375,-0.02801513671875,-0.016937255859375,-1.0057220458984375
1738773149029881600,3.378881591796875,-0.028076171875,-0.015350341796875,-1.00604248046875
1738773149039873500,3.38887353515625,-0.0290679931640625,-0.016326904296875,-1.0050048828125
1738773149049864400,3.398864501953125,-0.0294647216796875,-0.0167694091796875,-1.0059661865234375
1738773149059855600,3.408855712890625,-0.0279541015625,-0.0171661376953125,-1.004180908203125
1738773149069846500,3.418846435546875,-0.0274505615234375,-0.0162353515625,-1.0048980712890625
1738773149079837400,3.42883740234375,-0.028289794921875,-0.017120361328125,-1.0069122314453125
1738773149089828600,3.43882861328125,-0.0285797119140625,-0.016357421875,-1.0052337646484375
1738773149099819800,3.44881982421875,-0.027923583984375,-0.0167388916015625,-1.005584716796875
1738773149109810700,3.458810791015625,-0.0285491943359375,-0.0162506103515625,-1.006439208984375
1738773149119802600,3.468802734375,-0.0284271240234375,-0.0152587890625,-1.0066986083984375
1738773149129793500,3.47879345703125,-0.0283203125,-0.015594482421875,-1.005889892578125
1738773149139784400,3.488784423828125,-0.0294036865234375,-0.0162506103515625,-1.0054931640625
1738773149149775600,3.498775634765625,-0.028350830078125,-0.0159454345703125,-1.00616455078125
1738773149159766800,3.508766845703125,-0.02789306640625,-0.01617431640625,-1.006103515625
1738773149169757700,3.5187578125,-0.02874755859375,-0.0159759521484375,-1.00518798828125
1738773149179748600,3.52874853515625,-0.0291595458984375,-0.0160980224609375,-1.004119873046875
1738773149189739800,3.53873974609375,-0.0283203125,-0.0174102783203125,-1.00592041015625
1738773149199731700,3.548731689453125,-0.027496337890625,-0.016754150390625,-1.006439208984375
1738773149209722600,3.55872265625,-0.0276031494140625,-0.01531982421875,-1.00677490234375
1738773149219713800,3.5687138671875,-0.028717041015625,-0.01629638671875,-1.006378173828125
1738773149229704700,3.57870458984375,-0.028533935546875,-0.015899658203125,-1.005218505859375
1738773149239695600,3.588695556640625,-0.02838134765625,-0.016387939453125,-1.0058441162109375
1738773149249686800,3.598686767578125,-0.030242919921875,-0.0171966552734375,-1.005828857421875
1738773149259677700,3.608677734375,-0.0283355712890625,-0.0158843994140625,-1.0066680908203125
1738773149269668600,3.618668701171875,-0.0289154052734375,-0.0161590576171875,-1.0056304931640625
1738773149279659500,3.628659423828125,-0.0287933349609375,-0.016632080078125,-1.007232666015625
1738773149289651700,3.638651611328125,-0.0290374755859375,-0.0172882080078125,-1.0043182373046875
1738773149299642600,3.648642578125,-0.02752685546875,-0.0159912109375,-1.0059051513671875
1738773149309633500,3.658633544921875,-0.028472900390625,-0.0159912109375,-1.0064849853515625
1738773149319624700,3.668624755859375,-0.028900146484375,-0.0164794921875,-1.0055389404296875
1738773149329616000,3.678615966796875,-0.0276947021484375,-0.0165557861328125,-1.0064849853515625
1738773149339606800,3.688606689453125,-0.0275115966796875,-0.0162353515625,-1.0045318603515625
1738773149349597700,3.69859765625,-0.0282440185546875,-0.0172271728515625,-1.006622314453125
1738773149359588600,3.708588623046875,-0.0276031494140625,-0.0164642333984375,-1.005706787109375
1738773149369580800,3.718580810546875,-0.0269927978515625,-0.0154571533203125,-1.0061187744140625
1738773149379571700,3.72857177734375,-0.027923583984375,-0.0154876708984375,-1.0061798095703125
1738773149389563000,3.73856298828125,-0.028564453125,-0.0162811279296875,-1.0063018798828125
1738773149399553800,3.7485537109375,-0.0287017822265625,-0.016387939453125,-1.005157470703125
1738773149409544700,3.758544677734375,-0.028839111328125,-0.01715087890625,-1.0050506591796875
1738773149419535600,3.76853564453125,-0.0281219482421875,-0.016632080078125,-1.00604248046875
1738773149429526800,3.77852685546875,-0.0284271240234375,-0.0166778564453125,-1.0046539306640625
1738773149439517700,3.788517578125,-0.02801513671875,-0.0164947509765625,-1.0054473876953125
1738773149449508600,3.798508544921875,-0.029693603515625,-0.016326904296875,-1.0063323974609375
1738773149459500800,3.808500732421875,-0.029205322265625,-0.015899658203125,-1.0046234130859375
1738773149469491700,3.81849169921875,-0.0276641845703125,-0.0166168212890625,-1.0049591064453125
1738773149479482600,3.828482666015625,-0.0280914306640625,-0.015960693359375,-1.006103515625
1738773149489473800,3.838473876953125,-0.027313232421875,-0.01605224609375,-1.0046234130859375
1738773149499464700,3.848464599609375,-0.028289794921875,-0.0162353515625,-1.00640869140625
1738773149509455600,3.85845556640625,-0.0281219482421875,-0.0176849365234375,-1.005615234375
1738773149519446800,3.86844677734375,-0.0290679931640625,-0.0161895751953125,-1.0057830810546875
1738773149529438700,3.878438720703125,-0.0282440185546875,-0.017730712890625,-1.006072998046875
1738773149539429600,3.8884296875,-0.02752685546875,-0.0169830322265625,-1.005340576171875
1738773149549420800,3.8984208984375,-0.0279083251953125,-0.016571044921875,-1.0055084228515625
1738773149559411700,3.90841162109375,-0.0285186767578125,-0.015960693359375,-1.0063323974609375
1738773149569402600,3.918402587890625,-0.0273895263671875,-0.0172119140625,-1.00567626953125
1738773149579393500,3.9283935546875,-0.0291290283203125,-0.0174407958984375,-1.00592041015625
1738773149593755600,3.942755615234375,-0.02825927734375,-0.0170135498046875,-1.0051422119140625
1738773149603746600,3.95274658203125,-0.0276336669921875,-0.0173492431640625,-1.0063629150390625
1738773149613737700,3.96273779296875,-0.02703857421875,-0.0163116455078125,-1.005340576171875
1738773149623729700,3.972729736328125,-0.0297393798828125,-0.0164642333984375,-1.0045623779296875
1738773149633720600,3.982720458984375,-0.027740478515625,-0.015777587890625,-1.00567626953125
1738773149643711700,3.992711669921875,-0.02880859375,-0.015869140625,-1.006195068359375
1738773149653702700,4.00270263671875,-0.0272979736328125,-0.016510009765625,-1.005706787109375
1738773149663693600,4.012693603515625,-0.02813720703125,-0.016143798828125,-1.0057373046875
1738773149673684700,4.022684814453125,-0.02886962890625,-0.0164642333984375,-1.005584716796875
1738773149683675600,4.032675537109375,-0.02899169921875,-0.0153656005859375,-1.006439208984375
1738773149693666800,4.042666748046875,-0.0266571044921875,-0.0160369873046875,-1.006988525390625
1738773149703658800,4.05265869140625,-0.0284881591796875,-0.0161285400390625,-1.0053863525390625
1738773149713649700,4.062649658203125,-0.0276031494140625,-0.0155487060546875,-1.0057373046875
1738773149723640600,4.072640625,-0.027374267578125,-0.0167083740234375,-1.0056304931640625
1738773149733631700,4.0826318359375,-0.029693603515625,-0.015716552734375,-1.0048828125
1738773149743622700,4.09262255859375,-0.027679443359375,-0.016448974609375,-1.0051422119140625
1738773149753613800,4.10261376953125,-0.028045654296875,-0.01544189453125,-1.0049285888671875
1738773149763604700,4.112604736328125,-0.0271148681640625,-0.0157928466796875,-1.0049285888671875
1738773149773596000,4.122595947265625,-0.0274505615234375,-0.0163116455078125,-1.005645751953125
1738773149783587600,4.132587646484375,-0.027862548828125,-0.0159149169921875,-1.005706787109375
1738773149793578800,4.142578857421875,-0.02862548828125,-0.01654052734375,-1.0054779052734375
1738773149803570000,4.15256982421875,-0.02783203125,-0.0165863037109375,-1.0060577392578125
1738773149813560800,4.162560791015625,-0.028839111328125,-0.0157623291015625,-1.006256103515625
1738773149823551700,4.1725517578125,-0.0280303955078125,-0.0166778564453125,-1.00537109375
1738773149833543000,4.18254296875,-0.0281524658203125,-0.017181396484375,-1.0056610107421875
1738773149843533800,4.192533935546875,-0.028350830078125,-0.0154876708984375,-1.0063934326171875
1738773149853524700,4.202524658203125,-0.0273284912109375,-0.01519775390625,-1.0062713623046875
1738773149863515600,4.212515625,-0.02838134765625,-0.0163421630859375,-1.0050048828125
1738773149873507800,4.2225078125,-0.0294952392578125,-0.017852783203125,-1.0062408447265625
1738773149883498800,4.232498779296875,-0.0288238525390625,-0.016357421875,-1.005706787109375
1738773149893490000,4.242489990234375,-0.02777099609375,-0.01507568359375,-1.0053863525390625
1738773149903480800,4.252480712890625,-0.0272369384765625,-0.0167694091796875,-1.0060577392578125
1738773149913471700,4.2624716796875,-0.0274810791015625,-0.0162811279296875,-1.005035400390625
1738773149923462700,4.272462646484375,-0.0273895263671875,-0.0149993896484375,-1.0064697265625
1738773149933453800,4.282453857421875,-0.029052734375,-0.015380859375,-1.0069732666015625
1738773149944069600,4.293069580078125,-0.0283203125,-0.0168304443359375,-1.0052947998046875
1738773149954060800,4.303060791015625,-0.02740478515625,-0.0154876708984375,-1.0052032470703125
1738773149964051700,4.3130517578125,-0.029144287109375,-0.0151519775390625,-1.0054779052734375
1738773149974042600,4.323042724609375,-0.0283203125,-0.01629638671875,-1.006744384765625
1738773149984034800,4.333034912109375,-0.0280914306640625,-0.016845703125,-1.005859375
1738773149994025700,4.343025634765625,-0.027374267578125,-0.015594482421875,-1.0062255859375
1738773150004016600,4.3530166015625,-0.028106689453125,-0.0163116455078125,-1.004058837890625
1738773150014007800,4.3630078125,-0.0274810791015625,-0.015594482421875,-1.0056610107421875
1738773150023998700,4.372998779296875,-0.0295867919921875,-0.01580810546875,-1.0058135986328125
1738773150033989600,4.38298974609375,-0.028564453125,-0.01751708984375,-1.0065155029296875
1738773150043980800,4.392980712890625,-0.0279083251953125,-0.0157623291015625,-1.0059661865234375
1738773150053971700,4.4029716796875,-0.0289459228515625,-0.0159912109375,-1.0055389404296875
1738773150063963600,4.412963623046875,-0.0271148681640625,-0.016937255859375,-1.0046844482421875
1738773150073954800,4.422954833984375,-0.02850341796875,-0.0164642333984375,-1.005645751953125
1738773150083945700,4.43294580078125,-0.030426025390625,-0.0152740478515625,-1.0057830810546875
1738773150093936600,4.4429365234375,-0.02923583984375,-0.01593017578125,-1.005889892578125
1738773150103927800,4.452927734375,-0.027313232421875,-0.015655517578125,-1.00634765625
1738773150113918700,4.462918701171875,-0.0279693603515625,-0.0174713134765625,-1.0058441162109375
1738773150123909600,4.47290966796875,-0.02899169921875,-0.0161590576171875,-1.0048828125
1738773150133900500,4.482900634765625,-0.027587890625,-0.017303466796875,-1.0056915283203125
1738773150143892700,4.492892822265625,-0.0282135009765625,-0.0164031982421875,-1.004974365234375
1738773150153883600,4.502883544921875,-0.028656005859375,-0.015838623046875,-1.0049896240234375
1738773150163874600,4.51287451171875,-0.029266357421875,-0.01678466796875,-1.00531005859375
1738773150173865700,4.52286572265625,-0.0299224853515625,-0.0160369873046875,-1.0041961669921875
1738773150183856600,4.532856689453125,-0.028411865234375,-0.01531982421875,-1.0059356689453125
1738773150193847600,4.54284765625,-0.028411865234375,-0.01568603515625,-1.0064239501953125
1738773150203838700,4.552838623046875,-0.029144287109375,-0.0155181884765625,-1.0064849853515625
1738773150213829600,4.56282958984375,-0.02911376953125,-0.017425537109375,-1.0055084228515625
1738773150223821600,4.572821533203125,-0.02777099609375,-0.017303466796875,-1.006134033203125
1738773150233812700,4.582812744140625,-0.02801513671875,-0.0163421630859375,-1.0065765380859375
1738773150243803600,4.5928037109375,-0.02978515625,-0.0166015625,-1.00604248046875
1738773150253794600,4.602794677734375,-0.0272369384765625,-0.01690673828125,-1.005035400390625
1738773150263785700,4.61278564453125,-0.027587890625,-0.016571044921875,-1.0064544677734375
1738773150273777000,4.62277685546875,-0.02813720703125,-0.01629638671875,-1.00579833984375
1738773150283767800,4.632767822265625,-0.0279541015625,-0.0161895751953125,-1.004302978515625
1738773150293758700,4.6427587890625,-0.0283050537109375,-0.015960693359375,-1.005462646484375
1738773150303750700,4.652750732421875,-0.028717041015625,-0.0157928466796875,-1.004791259765625
1738773150313741600,4.662741455078125,-0.02838134765625,-0.016815185546875,-1.0057525634765625
1738773150323732500,4.672732421875,-0.028167724609375,-0.0172119140625,-1.006805419921875
1738773150333723600,4.6827236328125,-0.0262603759765625,-0.0169219970703125,-1.0057373046875
1738773150343714600,4.692714599609375,-0.0299224853515625,-0.016082763671875,-1.0045928955078125
1738773150353705500,4.70270556640625,-0.0286102294921875,-0.0154571533203125,-1.00469970703125
1738773150363696400,4.7126962890625,-0.0284576416015625,-0.01568603515625,-1.006011962890625
1738773150373687600,4.7226875,-0.029022216796875,-0.0160369873046875,-1.0061187744140625
1738773150383679500,4.732679443359375,-0.0278472900390625,-0.0161590576171875,-1.007171630859375
1738773150393670700,4.742670654296875,-0.028228759765625,-0.0149688720703125,-1.005828857421875
1738773150403661600,4.75266162109375,-0.029388427734375,-0.015838623046875,-1.0049896240234375
1738773150413652500,4.762652587890625,-0.0273284912109375,-0.0170135498046875,-1.0056610107421875
1738773150423643400,4.772643310546875,-0.0288238525390625,-0.0179595947265625,-1.0051116943359375
1738773150433634600,4.782634521484375,-0.0293731689453125,-0.0176239013671875,-1.00433349609375
1738773150443625500,4.79262548828125,-0.0283660888671875,-0.0167388916015625,-1.006378173828125
1738773150453616400,4.802616455078125,-0.0287017822265625,-0.0177764892578125,-1.0057220458984375
1738773150463608600,4.812608642578125,-0.02899169921875,-0.0182952880859375,-1.0053253173828125
1738773150473599500,4.822599609375,-0.0290985107421875,-0.017547607421875,-1.006317138671875
1738773150483590400,4.83259033203125,-0.0282135009765625,-0.0166015625,-1.005889892578125
1738773150493581600,4.84258154296875,-0.02618408203125,-0.01678466796875,-1.005340576171875
1738773150503572500,4.852572509765625,-0.0281982421875,-0.0168914794921875,-1.0053253173828125
1738773150513563400,4.8625634765625,-0.0283203125,-0.015472412109375,-1.00537109375
1738773150523554300,4.87255419921875,-0.026763916015625,-0.0173492431640625,-1.0064544677734375
1738773150533545500,4.88254541015625,-0.0284881591796875,-0.016693115234375,-1.0053253173828125
1738773150543537400,4.892537353515625,-0.0280914306640625,-0.015289306640625,-1.005126953125
1738773150553528600,4.902528564453125,-0.0280303955078125,-0.0166015625,-1.00604248046875
1738773150563519500,4.91251953125,-0.0288238525390625,-0.016693115234375,-1.0041046142578125
1738773150573510400,4.922510498046875,-0.0263671875,-0.0168609619140625,-1.004974365234375
1738773150583501300,4.932501220703125,-0.0285797119140625,-0.016937255859375,-1.006439208984375
1738773150593492500,4.942492431640625,-0.02899169921875,-0.0169677734375,-1.006317138671875
1738773150603483400,4.9524833984375,-0.0283660888671875,-0.0164947509765625,-1.0062103271484375
1738773150613474300,4.962474365234375,-0.0276641845703125,-0.017364501953125,-1.0054931640625
1738773150623466500,4.972466552734375,-0.0286712646484375,-0.0173492431640625,-1.005706787109375
1738773150633457400,4.98245751953125,-0.0279998779296875,-0.0170745849609375,-1.007049560546875
1738773150643448300,4.9924482421875,-0.029693603515625,-0.0166168212890625,-1.005340576171875
1738773150653439500,5.002439453125,-0.0288238525390625,-0.015106201171875,-1.0058746337890625
1738773150663430400,5.012430419921875,-0.028106689453125,-0.0168609619140625,-1.0063323974609375
1738773150673421300,5.02242138671875,-0.0294036865234375,-0.016357421875,-1.004730224609375
1738773150683412500,5.03241259765625,-0.0269927978515625,-0.0159759521484375,-1.0047149658203125
1738773150693403400,5.0424033203125,-0.0291595458984375,-0.0159912109375,-1.005035400390625
1738773150703395300,5.052395263671875,-0.029541015625,-0.016021728515625,-1.0050506591796875
1738773150713386500,5.062386474609375,-0.027618408203125,-0.0163421630859375,-1.0059356689453125
1738773150723377400,5.07237744140625,-0.027679443359375,-0.016998291015625,-1.005523681640625
1738773150733368300,5.082368408203125,-0.028350830078125,-0.0170440673828125,-1.0055694580078125
1738773150743359200,5.092359130859375,-0.0284576416015625,-0.0165252685546875,-1.005340576171875
1738773150753350400,5.102350341796875,-0.02960205078125,-0.0167999267578125,-1.006561279296875
1738773150763341300,5.11234130859375,-0.0281524658203125,-0.0174713134765625,-1.0065155029296875
1738773150773332500,5.12233251953125,-0.0271148681640625,-0.01617431640625,-1.0063018798828125
1738773150783324400,5.132324462890625,-0.028594970703125,-0.0160980224609375,-1.0059967041015625
1738773150793315300,5.1423154296875,-0.028564453125,-0.0150299072265625,-1.0054168701171875
1738773150803306200,5.15230615234375,-0.02850341796875,-0.0156707763671875,-1.0059661865234375
1738773150813297400,5.16229736328125,-0.029449462890625,-0.0171966552734375,-1.0052642822265625
1738773150823288300,5.172288330078125,-0.0286407470703125,-0.016143798828125,-1.005462646484375
1738773150833279500,5.182279541015625,-0.0273284912109375,-0.01593017578125,-1.0058135986328125
1738773150843270700,5.192270751953125,-0.028533935546875,-0.016815185546875,-1.0041961669921875
1738773150853261600,5.202261474609375,-0.0287322998046875,-0.01715087890625,-1.006103515625
1738773150863253200,5.212253173828125,-0.0275421142578125,-0.016326904296875,-1.0054168701171875
1738773150873244400,5.222244384765625,-0.02801513671875,-0.0153045654296875,-1.0059051513671875
1738773150883235300,5.2322353515625,-0.0279388427734375,-0.0158843994140625,-1.00592041015625
1738773150893226500,5.2422265625,-0.0287322998046875,-0.0161895751953125,-1.0066680908203125
1738773150903217700,5.2522177734375,-0.0278472900390625,-0.016571044921875,-1.00567626953125
1738773150913208600,5.26220849609375,-0.03033447265625,-0.0158538818359375,-1.005218505859375
1738773150923199500,5.272199462890625,-0.02813720703125,-0.0169677734375,-1.0052490234375
1738773150933190400,5.2821904296875,-0.0269927978515625,-0.015625,-1.0054779052734375
1738773150943182600,5.2921826171875,-0.0287933349609375,-0.0152740478515625,-1.005706787109375
1738773150953173500,5.302173583984375,-0.02813720703125,-0.01629638671875,-1.00634765625
1738773150963164400,5.312164306640625,-0.0281982421875,-0.015716552734375,-1.006195068359375
1738773150973155600,5.322155517578125,-0.0290679931640625,-0.016754150390625,-1.0059661865234375
1738773150983146500,5.332146484375,-0.02777099609375,-0.0152587890625,-1.00537109375
1738773150993137400,5.342137451171875,-0.0278472900390625,-0.015106201171875,-1.0058135986328125
1738773151003128600,5.352128662109375,-0.028472900390625,-0.01654052734375,-1.00567626953125
1738773151013119500,5.362119384765625,-0.0299072265625,-0.0173187255859375,-1.0054779052734375
1738773151023111400,5.372111328125,-0.02789306640625,-0.016143798828125,-1.005218505859375
1738773151033102600,5.3821025390625,-0.0291748046875,-0.01593017578125,-1.0052642822265625
1738773151043093500,5.392093505859375,-0.02740478515625,-0.01800537109375,-1.0053253173828125
1738773151053084400,5.40208447265625,-0.0280303955078125,-0.017333984375,-1.0068206787109375
1738773151063075600,5.41207568359375,-0.0289306640625,-0.015869140625,-1.005615234375
1738773151073066500,5.42206640625,-0.027008056640625,-0.01708984375,-1.0050506591796875
1738773151083057400,5.432057373046875,-0.02972412109375,-0.0169219970703125,-1.0062713623046875
1738773151093048300,5.44204833984375,-0.028594970703125,-0.016204833984375,-1.0054779052734375
1738773151103040500,5.45204052734375,-0.027496337890625,-0.0153045654296875,-1.006317138671875
1738773151113031400,5.462031494140625,-0.0282440185546875,-0.0164642333984375,-1.004913330078125
1738773151123022600,5.472022705078125,-0.02996826171875,-0.017181396484375,-1.0065460205078125
1738773151133013500,5.482013427734375,-0.0278778076171875,-0.0155029296875,-1.00628662109375
1738773151143004400,5.49200439453125,-0.028594970703125,-0.0167083740234375,-1.0058441162109375
1738773151152995300,5.501995361328125,-0.02874755859375,-0.016510009765625,-1.005950927734375
1738773151162986500,5.511986572265625,-0.027740478515625,-0.0163421630859375,-1.005615234375
1738773151172977400,5.521977294921875,-0.0290985107421875,-0.015167236328125,-1.0054779052734375
1738773151182969300,5.53196923828125,-0.0279998779296875,-0.016265869140625,-1.0069580078125
1738773151192960500,5.54196044921875,-0.028076171875,-0.01556396484375,-1.0068817138671875
1738773151202951400,5.551951416015625,-0.028045654296875,-0.016845703125,-1.00579833984375
1738773151212942300,5.5619423828125,-0.02850341796875,-0.0161895751953125,-1.0068817138671875
1738773151222933500,5.57193359375,-0.0284881591796875,-0.016693115234375,-1.0068206787109375
1738773151232924400,5.58192431640625,-0.02880859375,-0.0165252685546875,-1.00543212890625
1738773151242915300,5.591915283203125,-0.029296875,-0.0165863037109375,-1.00592041015625
1738773151252906200,5.60190625,-0.0282745361328125,-0.01556396484375,-1.005218505859375
1738773151262898400,5.6118984375,-0.027435302734375,-0.016876220703125,-1.0055389404296875
1738773151272889300,5.621889404296875,-0.0290069580078125,-0.01629638671875,-1.0052032470703125
1738773151282880500,5.631880615234375,-0.0287322998046875,-0.0167388916015625,-1.0045928955078125
1738773151292871400,5.641871337890625,-0.0277099609375,-0.0172271728515625,-1.00531005859375
1738773151302862300,5.6518623046875,-0.0279541015625,-0.016265869140625,-1.0062103271484375
1738773151312853200,5.661853271484375,-0.028411865234375,-0.016754150390625,-1.0062255859375
1738773151322844400,5.671844482421875,-0.0277862548828125,-0.015777587890625,-1.0056610107421875
1738773151332836400,5.68183642578125,-0.0273895263671875,-0.0160369873046875,-1.0048980712890625
1738773151342827500,5.69182763671875,-0.0282440185546875,-0.0162506103515625,-1.006256103515625
1738773151352818400,5.701818359375,-0.0286865234375,-0.016448974609375,-1.005157470703125
1738773151362809300,5.711809326171875,-0.02850341796875,-0.0153045654296875,-1.00531005859375
1738773151372800300,5.72180029296875,-0.02801513671875,-0.0157318115234375,-1.0052642822265625
1738773151382791400,5.73179150390625,-0.028106689453125,-0.01690673828125,-1.0052642822265625
1738773151392782300,5.7417822265625,-0.0274658203125,-0.0163116455078125,-1.0059814453125
1738773151402773500,5.7517734375,-0.0279388427734375,-0.0159149169921875,-1.0055999755859375
1738773151412765400,5.761765380859375,-0.02825927734375,-0.01690673828125,-1.004852294921875
1738773151422756400,5.77175634765625,-0.0274505615234375,-0.0160675048828125,-1.0048370361328125
1738773151432747300,5.781747314453125,-0.0284881591796875,-0.0157318115234375,-1.0069122314453125
1738773151442738400,5.791738525390625,-0.0283050537109375,-0.0158538818359375,-1.0049896240234375
1738773151452729300,5.801729248046875,-0.027679443359375,-0.0166168212890625,-1.005157470703125
1738773151462720500,5.811720458984375,-0.027984619140625,-0.0160064697265625,-1.006683349609375
1738773151472711400,5.82171142578125,-0.0270538330078125,-0.017059326171875,-1.0059967041015625
1738773151482702600,5.83170263671875,-0.0280609130859375,-0.0158233642578125,-1.0056304931640625
1738773151492694300,5.8416943359375,-0.027618408203125,-0.016571044921875,-1.005706787109375
1738773151502685400,5.851685546875,-0.027374267578125,-0.0155487060546875,-1.0067901611328125
1738773151512676400,5.86167626953125,-0.02874755859375,-0.0161895751953125,-1.0057220458984375
1738773151522667500,5.87166748046875,-0.029510498046875,-0.0166168212890625,-1.006072998046875
1738773151532658400,5.881658447265625,-0.0290374755859375,-0.0170745849609375,-1.0062103271484375
1738773151542649600,5.891649658203125,-0.028778076171875,-0.0157928466796875,-1.00445556640625
1738773151552640500,5.901640625,-0.0285186767578125,-0.0170440673828125,-1.004730224609375
1738773151562631400,5.91163134765625,-0.0272674560546875,-0.016021728515625,-1.0053253173828125
1738773151572623600,5.92162353515625,-0.0290985107421875,-0.0169525146484375,-1.005828857421875
1738773151582614500,5.931614501953125,-0.0297698974609375,-0.0168304443359375,-1.0053253173828125
1738773151592605400,5.94160546875,-0.0286102294921875,-0.01715087890625,-1.0046539306640625
1738773151602596600,5.9515966796875,-0.027374267578125,-0.017547607421875,-1.0046844482421875
1738773151612587500,5.96158740234375,-0.02850341796875,-0.0170135498046875,-1.0066986083984375
1738773151622578400,5.971578369140625,-0.026947021484375,-0.0167083740234375,-1.0065155029296875
1738773151632569600,5.981569580078125,-0.0296783447265625,-0.01629638671875,-1.006317138671875
1738773151642561500,5.9915615234375,-0.0272979736328125,-0.0160980224609375,-1.0067291259765625
1738773151652552400,6.001552490234375,-0.0277099609375,-0.015899658203125,-1.004913330078125
1738773151662543600,6.011543701171875,-0.02838134765625,-0.0167388916015625,-1.0047607421875
1738773151672534500,6.021534423828125,-0.0272216796875,-0.0166015625,-1.0041351318359375
1738773151682525400,6.031525390625,-0.0283355712890625,-0.016693115234375,-1.006866455078125
1738773151692516400,6.041516357421875,-0.02862548828125,-0.015777587890625,-1.005859375
1738773151702507500,6.051507568359375,-0.0286102294921875,-0.0164337158203125,-1.0050201416015625
1738773151712498400,6.06149853515625,-0.02679443359375,-0.01629638671875,-1.0061798095703125
1738773151722490600,6.07149072265625,-0.028594970703125,-0.0175018310546875,-1.0062713623046875
1738773151732481500,6.0814814453125,-0.029266357421875,-0.0172119140625,-1.0053863525390625
1738773151742472400,6.091472412109375,-0.028350830078125,-0.01544189453125,-1.0056304931640625
1738773151752463400,6.10146337890625,-0.0280609130859375,-0.0174560546875,-1.005950927734375
1738773151762454500,6.11145458984375,-0.028350830078125,-0.01629638671875,-1.0055694580078125
1738773151772445400,6.121445556640625,-0.0293121337890625,-0.01654052734375,-1.00592041015625
1738773151782436400,6.131436279296875,-0.0289764404296875,-0.0163116455078125,-1.0060577392578125
1738773151792428500,6.141428466796875,-0.0275115966796875,-0.0151519775390625,-1.0054473876953125
1738773151802419500,6.15141943359375,-0.02764892578125,-0.0165863037109375,-1.0072174072265625
1738773151812410400,6.161410400390625,-0.0283050537109375,-0.0164031982421875,-1.005950927734375
1738773151822401500,6.171401611328125,-0.028076171875,-0.01611328125,-1.003509521484375
1738773151832392400,6.181392333984375,-0.02783203125,-0.0170745849609375,-1.0057220458984375
1738773151842383400,6.19138330078125,-0.0282135009765625,-0.0167083740234375,-1.005035400390625
1738773151852374500,6.20137451171875,-0.027099609375,-0.016357421875,-1.00567626953125
1738773151862366500,6.211366455078125,-0.028778076171875,-0.017242431640625,-1.005462646484375
1738773151872357400,6.221357421875,-0.0288848876953125,-0.0159149169921875,-1.0060272216796875
1738773151882348500,6.2313486328125,-0.0288848876953125,-0.015380859375,-1.00445556640625
1738773151892339500,6.24133935546875,-0.02935791015625,-0.016387939453125,-1.0074615478515625
1738773151902330400,6.251330322265625,-0.0275115966796875,-0.01690673828125,-1.0056304931640625
1738773151912321300,6.2613212890625,-0.027801513671875,-0.0148468017578125,-1.0049591064453125
1738773151922312400,6.2713125,-0.02777099609375,-0.0174102783203125,-1.0062408447265625
1738773151932303400,6.281303466796875,-0.02728271484375,-0.01708984375,-1.0060577392578125
1738773151942295600,6.291295654296875,-0.0278167724609375,-0.016632080078125,-1.0063934326171875
1738773151952286500,6.301286376953125,-0.0271148681640625,-0.0167999267578125,-1.0053558349609375
1738773151962277400,6.31127734375,-0.02777099609375,-0.0157470703125,-1.005462646484375
1738773151972268300,6.321268310546875,-0.0286102294921875,-0.016143798828125,-1.0053253173828125
1738773151982259500,6.331259521484375,-0.029022216796875,-0.0162811279296875,-1.0056610107421875
1738773151992250400,6.34125048828125,-0.0290679931640625,-0.0168304443359375,-1.00579833984375
1738773152002241300,6.3512412109375,-0.0279388427734375,-0.01763916015625,-1.0043792724609375
1738773152012233500,6.3612333984375,-0.0295257568359375,-0.017181396484375,-1.0060272216796875
1738773152022224400,6.371224365234375,-0.028289794921875,-0.0167694091796875,-1.0050201416015625
1738773152032215300,6.38121533203125,-0.02789306640625,-0.0167999267578125,-1.0063934326171875
1738773152042206500,6.39120654296875,-0.029052734375,-0.0176849365234375,-1.00506591796875
1738773152052197400,6.401197265625,-0.0276031494140625,-0.0162200927734375,-1.0062255859375
1738773152062188300,6.411188232421875,-0.0261993408203125,-0.017059326171875,-1.005126953125
1738773152072179500,6.421179443359375,-0.0290985107421875,-0.01629638671875,-1.00469970703125
1738773152082171400,6.43117138671875,-0.0286712646484375,-0.016143798828125,-1.005218505859375
1738773152092162300,6.441162353515625,-0.0293121337890625,-0.016815185546875,-1.0053253173828125
1738773152102153500,6.451153564453125,-0.0289306640625,-0.0175323486328125,-1.0046844482421875
1738773152112144400,6.461144287109375,-0.0272979736328125,-0.0150146484375,-1.0060882568359375
1738773152122135300,6.47113525390625,-0.0275726318359375,-0.0177154541015625,-1.006134033203125
1738773152132126200,6.481126220703125,-0.0283966064453125,-0.0168304443359375,-1.0059356689453125
1738773152142117400,6.491117431640625,-0.026824951171875,-0.016357421875,-1.00506591796875
1738773152152108500,6.501108642578125,-0.0282135009765625,-0.016510009765625,-1.005889892578125
1738773152162100500,6.5111005859375,-0.0290069580078125,-0.015350341796875,-1.0052490234375
1738773152172091400,6.52109130859375,-0.027587890625,-0.016754150390625,-1.00634765625
1738773152182082300,6.531082275390625,-0.0274505615234375,-0.01666259765625,-1.0053863525390625
1738773152192073500,6.541073486328125,-0.0279083251953125,-0.0156707763671875,-1.00604248046875
1738773152202064600,6.551064697265625,-0.02740478515625,-0.01641845703125,-1.0062713623046875
1738773152212055600,6.5610556640625,-0.02984619140625,-0.015838623046875,-1.0048675537109375
1738773152222046500,6.57104638671875,-0.0290679931640625,-0.0159149169921875,-1.0048980712890625
1738773152232038400,6.581038330078125,-0.0285797119140625,-0.0167388916015625,-1.006866455078125
1738773152242029300,6.591029296875,-0.030181884765625,-0.016754150390625,-1.005645751953125
1738773152252020500,6.6010205078125,-0.02777099609375,-0.01611328125,-1.005401611328125
1738773152262011600,6.61101171875,-0.0284881591796875,-0.01556396484375,-1.0075225830078125
1738773152272002600,6.62100244140625,-0.0279388427734375,-0.0166778564453125,-1.004608154296875
1738773152281993500,6.630993408203125,-0.02783203125,-0.0161285400390625,-1.005889892578125
1738773152291984600,6.640984619140625,-0.027435302734375,-0.016082763671875,-1.0058746337890625
1738773152301976300,6.650976318359375,-0.0285797119140625,-0.016632080078125,-1.0058441162109375
1738773152311967500,6.660967529296875,-0.0285186767578125,-0.015716552734375,-1.0047760009765625
1738773152321958400,6.67095849609375,-0.028228759765625,-0.01617431640625,-1.0059356689453125
1738773152331949300,6.68094921875,-0.027984619140625,-0.0164642333984375,-1.00543212890625
1738773152341940500,6.6909404296875,-0.0271759033203125,-0.017608642578125,-1.005401611328125
1738773152351931400,6.700931396484375,-0.0296173095703125,-0.0159149169921875,-1.0062713623046875
1738773152361922300,6.71092236328125,-0.028656005859375,-0.016204833984375,-1.00628662109375
1738773152371914500,6.72091455078125,-0.0293731689453125,-0.0164337158203125,-1.0068511962890625
1738773152381905400,6.730905517578125,-0.0282135009765625,-0.01568603515625,-1.005523681640625
1738773152391896300,6.740896240234375,-0.02911376953125,-0.016357421875,-1.00543212890625
1738773152401887500,6.750887451171875,-0.0283660888671875,-0.0159149169921875,-1.0059661865234375
1738773152411878400,6.76087841796875,-0.029510498046875,-0.0175323486328125,-1.0062255859375
1738773152421869300,6.770869384765625,-0.02862548828125,-0.01690673828125,-1.0056915283203125
1738773152431860200,6.780860107421875,-0.028656005859375,-0.0164031982421875,-1.005523681640625
1738773152441851400,6.790851318359375,-0.0295562744140625,-0.01580810546875,-1.0052032470703125
1738773152451843300,6.80084326171875,-0.0298614501953125,-0.0185394287109375,-1.0051727294921875
1738773152461834500,6.81083447265625,-0.0288848876953125,-0.0165863037109375,-1.004791259765625
1738773152471825400,6.820825439453125,-0.0280609130859375,-0.0169677734375,-1.00555419921875
1738773152481816300,6.83081640625,-0.0287628173828125,-0.01690673828125,-1.0054779052734375
1738773152491807200,6.84080712890625,-0.0286407470703125,-0.015594482421875,-1.0057373046875
1738773152501798400,6.85079833984375,-0.0288848876953125,-0.0155029296875,-1.005950927734375
1738773152511789300,6.860789306640625,-0.027008056640625,-0.0165557861328125,-1.0063018798828125
1738773152521781200,6.87078125,-0.0292205810546875,-0.016265869140625,-1.0071563720703125
1738773152531772400,6.8807724609375,-0.0292510986328125,-0.015411376953125,-1.005340576171875
1738773152541763300,6.890763427734375,-0.028961181640625,-0.015625,-1.006011962890625
1738773152551754200,6.900754150390625,-0.027618408203125,-0.01629638671875,-1.007354736328125
1738773152561745400,6.910745361328125,-0.02838134765625,-0.017181396484375,-1.005218505859375
1738773152571736300,6.920736328125,-0.0290374755859375,-0.01641845703125,-1.0055389404296875
1738773152581727200,6.930727294921875,-0.028594970703125,-0.0168304443359375,-1.0062255859375
1738773152591718100,6.94071826171875,-0.0284423828125,-0.0174102783203125,-1.0052337646484375
1738773152601710300,6.95071044921875,-0.0281829833984375,-0.015838623046875,-1.005279541015625
1738773152611701200,6.960701171875,-0.0283355712890625,-0.01654052734375,-1.0061492919921875
1738773152621692400,6.9706923828125,-0.0272064208984375,-0.0166015625,-1.0055694580078125
1738773152631683300,6.980683349609375,-0.02777099609375,-0.016632080078125,-1.005096435546875
1738773152641674200,6.99067431640625,-0.0279083251953125,-0.0159454345703125,-1.00482177734375
1738773152651665200,7.0006650390625,-0.0279541015625,-0.0164337158203125,-1.006805419921875
1738773152661656300,7.01065625,-0.0272064208984375,-0.0161590576171875,-1.006134033203125
1738773152671648300,7.020648193359375,-0.0273590087890625,-0.01556396484375,-1.005279541015625
1738773152681639400,7.030639404296875,-0.0292205810546875,-0.01470947265625,-1.00421142578125
1738773152691630300,7.04063037109375,-0.028350830078125,-0.015167236328125,-1.005401611328125
1738773152701621200,7.050621337890625,-0.02874755859375,-0.016357421875,-1.0048980712890625
1738773152711612200,7.060612060546875,-0.0294342041015625,-0.0166168212890625,-1.0047760009765625
1738773152721603300,7.070603271484375,-0.02850341796875,-0.017547607421875,-1.00531005859375
1738773152731594200,7.08059423828125,-0.0290679931640625,-0.0164337158203125,-1.00628662109375
1738773152741586200,7.090586181640625,-0.02777099609375,-0.0158843994140625,-1.006866455078125
1738773152751577300,7.100577392578125,-0.027862548828125,-0.01617431640625,-1.00579833984375
1738773152761568300,7.110568359375,-0.0285186767578125,-0.0167388916015625,-1.006256103515625
1738773152771559200,7.12055908203125,-0.0296783447265625,-0.0160980224609375,-1.0067596435546875
1738773152781550300,7.13055029296875,-0.0295867919921875,-0.016387939453125,-1.005767822265625
1738773152791541200,7.140541259765625,-0.0287933349609375,-0.01751708984375,-1.00640869140625
1738773152801532200,7.1505322265625,-0.0283966064453125,-0.016326904296875,-1.0056915283203125
1738773152811523000,7.160523193359375,-0.02752685546875,-0.0146484375,-1.0057220458984375
1738773152821515300,7.170515380859375,-0.0279083251953125,-0.0157928466796875,-1.0062255859375
1738773152831506200,7.180506103515625,-0.027984619140625,-0.01580810546875,-1.00543212890625
1738773152841497300,7.190497314453125,-0.027862548828125,-0.015899658203125,-1.004974365234375
1738773152851488300,7.20048828125,-0.0277557373046875,-0.01617431640625,-1.0053863525390625
1738773152861479200,7.210479248046875,-0.0289306640625,-0.01617431640625,-1.0073394775390625
1738773152871470300,7.22047021484375,-0.0272064208984375,-0.01629638671875,-1.005462646484375
1738773152881461500,7.23046142578125,-0.02642822265625,-0.016632080078125,-1.0056915283203125
1738773152891453200,7.240453125,-0.0277252197265625,-0.0166168212890625,-1.0047149658203125
1738773152901444400,7.2504443359375,-0.0287322998046875,-0.015838623046875,-1.004058837890625
1738773152911435300,7.260435302734375,-0.0280914306640625,-0.017059326171875,-1.00592041015625
1738773152921426200,7.27042626953125,-0.0277252197265625,-0.0164337158203125,-1.006072998046875
1738773152931417300,7.280417236328125,-0.0291290283203125,-0.015838623046875,-1.006103515625
1738773152941408500,7.290408447265625,-0.0285491943359375,-0.0163116455078125,-1.0059814453125
1738773152951399400,7.3003994140625,-0.0283355712890625,-0.0152130126953125,-1.005828857421875
1738773152961391000,7.31039111328125,-0.0271759033203125,-0.015960693359375,-1.005615234375
1738773152971382300,7.32038232421875,-0.0278472900390625,-0.017181396484375,-1.0056915283203125
1738773152981373200,7.330373291015625,-0.0273895263671875,-0.01739501953125,-1.0062713623046875
1738773152991364400,7.3403642578125,-0.02880859375,-0.015594482421875,-1.0059967041015625
1738773153001355500,7.35035546875,-0.02899169921875,-0.0152130126953125,-1.0051422119140625
1738773153011346400,7.360346435546875,-0.0289306640625,-0.017120361328125,-1.00640869140625
1738773153021337300,7.37033740234375,-0.0277862548828125,-0.0167236328125,-1.006103515625
1738773153031328300,7.380328369140625,-0.0291748046875,-0.0154571533203125,-1.00469970703125
1738773153041320400,7.390320556640625,-0.0275421142578125,-0.0162506103515625,-1.00640869140625
1738773153051311400,7.400311279296875,-0.02801513671875,-0.0169830322265625,-1.005767822265625
1738773153061302500,7.410302490234375,-0.0280303955078125,-0.01641845703125,-1.0057525634765625
1738773153071293400,7.42029345703125,-0.027435302734375,-0.016357421875,-1.0049285888671875
1738773153081284400,7.430284423828125,-0.0273284912109375,-0.0167083740234375,-1.0056304931640625
1738773153091275300,7.440275146484375,-0.0274658203125,-0.0162353515625,-1.0050201416015625
1738773153101266400,7.450266357421875,-0.028167724609375,-0.0174407958984375,-1.005645751953125
1738773153111258400,7.46025830078125,-0.027801513671875,-0.016265869140625,-1.0054931640625
1738773153121249300,7.470249267578125,-0.02789306640625,-0.015533447265625,-1.005615234375
1738773153131240400,7.480240478515625,-0.029388427734375,-0.0164947509765625,-1.00628662109375
1738773153141231400,7.4902314453125,-0.0269927978515625,-0.016632080078125,-1.005615234375
1738773153151222300,7.50022216796875,-0.0284881591796875,-0.01605224609375,-1.0048065185546875
1738773153161213400,7.51021337890625,-0.0287322998046875,-0.01666259765625,-1.005828857421875
1738773153171204400,7.520204345703125,-0.0290679931640625,-0.016815185546875,-1.0048370361328125
1738773153181195300,7.5301953125,-0.02911376953125,-0.0166778564453125,-1.0062713623046875
1738773153191187500,7.5401875,-0.028778076171875,-0.0159454345703125,-1.005767822265625
1738773153201178400,7.550178466796875,-0.02862548828125,-0.0169219970703125,-1.0065765380859375
1738773153211169300,7.560169189453125,-0.0273284912109375,-0.0154266357421875,-1.007293701171875
1738773153221160400,7.570160400390625,-0.029449462890625,-0.0155181884765625,-1.00701904296875
1738773153231151400,7.5801513671875,-0.0277252197265625,-0.017486572265625,-1.0059814453125
1738773153241142300,7.590142333984375,-0.02899169921875,-0.0161285400390625,-1.00543212890625
1738773153251133200,7.60013330078125,-0.0277862548828125,-0.0150299072265625,-1.006317138671875
1738773153261124400,7.610124267578125,-0.029083251953125,-0.0164642333984375,-1.0066375732421875
1738773153271116300,7.6201162109375,-0.0284576416015625,-0.0174560546875,-1.0074310302734375
1738773153281107500,7.630107421875,-0.0276947021484375,-0.01690673828125,-1.00537109375
1738773153291098400,7.640098388671875,-0.02764892578125,-0.016876220703125,-1.0056304931640625
1738773153301089300,7.65008935546875,-0.0272216796875,-0.0164337158203125,-1.005462646484375
1738773153311080200,7.660080078125,-0.027740478515625,-0.0167083740234375,-1.00408935546875
1738773153321071400,7.6700712890625,-0.0290679931640625,-0.016357421875,-1.0058135986328125
1738773153331062000,7.68006201171875,-0.027069091796875,-0.0171661376953125,-1.0069580078125
1738773153341053200,7.69005322265625,-0.0294036865234375,-0.016143798828125,-1.005584716796875
1738773153351045000,7.700045166015625,-0.028839111328125,-0.01702880859375,-1.0064239501953125
1738773153361036300,7.710036376953125,-0.02880859375,-0.0168914794921875,-1.0051727294921875
1738773153371027200,7.720027099609375,-0.0287322998046875,-0.016082763671875,-1.005126953125
1738773153381018000,7.73001806640625,-0.0282440185546875,-0.017486572265625,-1.0072021484375
1738773153391009000,7.740009033203125,-0.027587890625,-0.017333984375,-1.005889892578125
1738773153401000200,7.750000244140625,-0.0266265869140625,-0.016021728515625,-1.0055694580078125
1738773153410991000,7.7599912109375,-0.02801513671875,-0.0157928466796875,-1.0055694580078125
1738773153420983000,7.769983154296875,-0.0287628173828125,-0.01654052734375,-1.0050811767578125
1738773153430974200,7.77997412109375,-0.0282745361328125,-0.016387939453125,-1.00640869140625
1738773153440965000,7.789965087890625,-0.0294189453125,-0.0167236328125,-1.0048828125
1738773153450956000,7.7999560546875,-0.0299072265625,-0.0159759521484375,-1.00567626953125
1738773153460947200,7.809947265625,-0.028045654296875,-0.0155487060546875,-1.0066375732421875
1738773153470938000,7.819938232421875,-0.0280609130859375,-0.01708984375,-1.00628662109375
1738773153480929000,7.829928955078125,-0.0298004150390625,-0.016693115234375,-1.005889892578125
1738773153490920200,7.839920166015625,-0.029052734375,-0.016876220703125,-1.0054473876953125
1738773153500912000,7.849912109375,-0.0279083251953125,-0.0167388916015625,-1.0059814453125
1738773153510903000,7.859903076171875,-0.0289306640625,-0.0167236328125,-1.00543212890625
1738773153520894200,7.869894287109375,-0.0284423828125,-0.016387939453125,-1.00537109375
1738773153530885000,7.879885009765625,-0.0271453857421875,-0.0167236328125,-1.0055694580078125
1738773153540876000,7.8898759765625,-0.0276336669921875,-0.0164031982421875,-1.0056915283203125
1738773153550867200,7.8998671875,-0.0287322998046875,-0.015472412109375,-1.00714111328125
1738773153560858400,7.9098583984375,-0.0287933349609375,-0.0152587890625,-1.0048065185546875
1738773153570849300,7.919849365234375,-0.0283050537109375,-0.015899658203125,-1.0050506591796875
1738773153580841200,7.92984130859375,-0.0292816162109375,-0.01678466796875,-1.00616455078125
1738773153595203000,7.944203125,-0.028472900390625,-0.017791748046875,-1.0052947998046875
1738773153605194000,7.954194091796875,-0.028076171875,-0.0163421630859375,-1.00634765625
1738773153615185200,7.96418505859375,-0.0262603759765625,-0.0162506103515625,-1.0060577392578125
1738773153625176000,7.974176025390625,-0.028076171875,-0.016357421875,-1.0064544677734375
1738773153635167200,7.984167236328125,-0.027862548828125,-0.0157012939453125,-1.0064544677734375
1738773153645158400,7.994158447265625,-0.028564453125,-0.01702880859375,-1.0052490234375
1738773153655150000,8.004150146484376,-0.0271759033203125,-0.0152740478515625,-1.0054779052734375
1738773153665141000,8.01414111328125,-0.027313232421875,-0.0152130126953125,-1.0066070556640625
1738773153675132200,8.024132080078125,-0.028045654296875,-0.016693115234375,-1.0052947998046875
1738773153685123300,8.034123291015625,-0.028961181640625,-0.0159149169921875,-1.005340576171875
1738773153695114200,8.0441142578125,-0.0278167724609375,-0.0172119140625,-1.0058441162109375
1738773153705105400,8.05410546875,-0.027984619140625,-0.0175933837890625,-1.00567626953125
1738773153715096300,8.064096435546874,-0.0272064208984375,-0.016082763671875,-1.0067596435546875
1738773153725087200,8.074087158203126,-0.0279083251953125,-0.0163116455078125,-1.006439208984375
1738773153735079200,8.0840791015625,-0.02789306640625,-0.016021728515625,-1.0052490234375
1738773153745070300,8.0940703125,-0.0288848876953125,-0.01568603515625,-1.00469970703125
1738773153755061200,8.104061279296875,-0.028717041015625,-0.01556396484375,-1.0064697265625
1738773153765052200,8.11405224609375,-0.029388427734375,-0.017913818359375,-1.0060577392578125
1738773153775043300,8.124043212890625,-0.0294647216796875,-0.017181396484375,-1.005584716796875
1738773153785034200,8.1340341796875,-0.02813720703125,-0.01690673828125,-1.006256103515625
1738773153795025200,8.144025146484376,-0.0274505615234375,-0.0172119140625,-1.0045928955078125
1738773153805016300,8.154016357421876,-0.0272216796875,-0.016143798828125,-1.006317138671875
1738773153815008300,8.16400830078125,-0.029388427734375,-0.0159912109375,-1.006805419921875
1738773153824999200,8.173999267578125,-0.028961181640625,-0.016387939453125,-1.005279541015625
1738773153834990300,8.183990234375,-0.028594970703125,-0.0171356201171875,-1.004974365234375
1738773153844981200,8.193981201171875,-0.029205322265625,-0.016876220703125,-1.0068511962890625
1738773153854972200,8.20397216796875,-0.028106689453125,-0.0174560546875,-1.0066986083984375
1738773153864963300,8.21396337890625,-0.0284271240234375,-0.01519775390625,-1.00701904296875
1738773153874954200,8.223954345703126,-0.027618408203125,-0.0161590576171875,-1.006103515625
1738773153884945200,8.233945068359375,-0.0280303955078125,-0.015838623046875,-1.0049591064453125
1738773153894937300,8.243937255859375,-0.0285186767578125,-0.017120361328125,-1.005096435546875
1738773153904928300,8.25392822265625,-0.0281829833984375,-0.01654052734375,-1.0069580078125
1738773153914919200,8.263919189453125,-0.0278778076171875,-0.015869140625,-1.0066680908203125
1738773153924910300,8.273910400390625,-0.02740478515625,-0.016815185546875,-1.006195068359375
1738773153934901200,8.2839013671875,-0.0284271240234375,-0.0164031982421875,-1.0054931640625
1738773153945517300,8.294517333984375,-0.028961181640625,-0.016937255859375,-1.005340576171875
1738773153955508200,8.30450830078125,-0.029388427734375,-0.017059326171875,-1.006134033203125
1738773153965499100,8.3144990234375,-0.0275726318359375,-0.016357421875,-1.0049591064453125
1738773153975490000,8.324489990234374,-0.0279998779296875,-0.0160980224609375,-1.0065765380859375
1738773153985482200,8.334482177734374,-0.02752685546875,-0.0159454345703125,-1.0059967041015625
1738773153995473200,8.34447314453125,-0.028717041015625,-0.0155487060546875,-1.00469970703125
1738773154005464000,8.354464111328125,-0.02667236328125,-0.016693115234375,-1.005462646484375
1738773154015455200,8.364455322265625,-0.028717041015625,-0.017578125,-1.0062408447265625
1738773154025446100,8.374446044921875,-0.027435302734375,-0.01654052734375,-1.0054779052734375
1738773154035437000,8.38443701171875,-0.0286407470703125,-0.0164642333984375,-1.006439208984375
1738773154045428200,8.39442822265625,-0.0276031494140625,-0.0165557861328125,-1.0059356689453125
1738773154055419100,8.404419189453124,-0.0280303955078125,-0.0158843994140625,-1.0050506591796875
1738773154065411000,8.4144111328125,-0.0283660888671875,-0.01690673828125,-1.0047454833984375
1738773154075402200,8.42440234375,-0.027740478515625,-0.017669677734375,-1.0051422119140625
1738773154085393200,8.43439306640625,-0.026824951171875,-0.0164947509765625,-1.0059967041015625
1738773154095384000,8.444384033203125,-0.02734375,-0.0167083740234375,-1.0068511962890625
1738773154105375200,8.454375244140625,-0.0283660888671875,-0.016021728515625,-1.00531005859375
1738773154115366100,8.4643662109375,-0.0278472900390625,-0.0175628662109375,-1.006866455078125
1738773154125357000,8.474357177734374,-0.0272064208984375,-0.0159454345703125,-1.0062408447265625
1738773154135349200,8.484349365234374,-0.028900146484375,-0.01654052734375,-1.0062713623046875
1738773154145340200,8.494340087890626,-0.0293121337890625,-0.0158538818359375,-1.0063018798828125
1738773154155331000,8.5043310546875,-0.028533935546875,-0.0164337158203125,-1.0053558349609375
1738773154165322200,8.514322265625,-0.0287628173828125,-0.01751708984375,-1.005767822265625
1738773154175313200,8.524313232421875,-0.028533935546875,-0.016876220703125,-1.0064849853515625
1738773154185304000,8.534303955078125,-0.0284881591796875,-0.0160980224609375,-1.0052490234375
1738773154195295000,8.544294921875,-0.0275421142578125,-0.0167083740234375,-1.0048828125
1738773154205286100,8.5542861328125,-0.0274505615234375,-0.0167083740234375,-1.004852294921875
1738773154215278000,8.564278076171876,-0.0286407470703125,-0.016326904296875,-1.0052947998046875
1738773154225269000,8.57426904296875,-0.028472900390625,-0.0164642333984375,-1.005401611328125
1738773154235260200,8.58426025390625,-0.0274810791015625,-0.017730712890625,-1.005340576171875
1738773154245251000,8.5942509765625,-0.0286712646484375,-0.0164337158203125,-1.0071258544921875
1738773154255242000,8.604241943359375,-0.02899169921875,-0.0161590576171875,-1.0063629150390625
1738773154265233200,8.614233154296874,-0.028106689453125,-0.0160980224609375,-1.00567626953125
1738773154275224300,8.624224365234374,-0.0284271240234375,-0.0159759521484375,-1.006195068359375
1738773154285216000,8.634216064453126,-0.02880859375,-0.016082763671875,-1.0057373046875
1738773154295207200,8.644207275390626,-0.0286102294921875,-0.016326904296875,-1.00604248046875
1738773154305198000,8.654197998046875,-0.0283966064453125,-0.0159149169921875,-1.0068206787109375
1738773154315189200,8.664189208984375,-0.0277557373046875,-0.0172576904296875,-1.0062713623046875
1738773154325180400,8.674180419921875,-0.02783203125,-0.0165557861328125,-1.0056610107421875
1738773154335171600,8.684171630859375,-0.028106689453125,-0.0160980224609375,-1.0056304931640625
1738773154345162500,8.69416259765625,-0.029083251953125,-0.016510009765625,-1.0070037841796875
1738773154355153400,8.7041533203125,-0.0284881591796875,-0.015777587890625,-1.00482177734375
1738773154365145300,8.714145263671876,-0.029815673828125,-0.0165252685546875,-1.0057220458984375
1738773154375136300,8.72413623046875,-0.028778076171875,-0.017059326171875,-1.00640869140625
1738773154385127400,8.73412744140625,-0.02752685546875,-0.0167999267578125,-1.0053863525390625
1738773154395118600,8.74411865234375,-0.0284423828125,-0.0167236328125,-1.00738525390625
1738773154405109500,8.754109619140625,-0.0296783447265625,-0.0159912109375,-1.006256103515625
1738773154415100400,8.764100341796874,-0.02789306640625,-0.01580810546875,-1.0048828125
1738773154425091600,8.774091552734374,-0.0288543701171875,-0.0157012939453125,-1.00531005859375
1738773154435083300,8.784083251953126,-0.027191162109375,-0.0169830322265625,-1.006134033203125
1738773154445074400,8.794074462890626,-0.027862548828125,-0.016387939453125,-1.005340576171875
1738773154455065600,8.804065673828125,-0.0287322998046875,-0.01531982421875,-1.00616455078125
1738773154465056500,8.814056396484375,-0.0283050537109375,-0.0160064697265625,-1.00537109375
1738773154475047400,8.82404736328125,-0.029510498046875,-0.0155487060546875,-1.0056915283203125
1738773154485038600,8.83403857421875,-0.0299530029296875,-0.0163421630859375,-1.006134033203125
1738773154495029500,8.844029541015624,-0.02923583984375,-0.015899658203125,-1.006072998046875
1738773154505020400,8.8540205078125,-0.028594970703125,-0.0170135498046875,-1.005706787109375
1738773154515012600,8.8640126953125,-0.0290679931640625,-0.0169677734375,-1.0049591064453125
1738773154525003500,8.87400341796875,-0.027313232421875,-0.0162200927734375,-1.0058135986328125
1738773154534994400,8.883994384765625,-0.0277862548828125,-0.01666259765625,-1.0059356689453125
1738773154544985600,8.893985595703125,-0.0296630859375,-0.016143798828125,-1.0050506591796875
1738773154554976500,8.9039765625,-0.0290069580078125,-0.0153656005859375,-1.0054779052734375
1738773154564967400,8.913967529296874,-0.0273895263671875,-0.0167083740234375,-1.0060882568359375
1738773154574958300,8.923958251953126,-0.0289154052734375,-0.0170440673828125,-1.0053558349609375
1738773154584949500,8.933949462890626,-0.0295562744140625,-0.0168304443359375,-1.00640869140625
1738773154594941400,8.94394140625,-0.0281524658203125,-0.01611328125,-1.005615234375
1738773154604932600,8.9539326171875,-0.028839111328125,-0.015869140625,-1.004730224609375
1738773154614923500,8.963923583984375,-0.02752685546875,-0.0157318115234375,-1.0063934326171875
1738773154624914400,8.97391455078125,-0.0284423828125,-0.015960693359375,-1.005340576171875
1738773154634905300,8.9839052734375,-0.027496337890625,-0.0160675048828125,-1.0072174072265625
1738773154644896500,8.993896484375,-0.0288238525390625,-0.016143798828125,-1.0037078857421875
1738773154654887400,9.003887451171876,-0.028411865234375,-0.016815185546875,-1.0054931640625
1738773154664879400,9.01387939453125,-0.0282135009765625,-0.0158538818359375,-1.0057220458984375
1738773154674870500,9.02387060546875,-0.02825927734375,-0.0171966552734375,-1.0057373046875
1738773154684861400,9.033861328125,-0.0273895263671875,-0.017486572265625,-1.00531005859375
1738773154694852400,9.043852294921875,-0.0291900634765625,-0.01568603515625,-1.0057525634765625
1738773154704843500,9.053843505859374,-0.028594970703125,-0.0161590576171875,-1.006103515625
1738773154714834400,9.06383447265625,-0.026123046875,-0.0158538818359375,-1.005950927734375
1738773154724825300,9.073825439453126,-0.0287322998046875,-0.0160980224609375,-1.00482177734375
1738773154734816500,9.08381640625,-0.0288238525390625,-0.0165252685546875,-1.005584716796875
1738773154744808400,9.093808349609375,-0.028076171875,-0.0164947509765625,-1.0059661865234375
1738773154754799400,9.10379931640625,-0.0277252197265625,-0.015899658203125,-1.00567626953125
1738773154764790500,9.11379052734375,-0.0278778076171875,-0.0164337158203125,-1.0062408447265625
1738773154774781400,9.123781494140625,-0.027313232421875,-0.0157623291015625,-1.0048828125
1738773154784772400,9.1337724609375,-0.02960205078125,-0.0161285400390625,-1.004913330078125
1738773154794763300,9.14376318359375,-0.02813720703125,-0.016571044921875,-1.005035400390625
1738773154804754400,9.15375439453125,-0.027008056640625,-0.0166168212890625,-1.00555419921875
1738773154814746400,9.163746337890625,-0.027984619140625,-0.01654052734375,-1.0045623779296875
1738773154824737500,9.173737548828125,-0.0281524658203125,-0.01702880859375,-1.0060272216796875
1738773154834728400,9.183728515625,-0.0281982421875,-0.0164031982421875,-1.00616455078125
1738773154844719400,9.19371923828125,-0.0271148681640625,-0.016357421875,-1.006134033203125
1738773154854710300,9.203710205078124,-0.0285491943359375,-0.016326904296875,-1.0064239501953125
1738773154864701400,9.213701416015626,-0.0283050537109375,-0.0159454345703125,-1.006103515625
1738773154874692400,9.2236923828125,-0.027313232421875,-0.0164031982421875,-1.0055999755859375
1738773154884683300,9.233683349609375,-0.02874755859375,-0.0157470703125,-1.0065460205078125
1738773154894675500,9.243675537109375,-0.02880859375,-0.0166778564453125,-1.0068206787109375
1738773154904666400,9.253666259765625,-0.0278778076171875,-0.01611328125,-1.00567626953125
1738773154914657300,9.2636572265625,-0.0290985107421875,-0.016632080078125,-1.00537109375
1738773154924648400,9.2736484375,-0.0289154052734375,-0.0162506103515625,-1.0048828125
1738773154934639400,9.283639404296874,-0.02886962890625,-0.0161590576171875,-1.0059814453125
1738773154944630300,9.29363037109375,-0.0294036865234375,-0.016021728515625,-1.0066986083984375
1738773154954621400,9.303621337890625,-0.0281829833984375,-0.016326904296875,-1.005523681640625
1738773154964613400,9.31361328125,-0.02825927734375,-0.0176849365234375,-1.0052947998046875
1738773154974604300,9.323604248046875,-0.029052734375,-0.01678466796875,-1.0058135986328125
1738773154984595500,9.333595458984375,-0.02911376953125,-0.016937255859375,-1.0046539306640625
1738773154994586400,9.34358642578125,-0.0281982421875,-0.01715087890625,-1.00482177734375
1738773155004577300,9.353577392578124,-0.027618408203125,-0.0169525146484375,-1.005279541015625
1738773155014568400,9.363568359375,-0.028289794921875,-0.0171356201171875,-1.0059661865234375
1738773155024559600,9.3735595703125,-0.0280914306640625,-0.0159912109375,-1.0063018798828125
1738773155034550500,9.383550537109375,-0.0272369384765625,-0.015869140625,-1.005523681640625
1738773155044542500,9.39354248046875,-0.028564453125,-0.0171356201171875,-1.006683349609375
1738773155054533400,9.403533447265625,-0.0271453857421875,-0.015625,-1.0065765380859375
1738773155064524300,9.413524169921875,-0.027801513671875,-0.01580810546875,-1.005401611328125
1738773155074515500,9.423515380859374,-0.0277862548828125,-0.0164031982421875,-1.0055999755859375
1738773155084506600,9.433506591796874,-0.027587890625,-0.015716552734375,-1.0055084228515625
1738773155094497500,9.44349755859375,-0.028076171875,-0.0160369873046875,-1.0056610107421875
1738773155104488400,9.453488525390625,-0.0277557373046875,-0.0164031982421875,-1.0052032470703125
1738773155114479600,9.463479736328125,-0.02752685546875,-0.016326904296875,-1.0049896240234375
1738773155124471600,9.473471435546875,-0.0282745361328125,-0.0174713134765625,-1.0050048828125
1738773155134462500,9.48346240234375,-0.0293121337890625,-0.0162200927734375,-1.0062713623046875
1738773155144453600,9.49345361328125,-0.027740478515625,-0.015228271484375,-1.0057525634765625
1738773155154444500,9.503444580078124,-0.029083251953125,-0.016357421875,-1.005523681640625
1738773155164435500,9.513435546875,-0.030517578125,-0.016510009765625,-1.0048065185546875
1738773155174426600,9.523426513671875,-0.0285797119140625,-0.0172576904296875,-1.0055084228515625
1738773155184417500,9.53341748046875,-0.0290374755859375,-0.01654052734375,-1.0071563720703125
1738773155194409500,9.543409423828125,-0.0281219482421875,-0.0180206298828125,-1.0067138671875
1738773155204400600,9.553400634765625,-0.0270843505859375,-0.0167388916015625,-1.006011962890625
1738773155214391600,9.5633916015625,-0.0291595458984375,-0.01763916015625,-1.004852294921875
1738773155224382500,9.573382568359374,-0.02886962890625,-0.01580810546875,-1.0056610107421875
1738773155234373400,9.583373291015626,-0.029693603515625,-0.0146942138671875,-1.00604248046875
1738773155244364500,9.593364501953126,-0.0277862548828125,-0.0149383544921875,-1.0067901611328125
1738773155254355500,9.60335546875,-0.0274810791015625,-0.0159912109375,-1.00531005859375
1738773155264346400,9.613346435546875,-0.029571533203125,-0.0177459716796875,-1.006072998046875
1738773155274338600,9.623338623046875,-0.029022216796875,-0.016265869140625,-1.0062713623046875
1738773155284329500,9.63332958984375,-0.026580810546875,-0.017181396484375,-1.00653076171875
1738773155294320400,9.6433203125,-0.02764892578125,-0.0169677734375,-1.0052337646484375
1738773155304311600,9.6533115234375,-0.02850341796875,-0.01666259765625,-1.0059814453125
1738773155314302500,9.663302490234376,-0.0284576416015625,-0.015899658203125,-1.006317138671875
1738773155324293400,9.67329345703125,-0.027435302734375,-0.0167236328125,-1.0045013427734375
1738773155334284500,9.683284423828125,-0.027679443359375,-0.01715087890625,-1.0051116943359375
1738773155344275500,9.693275390625,-0.0282135009765625,-0.0159912109375,-1.0063629150390625
1738773155354267600,9.703267578125,-0.029083251953125,-0.015716552734375,-1.0062103271484375
1738773155364258600,9.713258544921874,-0.0278778076171875,-0.01666259765625,-1.005767822265625
1738773155374249500,9.72324951171875,-0.0269927978515625,-0.0168304443359375,-1.0053253173828125
1738773155384240400,9.733240478515626,-0.0289764404296875,-0.015472412109375,-1.005889892578125
1738773155394231600,9.7432314453125,-0.0281524658203125,-0.0148773193359375,-1.00677490234375
1738773155404222500,9.753222412109375,-0.02911376953125,-0.0163116455078125,-1.006591796875
1738773155414213400,9.76321337890625,-0.026458740234375,-0.0159454345703125,-1.0065155029296875
1738773155424204500,9.77320458984375,-0.02801513671875,-0.0165252685546875,-1.005950927734375
1738773155434196500,9.783196533203125,-0.0281982421875,-0.01654052734375,-1.004119873046875
1738773155444187400,9.7931875,-0.0263519287109375,-0.0173187255859375,-1.0048065185546875
1738773155454178600,9.803178466796876,-0.0262908935546875,-0.0154876708984375,-1.0047760009765625
1738773155464169500,9.81316943359375,-0.0269622802734375,-0.0162200927734375,-1.0059051513671875
1738773155474160400,9.823160400390625,-0.0282745361328125,-0.016082763671875,-1.0050811767578125
1738773155484151300,9.8331513671875,-0.029144287109375,-0.016021728515625,-1.0052032470703125
1738773155494142500,9.843142578125,-0.0283660888671875,-0.0155792236328125,-1.0042724609375
1738773155504133400,9.85313330078125,-0.02850341796875,-0.0166168212890625,-1.0056915283203125
1738773155514125600,9.86312548828125,-0.0287628173828125,-0.015533447265625,-1.00555419921875
1738773155524116500,9.873116455078126,-0.0277862548828125,-0.0159149169921875,-1.005645751953125
1738773155534107400,9.883107421875,-0.0288848876953125,-0.016357421875,-1.0053863525390625
1738773155544098300,9.893098388671875,-0.0287933349609375,-0.0167999267578125,-1.004913330078125
1738773155554089500,9.90308935546875,-0.0275421142578125,-0.0154266357421875,-1.005828857421875
1738773155564080400,9.913080322265625,-0.0264892578125,-0.0163421630859375,-1.004547119140625
1738773155574071300,9.9230712890625,-0.02764892578125,-0.015960693359375,-1.00439453125
1738773155584062500,9.9330625,-0.0274658203125,-0.016876220703125,-1.00494384765625
1738773155594054400,9.943054443359374,-0.0283203125,-0.0176239013671875,-1.0062103271484375
1738773155604045300,9.95304541015625,-0.028717041015625,-0.015625,-1.0060882568359375
1738773155614036500,9.963036376953125,-0.028350830078125,-0.017486572265625,-1.00628662109375
1738773155624027400,9.97302734375,-0.027801513671875,-0.0171356201171875,-1.0058441162109375
1738773155634018300,9.983018310546875,-0.027557373046875,-0.0165557861328125,-1.00567626953125
1738773155644009500,9.993009521484375,-0.0279693603515625,-0.0157623291015625,-1.0061492919921875
1738773155654000600,10.003000732421874,-0.027801513671875,-0.0164031982421875,-1.00543212890625
1738773155663992300,10.012992431640624,-0.0277862548828125,-0.017913818359375,-1.0054779052734375
1738773155673983500,10.0229833984375,-0.0283966064453125,-0.0164794921875,-1.0063018798828125
1738773155683974400,10.032974365234375,-0.02764892578125,-0.015533447265625,-1.0050048828125
1738773155693965300,10.04296533203125,-0.0277252197265625,-0.015625,-1.00537109375
1738773155703956500,10.05295654296875,-0.02923583984375,-0.0167236328125,-1.0052490234375
1738773155713947600,10.06294775390625,-0.0282135009765625,-0.0149688720703125,-1.0057373046875
1738773155723938600,10.0729384765625,-0.0274200439453125,-0.0162506103515625,-1.006683349609375
1738773155733929500,10.082929443359374,-0.027587890625,-0.0167388916015625,-1.0064697265625
1738773155743921400,10.09292138671875,-0.0267333984375,-0.016357421875,-1.00555419921875
1738773155753912600,10.10291259765625,-0.028411865234375,-0.0160064697265625,-1.005218505859375
1738773155763903500,10.112903564453125,-0.0282135009765625,-0.016143798828125,-1.0047760009765625
1738773155773894700,10.122894775390625,-0.027313232421875,-0.0175628662109375,-1.0056610107421875
1738773155783885600,10.132885498046875,-0.0279388427734375,-0.015533447265625,-1.007080078125
1738773155793876500,10.14287646484375,-0.02874755859375,-0.0153350830078125,-1.0068511962890625
1738773155803867600,10.15286767578125,-0.0292816162109375,-0.016571044921875,-1.00701904296875
1738773155813858600,10.162858642578126,-0.029754638671875,-0.0159759521484375,-1.0059661865234375
1738773155823850500,10.1728505859375,-0.0284271240234375,-0.01666259765625,-1.006744384765625
1738773155833841700,10.182841552734375,-0.0275115966796875,-0.016693115234375,-1.0067901611328125
1738773155843832600,10.19283251953125,-0.0295257568359375,-0.0170135498046875,-1.0056610107421875
1738773155853823500,10.202823486328125,-0.0298614501953125,-0.0164337158203125,-1.00616455078125
1738773155863814700,10.212814697265625,-0.0272674560546875,-0.0168304443359375,-1.0063323974609375
1738773155873805600,10.2228056640625,-0.0277557373046875,-0.0161590576171875,-1.004852294921875
1738773155883796500,10.23279638671875,-0.027374267578125,-0.0159149169921875,-1.005859375
1738773155893787400,10.242787353515626,-0.028411865234375,-0.0164031982421875,-1.0054168701171875
1738773155903779600,10.252779541015625,-0.02850341796875,-0.0167236328125,-1.0059814453125
1738773155913770500,10.2627705078125,-0.02880859375,-0.017578125,-1.005340576171875
1738773155923761400,10.272761474609375,-0.0283660888671875,-0.01568603515625,-1.0061492919921875
1738773155933752600,10.282752685546875,-0.0289459228515625,-0.0169830322265625,-1.0068817138671875
1738773155943743500,10.292743408203124,-0.0292816162109375,-0.01641845703125,-1.0051727294921875
1738773155953734400,10.302734375,-0.0279388427734375,-0.0158538818359375,-1.0062103271484375
1738773155963725600,10.3127255859375,-0.0280609130859375,-0.0170440673828125,-1.0063323974609375
1738773155973716500,10.322716552734375,-0.0273284912109375,-0.0157012939453125,-1.0068359375
1738773155983708400,10.33270849609375,-0.0282745361328125,-0.015625,-1.005584716796875
1738773155993699600,10.342699462890625,-0.0287017822265625,-0.0159149169921875,-1.0055084228515625
1738773156003690500,10.3526904296875,-0.0281524658203125,-0.016571044921875,-1.006439208984375
1738773156013681400,10.362681396484374,-0.0281219482421875,-0.0166015625,-1.0074310302734375
1738773156023672600,10.372672607421874,-0.0271759033203125,-0.0155487060546875,-1.006072998046875
1738773156033663500,10.38266357421875,-0.0294647216796875,-0.016204833984375,-1.0065765380859375
1738773156043654400,10.392654296875,-0.02911376953125,-0.0160675048828125,-1.0062713623046875
1738773156053645300,10.402645263671875,-0.0283050537109375,-0.017669677734375,-1.005157470703125
1738773156063637500,10.412637451171875,-0.028717041015625,-0.01556396484375,-1.005645751953125
1738773156073628400,10.42262841796875,-0.02880859375,-0.016387939453125,-1.006011962890625
1738773156083619600,10.43261962890625,-0.0281829833984375,-0.016265869140625,-1.0064697265625
1738773156093610500,10.442610595703124,-0.0282440185546875,-0.0168914794921875,-1.004791259765625
1738773156103601400,10.452601318359376,-0.027801513671875,-0.0174713134765625,-1.00408935546875
1738773156113592300,10.46259228515625,-0.0287322998046875,-0.0169830322265625,-1.0059051513671875
1738773156123583500,10.47258349609375,-0.028594970703125,-0.0173797607421875,-1.005279541015625
1738773156133575400,10.482575439453125,-0.027069091796875,-0.01611328125,-1.00567626953125
1738773156143566300,10.49256640625,-0.028350830078125,-0.016082763671875,-1.00531005859375
1738773156153557500,10.5025576171875,-0.02801513671875,-0.0173187255859375,-1.0064239501953125
1738773156163548400,10.51254833984375,-0.028045654296875,-0.0167388916015625,-1.0057525634765625
1738773156173539300,10.522539306640626,-0.027587890625,-0.01629638671875,-1.0054168701171875
1738773156183530500,10.532530517578126,-0.0278778076171875,-0.0157470703125,-1.0057525634765625
1738773156193521400,10.542521484375,-0.0278778076171875,-0.01611328125,-1.0045928955078125
1738773156203512300,10.55251220703125,-0.027801513671875,-0.0166778564453125,-1.00579833984375
1738773156213503500,10.56250341796875,-0.027984619140625,-0.01690673828125,-1.006378173828125
1738773156223495400,10.572495361328125,-0.0272216796875,-0.01715087890625,-1.0052642822265625
1738773156233486300,10.582486328125,-0.0287628173828125,-0.0166778564453125,-1.0050811767578125
1738773156243477500,10.5924775390625,-0.0280609130859375,-0.01641845703125,-1.0053863525390625
1738773156253468400,10.602468505859376,-0.0265960693359375,-0.01739501953125,-1.00543212890625
1738773156263459300,10.612459228515625,-0.0270538330078125,-0.0169525146484375,-1.00537109375
1738773156273450500,10.622450439453125,-0.0280609130859375,-0.0160369873046875,-1.005767822265625
1738773156283441700,10.632441650390625,-0.028289794921875,-0.016143798828125,-1.005859375
1738773156293433300,10.642433349609375,-0.0288848876953125,-0.016204833984375,-1.0058746337890625
1738773156303424500,10.652424560546875,-0.027557373046875,-0.0170135498046875,-1.0062103271484375
1738773156313415400,10.66241552734375,-0.0288238525390625,-0.0160064697265625,-1.0052337646484375
1738773156323406300,10.67240625,-0.028717041015625,-0.015228271484375,-1.0068359375
1738773156333397500,10.6823974609375,-0.027862548828125,-0.0170440673828125,-1.0058441162109375
1738773156343388700,10.692388671875,-0.02911376953125,-0.016357421875,-1.00604248046875
1738773156353379800,10.7023798828125,-0.0286102294921875,-0.01568603515625,-1.006011962890625
1738773156363370800,10.712370849609375,-0.02703857421875,-0.01568603515625,-1.0057220458984375
1738773156373362700,10.72236279296875,-0.028472900390625,-0.0152740478515625,-1.0048675537109375
1738773156383353600,10.732353515625,-0.0279541015625,-0.0171051025390625,-1.0061798095703125
1738773156393344800,10.7423447265625,-0.027557373046875,-0.0163116455078125,-1.006439208984375
1738773156403336000,10.7523359375,-0.0284881591796875,-0.016510009765625,-1.0063018798828125
1738773156413326800,10.762326904296875,-0.0287933349609375,-0.0171356201171875,-1.0061187744140625
1738773156423317800,10.77231787109375,-0.02783203125,-0.014892578125,-1.005615234375
1738773156433308700,10.78230859375,-0.0281982421875,-0.016448974609375,-1.00482177734375
1738773156443299800,10.7922998046875,-0.02764892578125,-0.0170745849609375,-1.00714111328125
1738773156453291800,10.802291748046875,-0.028594970703125,-0.015045166015625,-1.0066375732421875
1738773156463282700,10.81228271484375,-0.02947998046875,-0.01568603515625,-1.0050048828125
1738773156473273900,10.82227392578125,-0.029266357421875,-0.0158233642578125,-1.0066680908203125
1738773156483264800,10.8322646484375,-0.0275421142578125,-0.0169830322265625,-1.0053253173828125
1738773156493255700,10.842255615234375,-0.0276641845703125,-0.0175018310546875,-1.0072021484375
1738773156503246800,10.852246826171875,-0.02850341796875,-0.016845703125,-1.0042572021484375
1738773156513237800,10.86223779296875,-0.0281829833984375,-0.0167999267578125,-1.0059661865234375
1738773156523229700,10.872229736328125,-0.0270233154296875,-0.016693115234375,-1.0047760009765625
1738773156533220900,10.882220947265624,-0.028961181640625,-0.0174407958984375,-1.005462646484375
1738773156543211800,10.892211669921876,-0.0291748046875,-0.0162811279296875,-1.0059814453125
1738773156553202700,10.90220263671875,-0.0270843505859375,-0.016571044921875,-1.0057220458984375
1738773156563193900,10.91219384765625,-0.02813720703125,-0.0169830322265625,-1.0065155029296875
1738773156573184800,10.922184814453125,-0.027618408203125,-0.0171051025390625,-1.0059967041015625
1738773156583175700,10.93217578125,-0.027679443359375,-0.01617431640625,-1.005889892578125
1738773156593168000,10.94216796875,-0.0281219482421875,-0.016632080078125,-1.0051422119140625
1738773156603158800,10.95215869140625,-0.0284881591796875,-0.0159912109375,-1.0068511962890625
1738773156613149700,10.962149658203124,-0.02880859375,-0.0166778564453125,-1.0068359375
1738773156623140600,10.972140625,-0.02789306640625,-0.0163116455078125,-1.0067291259765625
1738773156633131800,10.9821318359375,-0.028717041015625,-0.0171051025390625,-1.0062103271484375
1738773156643122700,10.992122802734375,-0.0271148681640625,-0.016387939453125,-1.0064697265625
1738773156653113600,11.002113525390625,-0.0288848876953125,-0.0164642333984375,-1.0073394775390625
1738773156663104800,11.012104736328125,-0.027099609375,-0.016021728515625,-1.006744384765625
1738773156673096700,11.0220966796875,-0.02801513671875,-0.016754150390625,-1.005279541015625
1738773156683087600,11.032087646484374,-0.0297698974609375,-0.01690673828125,-1.0056915283203125
1738773156693078800,11.042078857421876,-0.02783203125,-0.016632080078125,-1.0068359375
1738773156703069700,11.052069580078125,-0.02899169921875,-0.016571044921875,-1.0059814453125
1738773156713060600,11.062060546875,-0.02874755859375,-0.016021728515625,-1.0059051513671875
1738773156723051800,11.0720517578125,-0.02728271484375,-0.0176544189453125,-1.00677490234375
1738773156733042700,11.082042724609375,-0.027862548828125,-0.0159759521484375,-1.0069580078125
1738773156743034600,11.09203466796875,-0.027679443359375,-0.0164337158203125,-1.00555419921875
1738773156753025800,11.10202587890625,-0.0295257568359375,-0.016448974609375,-1.0055389404296875
1738773156763016700,11.1120166015625,-0.028900146484375,-0.016448974609375,-1.005340576171875
1738773156773007600,11.122007568359376,-0.02862548828125,-0.0162200927734375,-1.00579833984375
1738773156782998800,11.131998779296875,-0.0289154052734375,-0.0170135498046875,-1.006561279296875
1738773156792989700,11.14198974609375,-0.0281829833984375,-0.016387939453125,-1.006011962890625
1738773156802980600,11.151980712890625,-0.0279541015625,-0.01776123046875,-1.005157470703125
1738773156812972800,11.161972900390625,-0.0275115966796875,-0.015899658203125,-1.0048828125
1738773156822963700,11.171963623046874,-0.0272369384765625,-0.0160369873046875,-1.0053558349609375
1738773156832954600,11.18195458984375,-0.0283355712890625,-0.016845703125,-1.0050506591796875
1738773156842945500,11.191945556640626,-0.029388427734375,-0.017181396484375,-1.0062103271484375
1738773156852936700,11.201936767578125,-0.0295867919921875,-0.015594482421875,-1.00616455078125
1738773156862927600,11.211927734375,-0.028656005859375,-0.01654052734375,-1.00567626953125
1738773156872918500,11.22191845703125,-0.0269775390625,-0.0161285400390625,-1.006744384765625
1738773156882909700,11.23190966796875,-0.027496337890625,-0.0157928466796875,-1.00750732421875
1738773156892901600,11.241901611328124,-0.02740478515625,-0.0155792236328125,-1.0063629150390625
1738773156902892500,11.251892578125,-0.0276947021484375,-0.01580810546875,-1.006591796875
1738773156912883700,11.2618837890625,-0.0275115966796875,-0.0159149169921875,-1.0062255859375
1738773156922874600,11.27187451171875,-0.02740478515625,-0.0158538818359375,-1.0060272216796875
1738773156932865500,11.281865478515625,-0.02838134765625,-0.016082763671875,-1.0066070556640625
1738773156942856700,11.291856689453125,-0.027099609375,-0.0153656005859375,-1.006439208984375
1738773156952847600,11.30184765625,-0.0281982421875,-0.0173492431640625,-1.005584716796875
1738773156962839600,11.311839599609375,-0.0285186767578125,-0.0160675048828125,-1.0066375732421875
1738773156972830700,11.321830810546874,-0.028228759765625,-0.016937255859375,-1.00738525390625
1738773156982821600,11.331821533203126,-0.0286102294921875,-0.0170745849609375,-1.006988525390625
1738773156992812500,11.3418125,-0.029083251953125,-0.015533447265625,-1.0061187744140625
1738773157002803700,11.3518037109375,-0.028961181640625,-0.015289306640625,-1.0056304931640625
1738773157012794600,11.361794677734375,-0.0281219482421875,-0.01605224609375,-1.0054473876953125
1738773157022785500,11.37178564453125,-0.0289306640625,-0.0173797607421875,-1.00604248046875
1738773157032777700,11.38177783203125,-0.0285797119140625,-0.0178985595703125,-1.0066375732421875
1738773157042768600,11.3917685546875,-0.0286102294921875,-0.0165252685546875,-1.0066375732421875
1738773157052759600,11.401759521484376,-0.028411865234375,-0.0157318115234375,-1.0050506591796875
1738773157062750500,11.41175048828125,-0.0283050537109375,-0.01654052734375,-1.005340576171875
1738773157072741600,11.42174169921875,-0.028472900390625,-0.0166778564453125,-1.006195068359375
1738773157082732800,11.43173291015625,-0.02838134765625,-0.015655517578125,-1.006317138671875
1738773157092723700,11.4417236328125,-0.0283660888671875,-0.01666259765625,-1.006195068359375
1738773157102715600,11.451715576171875,-0.0283203125,-0.0169219970703125,-1.00537109375
1738773157112706600,11.46170654296875,-0.0286865234375,-0.0160675048828125,-1.00634765625
1738773157122697500,11.471697509765624,-0.027801513671875,-0.0170135498046875,-1.005615234375
1738773157132688600,11.481688720703126,-0.027984619140625,-0.017425537109375,-1.00628662109375
1738773157142679800,11.4916796875,-0.028228759765625,-0.0158843994140625,-1.005096435546875
1738773157152670700,11.501670654296875,-0.027191162109375,-0.0156707763671875,-1.005889892578125
1738773157162662000,11.511661865234375,-0.0266876220703125,-0.016387939453125,-1.005615234375
1738773157172653600,11.521653564453125,-0.02838134765625,-0.0153350830078125,-1.0049285888671875
1738773157182644500,11.53164453125,-0.0289459228515625,-0.0157470703125,-1.0063629150390625
1738773157192635600,11.5416357421875,-0.028411865234375,-0.016632080078125,-1.0059967041015625
1738773157202626800,11.551626708984376,-0.02984619140625,-0.0169219970703125,-1.005462646484375
1738773157212617700,11.56161767578125,-0.0276031494140625,-0.016754150390625,-1.00518798828125
1738773157222609000,11.57160888671875,-0.02880859375,-0.0172119140625,-1.0045623779296875
1738773157232599800,11.581599853515625,-0.0268402099609375,-0.01690673828125,-1.0050201416015625
1738773157242590700,11.5915908203125,-0.02899169921875,-0.01666259765625,-1.005279541015625
1738773157252583000,11.6015830078125,-0.0287322998046875,-0.0167236328125,-1.005950927734375
1738773157262573800,11.61157373046875,-0.0295867919921875,-0.016937255859375,-1.00732421875
1738773157272564700,11.621564697265624,-0.0282440185546875,-0.0169830322265625,-1.005645751953125
1738773157282555600,11.6315556640625,-0.0290374755859375,-0.0178070068359375,-1.00555419921875
1738773157292546800,11.641546875,-0.0286865234375,-0.01788330078125,-1.00592041015625
1738773157302537700,11.651537841796875,-0.0287933349609375,-0.0172882080078125,-1.006866455078125
1738773157312528600,11.661528564453125,-0.0281219482421875,-0.0164337158203125,-1.0064544677734375
1738773157322520800,11.671520751953125,-0.02783203125,-0.016998291015625,-1.0048675537109375
1738773157332511000,11.681510986328124,-0.027435302734375,-0.0164794921875,-1.006072998046875
1738773157342502100,11.691502197265624,-0.0279388427734375,-0.0154571533203125,-1.006683349609375
1738773157352493000,11.7014931640625,-0.0269622802734375,-0.0152587890625,-1.0054473876953125
1738773157362484000,11.71148388671875,-0.0288543701171875,-0.0154266357421875,-1.0054168701171875
1738773157372475100,11.72147509765625,-0.0279998779296875,-0.01666259765625,-1.005401611328125
1738773157382466000,11.731466064453125,-0.0272674560546875,-0.0157470703125,-1.005859375
1738773157392458000,11.7414580078125,-0.0284881591796875,-0.017364501953125,-1.0045013427734375
1738773157402449200,11.75144921875,-0.028106689453125,-0.0173492431640625,-1.0048065185546875
1738773157412440000,11.761440185546874,-0.02911376953125,-0.0159454345703125,-1.005584716796875
1738773157422431000,11.771430908203126,-0.02838134765625,-0.015838623046875,-1.00616455078125
1738773157432422100,11.781422119140625,-0.028778076171875,-0.0163726806640625,-1.00592041015625
1738773157442413000,11.7914130859375,-0.02752685546875,-0.01611328125,-1.00537109375
1738773157452404000,11.801404052734375,-0.0280303955078125,-0.016448974609375,-1.00555419921875
1738773157462395000,11.811394775390625,-0.0284423828125,-0.0157012939453125,-1.0060577392578125
1738773157472387000,11.821386962890625,-0.028289794921875,-0.0160675048828125,-1.00640869140625
1738773157482378000,11.8313779296875,-0.02801513671875,-0.0169677734375,-1.0063934326171875
1738773157492369200,11.841369140625,-0.028228759765625,-0.0159759521484375,-1.005889892578125
1738773157502360000,11.851360107421876,-0.0281829833984375,-0.0163421630859375,-1.0046234130859375
1738773157512351000,11.86135107421875,-0.0283966064453125,-0.017120361328125,-1.0052337646484375
1738773157522342000,11.871341796875,-0.02850341796875,-0.016632080078125,-1.0067901611328125
1738773157532333000,11.8813330078125,-0.0286712646484375,-0.016448974609375,-1.0042724609375
1738773157542325000,11.891324951171875,-0.0284881591796875,-0.0154876708984375,-1.00518798828125
1738773157552316000,11.90131591796875,-0.0279083251953125,-0.016632080078125,-1.00555419921875
1738773157562307000,11.91130712890625,-0.027984619140625,-0.016082763671875,-1.0058441162109375
1738773157572298000,11.921298095703126,-0.02764892578125,-0.0170440673828125,-1.0063629150390625
1738773157582289000,11.931288818359375,-0.027679443359375,-0.0169830322265625,-1.005096435546875
1738773157592280000,11.941280029296875,-0.0276336669921875,-0.0163726806640625,-1.005584716796875
1738773157602896000,11.951895751953124,-0.029296875,-0.0164031982421875,-1.006256103515625
1738773157612887000,11.961886962890626,-0.02667236328125,-0.016845703125,-1.00653076171875
1738773157622878000,11.9718779296875,-0.027801513671875,-0.016082763671875,-1.00640869140625
1738773157632869000,11.981869140625,-0.0287628173828125,-0.0162353515625,-1.0059967041015625
1738773157642860300,11.9918603515625,-0.02813720703125,-0.0158843994140625,-1.0056304931640625
1738773157652851200,12.001851318359375,-0.0276641845703125,-0.015838623046875,-1.0055999755859375
1738773157662842000,12.011842041015624,-0.02752685546875,-0.016021728515625,-1.0055084228515625
1738773157672833000,12.0218330078125,-0.0289306640625,-0.01654052734375,-1.005126953125
1738773157682825200,12.0318251953125,-0.0293426513671875,-0.0163116455078125,-1.004852294921875
1738773157692816100,12.041816162109376,-0.0270233154296875,-0.01641845703125,-1.0050201416015625
1738773157702807000,12.05180712890625,-0.02947998046875,-0.0160980224609375,-1.0065155029296875
1738773157712798200,12.061798095703125,-0.028656005859375,-0.01666259765625,-1.005096435546875
1738773157722789000,12.0717890625,-0.0282440185546875,-0.016265869140625,-1.0055084228515625
1738773157732780000,12.081780029296874,-0.0292816162109375,-0.0163116455078125,-1.0060577392578125
1738773157742771200,12.091771240234374,-0.02752685546875,-0.016387939453125,-1.005401611328125
1738773157752763100,12.10176318359375,-0.0272216796875,-0.0167388916015625,-1.0052947998046875
1738773157762754000,12.111754150390626,-0.0273284912109375,-0.0158538818359375,-1.0052642822265625
1738773157772745200,12.1217451171875,-0.0284271240234375,-0.015838623046875,-1.0053863525390625
1738773157782736100,12.131736083984375,-0.027923583984375,-0.0171051025390625,-1.0069732666015625
1738773157792727000,12.14172705078125,-0.027069091796875,-0.0160369873046875,-1.0062255859375
1738773157802718200,12.15171826171875,-0.0288848876953125,-0.0160369873046875,-1.005859375
1738773157812709000,12.161709228515624,-0.027984619140625,-0.01708984375,-1.006072998046875
1738773157822701000,12.171701171875,-0.0276641845703125,-0.0161895751953125,-1.0061492919921875
1738773157832692200,12.181692138671876,-0.0283660888671875,-0.0150146484375,-1.00537109375
1738773157842683100,12.19168310546875,-0.0271759033203125,-0.0174102783203125,-1.0055694580078125
1738773157852674000,12.201674072265625,-0.0279083251953125,-0.0165252685546875,-1.005523681640625
1738773157862665200,12.211665283203125,-0.029205322265625,-0.01641845703125,-1.0063323974609375
1738773157872656100,12.22165625,-0.0281219482421875,-0.0164031982421875,-1.0063018798828125
1738773157882647000,12.23164697265625,-0.0279388427734375,-0.0162353515625,-1.00457763671875
1738773157892639200,12.24163916015625,-0.0284881591796875,-0.0163116455078125,-1.005279541015625
1738773157902630100,12.251630126953126,-0.027435302734375,-0.0176544189453125,-1.0052337646484375
1738773157912621000,12.26162109375,-0.02886962890625,-0.0167694091796875,-1.0048065185546875
1738773157922612000,12.271612060546875,-0.028839111328125,-0.0164642333984375,-1.0055084228515625
1738773157932603100,12.28160302734375,-0.027313232421875,-0.01531982421875,-1.0063934326171875
1738773157942594000,12.291593994140625,-0.0283660888671875,-0.0158538818359375,-1.005218505859375
1738773157953210000,12.302210205078126,-0.0274505615234375,-0.0161895751953125,-1.0052642822265625
1738773157963201000,12.312200927734375,-0.0280914306640625,-0.0160369873046875,-1.00616455078125
1738773157973192000,12.32219189453125,-0.028167724609375,-0.01531982421875,-1.005126953125
1738773157983184100,12.33218408203125,-0.0289154052734375,-0.01568603515625,-1.004364013671875
1738773157993175000,12.342175048828125,-0.0285186767578125,-0.0164031982421875,-1.0059356689453125
1738773158003166000,12.352166015625,-0.0286407470703125,-0.016204833984375,-1.0057830810546875
1738773158013157000,12.3621572265625,-0.028656005859375,-0.0160675048828125,-1.0053253173828125
1738773158023148000,12.37214794921875,-0.0288238525390625,-0.0162353515625,-1.0063629150390625
1738773158033139000,12.382138916015625,-0.028045654296875,-0.0157470703125,-1.0060577392578125
1738773158043130000,12.392130126953125,-0.0277862548828125,-0.0159149169921875,-1.0056610107421875
1738773158053122000,12.4021220703125,-0.027252197265625,-0.01605224609375,-1.005615234375
1738773158063113000,12.412113037109375,-0.026947021484375,-0.0157928466796875,-1.0049896240234375
1738773158073104100,12.422104248046875,-0.0272064208984375,-0.016693115234375,-1.0063018798828125
1738773158083095000,12.432094970703124,-0.027252197265625,-0.016021728515625,-1.0059661865234375
1738773158093086000,12.4420859375,-0.02880859375,-0.015869140625,-1.0053253173828125
1738773158103077000,12.4520771484375,-0.0276947021484375,-0.0170440673828125,-1.0049591064453125
1738773158113069000,12.462069091796875,-0.0287017822265625,-0.016265869140625,-1.0045928955078125
1738773158123060000,12.47206005859375,-0.0288543701171875,-0.0155792236328125,-1.00714111328125
1738773158133051100,12.482051025390625,-0.0281829833984375,-0.0165863037109375,-1.0056304931640625
1738773158143042000,12.4920419921875,-0.0284423828125,-0.015594482421875,-1.0057220458984375
1738773158153033000,12.502032958984374,-0.02752685546875,-0.017303466796875,-1.0065155029296875
1738773158163024000,12.51202392578125,-0.02874755859375,-0.0164337158203125,-1.0065765380859375
1738773158173015000,12.52201513671875,-0.0274658203125,-0.0154876708984375,-1.00701904296875
1738773158183007000,12.532007080078126,-0.0296478271484375,-0.016357421875,-1.005279541015625
1738773158192998100,12.541998046875,-0.0293121337890625,-0.017059326171875,-1.007171630859375
1738773158202989000,12.551989013671875,-0.0278167724609375,-0.016998291015625,-1.005706787109375
1738773158212980000,12.56197998046875,-0.0279541015625,-0.0162353515625,-1.005035400390625
1738773158222971000,12.571970947265624,-0.028106689453125,-0.0166168212890625,-1.0051727294921875
1738773158232962000,12.581962158203124,-0.0276641845703125,-0.017181396484375,-1.0055999755859375
1738773158242954000,12.5919541015625,-0.0277252197265625,-0.016326904296875,-1.0055084228515625
1738773158252945200,12.601945068359376,-0.02679443359375,-0.016265869140625,-1.005767822265625
1738773158262936000,12.61193603515625,-0.028594970703125,-0.016510009765625,-1.006134033203125
1738773158272927000,12.621927001953125,-0.028717041015625,-0.016571044921875,-1.006195068359375
1738773158282918000,12.63191796875,-0.02862548828125,-0.0167999267578125,-1.004547119140625
1738773158292909000,12.641908935546875,-0.0283050537109375,-0.017059326171875,-1.0056304931640625
1738773158302900000,12.65189990234375,-0.02764892578125,-0.016998291015625,-1.005126953125
1738773158312892000,12.661891845703124,-0.0276641845703125,-0.0152130126953125,-1.0049285888671875
1738773158322883000,12.671883056640626,-0.0270233154296875,-0.01666259765625,-1.004547119140625
1738773158332874500,12.68187451171875,-0.0284271240234375,-0.016876220703125,-1.0056304931640625
1738773158342865400,12.691865478515625,-0.0273895263671875,-0.015899658203125,-1.0060272216796875
1738773158352856300,12.701856201171875,-0.0284881591796875,-0.0170135498046875,-1.006011962890625
1738773158362847200,12.71184716796875,-0.029144287109375,-0.0171051025390625,-1.0067901611328125
1738773158372839400,12.72183935546875,-0.028167724609375,-0.017059326171875,-1.0068511962890625
1738773158382830300,12.731830322265624,-0.0283050537109375,-0.0164031982421875,-1.0049896240234375
1738773158392821500,12.741821533203124,-0.0283050537109375,-0.016998291015625,-1.005615234375
