time,seconds_elapsed,z,y,x
1738773145682853400,0.031853271484375,-0.0007933794404380023,-0.0018484253669157624,0.001185222645290196
1738773145692844300,0.04184423828125,0.0003167911199852824,0.0009875474497675896,0.001756268204189837
1738773145702835500,0.05183544921875,-0.0006757689989171922,-0.000004480360075831413,-0.0019511182326823473
1738773145712826400,0.061826416015625,-0.0010503415251150727,-0.000544149661436677,0.0014766962267458439
1738773145722818300,0.071818359375,-0.0005659125745296478,0.0003876904956996441,0.0009640377829782665
1738773145732809500,0.0818095703125,-0.0009035046678036451,0.00024117273278534412,0.001098702079616487
1738773145742800400,0.09180029296875,-0.000020134146325290203,0.0012294717598706484,0.0025565163232386112
1738773145752791300,0.101791259765625,-0.0005377525230869651,-0.000821900088340044,-0.0020269269589334726
1738773145762782500,0.111782470703125,0.0003219158388674259,0.0004915709141641855,0.0008759185438975692
1738773145772773600,0.121773681640625,-0.00002074160147458315,-0.0008000172674655914,-0.0007553259492851794
1738773145782764500,0.1317646484375,0.00002399948425590992,0.0008524740114808083,0.0013416470028460026
1738773145792756500,0.141756591796875,-0.00046796532114967704,-0.00004483340308070183,0.0012695816112682223
1738773145802747400,0.151747314453125,0.000752028776332736,-0.000660556135699153,0.00006743078847648576
1738773145812738300,0.16173828125,-0.00021236937027424574,0.0008594540413469076,0.0013519051717594266
1738773145822729500,0.1717294921875,0.0007013612193986773,-0.0023083759006112814,-0.000006839669367764145
1738773145832720600,0.181720703125,-0.0012209248961880803,-0.0009978360030800104,-0.0002714565198402852
1738773145842711600,0.191711669921875,-0.00028269330505281687,0.0016440199688076973,0.0007828889647498727
1738773145852702500,0.201702392578125,0.0007953675230965018,-0.0012139554601162672,0.0006769713363610208
1738773145862693600,0.211693603515625,-0.00079906708560884,0.0011804928071796894,-0.0005566048203036189
1738773145872685300,0.221685302734375,0.0009474081452935934,0.0022992801386862993,0.001046847552061081
1738773145882676500,0.231676513671875,0.0005676414584740996,-0.0011934556532651186,0.0010151560418307781
1738773145892667600,0.241667724609375,-0.0010590532328933477,0.0009898901917040348,0.0021501369774341583
1738773145902658600,0.251658447265625,0.0012794684153050184,0.0005195760168135166,-0.0023538011591881514
1738773145912649500,0.2616494140625,0.002589571289718151,-0.0011434850748628378,-0.0010888595134019852
1738773145922640600,0.271640625,0.001317645306698978,0.000787040451541543,0.00041236437391489744
1738773145932631600,0.281631591796875,0.00029455835465341806,0.0004343385808169842,-0.0017313315765932202
1738773145942623500,0.29162353515625,0.0009209339041262865,0.0007326123304665089,-0.000003738969098776579
1738773145952614700,0.30161474609375,0.001285080797970295,0.0035628594923764467,-0.0009330458124168217
1738773145962605600,0.31160546875,0.0016504665836691856,0.0006957005243748426,0.00034287467133253813
1738773145972596500,0.321596435546875,-0.00019336969126015902,0.00066165323369205,-0.0008541173883713782
1738773145982587600,0.331587646484375,0.0012545910431072116,-0.0001175878569483757,0.00011314269795548171
1738773145992578600,0.34157861328125,0.0005991996731609106,-0.00019245222210884094,0.0017890859162434936
1738773146002569500,0.351569580078125,0.0016122660599648952,0.0005495043005794287,0.0003517779114190489
1738773146012560400,0.361560302734375,-0.00042214972199872136,-0.002349912654608488,0.00006348983151838183
1738773146022552600,0.371552490234375,0.001150180702097714,0.0012970203533768654,0.000587333575822413
1738773146032543500,0.38154345703125,0.0014271322870627046,0.0013789106160402298,-0.0005677515873685479
1738773146042534700,0.39153466796875,0.0018678853521123528,-0.004532508086413145,-0.002611461328342557
1738773146052525600,0.401525634765625,-0.00020380888599902391,0.00566709041595459,0.00034414121182635427
1738773146062516500,0.4115166015625,0.0012633264996111393,-0.0013037340249866247,-0.001489445217885077
1738773146072507400,0.42150732421875,0.00024754449259489775,-0.0011460862588137388,-0.0009994830470532179
1738773146082498600,0.43149853515625,-0.00021557917352765799,0.003618841525167227,0.0005515419761650264
1738773146092490500,0.441490478515625,0.0009393421933054924,-0.0034126215614378452,0.0006350529729388654
1738773146102481400,0.4514814453125,0.0006075123092159629,0.0022655040957033634,-0.00003739516978384927
1738773146112472600,0.46147265625,0.0006044539622962475,0.0016888107638806105,0.0006848183111287653
1738773146122463500,0.47146337890625,0.0004766222555190325,-0.0030865033622831106,-0.00161295710131526
1738773146132454400,0.481454345703125,0.0010010425467044115,0.003155704354867339,0.0017711370019242167
1738773146142445600,0.491445556640625,0.002829036209732294,-0.00020680250599980354,0.00019055088341701776
1738773146152436500,0.5014365234375,0.002566899172961712,-0.0011398405767977238,-0.0005231815157458186
1738773146162428400,0.511428466796875,0.0021346681751310825,0.002804567338898778,-0.00009547783702146262
1738773146172419600,0.521419677734375,0.0006735047791153193,-0.0013611684553325176,0.0000648750428808853
1738773146182410500,0.531410400390625,0.0015960237942636013,0.0007792138494551182,-0.00013273149670567364
1738773146192401400,0.5414013671875,0.0040713343769311905,0.000913877272978425,-0.0005117906257510185
1738773146202392600,0.551392578125,0.0007570303278043866,-0.0018235857132822275,-0.0020923768170177937
1738773146212383500,0.561383544921875,0.0009484355105087161,0.0010077522601932287,0.0025827873032540083
1738773146222374400,0.57137451171875,0.002271493896842003,0.0011547587346285582,0.00029380025807768106
1738773146232366600,0.58136669921875,0.0005471106851473451,-0.0005195408593863249,0.001160312443971634
1738773146242357500,0.591357421875,0.00048479274846613407,0.0019042021594941616,-0.0006671486189588904
1738773146252348400,0.601348388671875,0.0001254247035831213,-0.0012295215856283903,-0.0002580061263870448
1738773146262339600,0.611339599609375,0.0000849446514621377,0.0018240588251501322,0.0008309604600071907
1738773146272330500,0.62133056640625,-0.001886666868813336,0.001833918271586299,0.001903475378639996
1738773146282321400,0.6313212890625,0.00008513755165040493,0.001270393142476678,-0.000947438704315573
1738773146292312300,0.641312255859375,-0.00023285974748432636,0.001078024972230196,-0.00048164062900468707
1738773146302303500,0.651303466796875,-0.00041209044866263866,-0.0010309324134141207,-0.00082066108006984
1738773146312295400,0.66129541015625,-0.0013641652185469866,0.001146475551649928,0.0018250595312565565
1738773146322286800,0.671286865234375,-0.0005886527360416949,0.0009153133723884821,0.0003675115294754505
1738773146332277800,0.68127783203125,0.001681156805716455,-0.0018121236935257912,0.002880169777199626
1738773146342268700,0.6912685546875,0.0007567735156044364,0.0005761992651969194,-0.0012722309911623597
1738773146352259600,0.701259521484375,-0.000409606727771461,0.0013538985513150692,0.0004937202902510762
1738773146362250800,0.711250732421875,-0.0006021533044986427,-0.0003939338494092226,0.0013720308197662234
1738773146372241700,0.72124169921875,0.001987711526453495,0.0012888791970908642,-0.001268432242795825
1738773146382233600,0.731233642578125,0.0003093872219324112,-0.0006994367577135563,0.0012349390890449286
1738773146392224800,0.741224853515625,0.0003234682371839881,0.001001233235001564,-5.333422450348735e-7
1738773146402215700,0.751215576171875,0.0006568960379809141,-0.00017268816009163857,-0.00023861994850449264
1738773146412206600,0.76120654296875,0.002106714528053999,-0.0002413913607597351,0.0004566904390230775
1738773146422197800,0.77119775390625,0.00015461735893040895,0.0007256022654473782,0.00020741856133099645
1738773146432188700,0.781188720703125,-0.0015582932392135262,0.00022727972827851772,-0.0019691360648721457
1738773146442179600,0.7911796875,0.0004571870667859912,-0.00019376585260033607,-0.0017472946783527732
1738773146452171800,0.801171875,-0.00002516235690563917,0.0012485797051340342,0.0009682640084065497
1738773146462162700,0.81116259765625,0.0006302415858954191,0.0008163487073034048,0.000567458278965205
1738773146472153600,0.821153564453125,-0.0006004732567816973,0.0011253284756094217,-0.0008670646930113435
1738773146482144800,0.831144775390625,-0.0015304491389542818,0.0011341169010847807,0.00042696521268226206
1738773146492135700,0.8411357421875,-0.0017294792924076319,0.0006283910479396582,-0.0005309025873430073
1738773146502126600,0.851126708984375,-0.000014936202205717564,-0.0011972060892730951,0.0004009374533779919
1738773146512117500,0.861117431640625,0.0005410218145698309,0.0009526382200419903,-0.0014476259239017963
1738773146522108700,0.871108642578125,-0.00037244241684675217,0.00038831448182463646,0.000014449527952820063
1738773146532100600,0.8811005859375,-0.0006090168026275933,-0.00028246245346963406,0.0013753400417044759
1738773146542091800,0.891091796875,0.0002770168939605355,0.0005186162889003754,-0.00028034712886437774
1738773146552082700,0.901082763671875,0.0005267760716378689,0.00016034115105867386,-0.0013515203027054667
1738773146562073600,0.911073486328125,0.0002455462235957384,0.0006863155867904425,-0.0006998447934165597
1738773146572064500,0.921064453125,0.000930457841604948,0.0005825862754136324,0.0007146805291995406
1738773146582055700,0.9310556640625,-0.0004690332571044564,0.00018470990471541882,-0.000027542468160390854
1738773146592046800,0.941046875,-0.001168757095001638,0.0005688101518899202,-0.0016026749508455396
1738773146602038500,0.95103857421875,-0.0025823628529906273,0.0009725454729050398,0.00008257338777184486
1738773146612029700,0.96102978515625,-0.0004495498724281788,-0.0010354937985539436,0.0004206328885629773
1738773146622020600,0.9710205078125,-0.0003408929333090782,0.0004537459462881088,0.0002336790057597682
1738773146632011800,0.98101171875,0.0016892742132768035,0.0008704641368240118,0.00045037007657811046
1738773146642003000,0.9910029296875,-0.00007400475442409515,-0.0022017585579305887,0.00023705091734882444
1738773146651993900,1.000993896484375,-0.0007621209952048957,0.0012697551865130663,0.0006845126627013087
1738773146661984800,1.01098486328125,-0.0020079477690160275,0.00048332405276596546,-0.0016478837933391333
1738773146671976000,1.020975830078125,-0.0010076311882585287,-0.0006196931935846806,-0.00019035435980185866
1738773146681967600,1.030967529296875,-0.0007687456090934575,0.0004943071398884058,0.0024693445302546024
1738773146691958800,1.040958740234375,-0.00012352736666798592,-0.00016535772010684013,0.00033738839556463063
1738773146701950000,1.050949951171875,-0.001096380059607327,-0.0007810804527252913,-0.001290335669182241
1738773146711940900,1.06094091796875,0.0009358341339975595,-0.00044859573245048523,0.0008590632351115346
1738773146721931800,1.070931884765625,-0.000993626075796783,0.00023956503719091415,0.0011067372979596257
1738773146731922700,1.080922607421875,0.0002975389361381531,-0.0003460529260337353,-0.0003369037585798651
1738773146741913900,1.090913818359375,-0.00037890393286943436,0.0007746051996946335,0.00026390538550913334
1738773146751905800,1.10090576171875,-0.00046828773338347673,-0.00043433974497020245,0.000694428919814527
1738773146761897000,1.11089697265625,0.00040336488746106625,-0.000834612874314189,-0.0007921475917100906
1738773146771887900,1.120887939453125,0.0009096311405301094,-0.0009201504290103912,-0.000428131315857172
1738773146781878800,1.130878662109375,-0.0002222124021500349,0.0008963916916400194,-0.0008430518209934235
1738773146791869700,1.14086962890625,-0.0005307053215801716,-0.0004158206284046173,0.00030089018400758505
1738773146801860900,1.15086083984375,-0.0005216505378484726,0.00039511173963546753,0.0009480383014306426
1738773146811851800,1.160851806640625,-0.0011215986451134086,0.0019473419524729252,-0.0002678798628039658
1738773146821842700,1.1708427734375,-0.0012230650754645467,-0.000052691902965307236,-0.0016679036198183894
1738773146831835000,1.1808349609375,0.00035870540887117386,0.0016361128073185682,0.00023412989685311913
1738773146841825800,1.19082568359375,-0.000943846651352942,-0.00002436828799545765,0.00121577107347548
1738773146851816700,1.200816650390625,0.00037581834476441145,-0.0015994342975318432,-0.0008446610881946981
1738773146861807900,1.210807861328125,-0.0005184711189940572,0.001413932302966714,0.0023306256625801325
1738773146871798800,1.220798828125,-0.00036977650597691536,0.0005078325048089027,0.0005105136660858989
1738773146881789700,1.230789794921875,-0.0012030795915052295,-0.0008716851007193327,0.00026576913660392165
1738773146891780600,1.240780517578125,-0.0001827687956392765,0.000736673828214407,0.0011153488885611296
1738773146901772800,1.250772705078125,-0.00013216875959187746,0.0017161844298243523,-0.001453802571631968
1738773146911763700,1.260763671875,-0.0007499243365600705,-0.0004481927026063204,0.0005337282782420516
1738773146921755000,1.2707548828125,-0.00010783621110022068,0.0015502432361245155,-0.000162954704137519
1738773146931745800,1.280745849609375,0.00009642494842410088,-0.00044767954386770725,-0.0002983931335620582
1738773146941736700,1.29073681640625,-0.0008069192990660667,-0.0005544724408537149,0.0005591447115875781
1738773146951727600,1.3007275390625,-0.00009504996705800295,0.0007204886060208082,-0.0005062096752226353
1738773146961718800,1.31071875,-0.0005696252337656915,-0.002453999128192663,0.00024853015202097595
1738773146971709700,1.320709716796875,0.00042104581370949745,0.0002191942185163498,0.001283235615119338
1738773146981702000,1.330701904296875,-0.0007062702206894755,0.00178460031747818,0.00047070521395653486
1738773146991692800,1.34069287109375,0.0012313313782215118,0.0003664088435471058,0.0018768880981951952
1738773147001683700,1.35068359375,0.00007924775127321482,-0.000493259634822607,0.00093892274890095
1738773147011674600,1.360674560546875,0.00046158558689057827,-0.0000779277179390192,0.0011666400823742151
1738773147021665800,1.370665771484375,-0.0006622683722525835,-0.0009232149459421635,-0.0005412451573647559
1738773147031656700,1.38065673828125,-0.00039499648846685886,0.00028785038739442825,0.0015771100297570229
1738773147041647600,1.390647705078125,-0.0008591854711994529,-0.0014416063204407692,0.0013515402097254992
1738773147051638800,1.400638671875,0.00036451779305934906,-0.00037892325781285763,0.000028108035621698946
1738773147061630700,1.410630615234375,-0.0010187281295657158,-0.001349112717434764,-0.00103103113360703
1738773147071621600,1.42062158203125,-0.000750237493775785,0.0007667993195354939,-0.00034479773603379726
1738773147081612800,1.43061279296875,-0.0020639747381210327,-0.00009899423457682133,0.000991576467640698
1738773147091603700,1.440603759765625,-0.00018723111134022474,0.00020724954083561897,0.0011129482882097363
1738773147101594600,1.4505947265625,0.0019081440987065434,0.0006256317719817162,0.0012479705037549138
1738773147111585500,1.46058544921875,0.0008235059212893248,-0.0026994789950549603,-0.0004492441948968917
1738773147121576700,1.47057666015625,0.0006493350956588984,-0.0005095615051686764,0.00147568853572011
1738773147131568600,1.480568603515625,-0.001030479557812214,-0.0006841535214334726,0.0006877154228277504
1738773147141559800,1.490559814453125,0.0014031169703230262,-0.0008183768950402737,0.0011926507577300072
1738773147151550700,1.50055078125,0.000043164356611669064,0.0010350337252020836,0.000015490084479097277
1738773147161541600,1.510541748046875,-0.00036669615656137466,-0.0013399734161794186,-0.000892647891305387
1738773147171532500,1.520532470703125,-0.001096915453672409,0.00014363788068294525,-0.00020896171918138862
1738773147181523700,1.530523681640625,-0.0021342167165130377,-0.0013261607382446527,-0.0003503755433484912
1738773147191514600,1.5405146484375,0.0008673460688441992,-0.0016888496465981007,0.000299999606795609
1738773147201505500,1.550505615234375,0.00027346110437065363,0.00018974440172314644,0.0005444777780212462
1738773147211497700,1.560497802734375,0.0007640905678272247,-0.001678659813478589,0.0008507088059559464
1738773147221488600,1.570488525390625,0.0004884533118456602,-0.0003369592595845461,-0.00022973564045969397
1738773147231479600,1.5804794921875,-0.00029332051053643227,-0.0003584690857678652,0.0011139961425215006
1738773147241470700,1.590470703125,-0.0006528472295030951,0.0011076009832322598,0.00023994666116777807
1738773147251461600,1.600461669921875,-0.00020197918638586998,0.0004746769554913044,-0.00033025845186784863
1738773147261452800,1.610452880859375,0.0006797935348004103,0.00022993236780166626,-0.00042400171514600515
1738773147271444000,1.62044384765625,-0.0007438714383170009,0.0015166965313255787,0.0010393961565569043
1738773147281435000,1.630434814453125,0.000556017505005002,-0.0018162496853619814,-0.0005731478449888527
1738773147291426600,1.640426513671875,-0.001178152160719037,0.0003078714944422245,0.0005228135269135237
1738773147301417700,1.650417724609375,-0.000050303409807384014,0.0008064154535531998,-0.0005602940218523145
1738773147311408600,1.66040869140625,0.00042491673957556486,-0.0018665329553186893,-0.00021101170568726957
1738773147321399800,1.67039990234375,0.0003367661265656352,0.0005894340574741364,0.001600470393896103
1738773147331391000,1.680390869140625,-0.00011796364560723305,0.0004707612097263336,-0.0013331057270988822
1738773147341382000,1.6903818359375,0.0018288070568814874,-0.0004360449966043234,-0.00024174238205887377
1738773147351372800,1.700372802734375,0.0002994489623233676,0.001332659274339676,-0.0016744387103244662
1738773147361364000,1.710364013671875,-0.0006981711485423148,-0.0018173276912420988,0.0005871176836080849
1738773147371355600,1.720355712890625,-0.0000023132888600230217,-0.00032960367389023304,0.001387053169310093
1738773147381346800,1.730346923828125,-0.0008369479328393936,0.0012672278098762035,0.00135402986779809
1738773147391338000,1.740337890625,0.0004289671778678894,0.0003558862954378128,-0.0002451035543344915
1738773147401329000,1.750328857421875,-0.0017817227635532618,-0.00012508057989180088,-0.00041661111754365265
1738773147411319800,1.76031982421875,-0.0004670730559155345,0.00017822766676545143,-0.00012663645611610264
1738773147421311000,1.77031103515625,0.0013747690245509148,-0.0027632336132228374,-0.00047524424735456705
1738773147431302000,1.780302001953125,0.0002617691643536091,0.000834885984659195,-0.0009529089438728988
1738773147441293800,1.7902939453125,-0.00011267117224633694,-0.00025141751393675804,0.000694522459525615
1738773147451285000,1.800284912109375,0.0010548593709245324,-0.0002905523870140314,-0.0004248888581059873
1738773147461276000,1.81027587890625,0.0013882872881367803,0.0007582004182040691,0.0011628877837210894
1738773147471266800,1.820266845703125,0.000793788000009954,0.0017828638665378094,0.0012405035085976124
1738773147481258000,1.830258056640625,0.0004979108925908804,-0.000347398454323411,-0.000807200965937227
1738773147491249000,1.840248779296875,-0.0010029533877968788,0.001776568591594696,0.000397578434785828
1738773147501239800,1.85023974609375,-0.00008442916441708803,0.00023699505254626274,0.0007903947262093425
1738773147511230700,1.860230712890625,0.0016588792204856873,-0.001763341249898076,-0.0007606223225593567
1738773147521223000,1.870222900390625,-0.0000609902199357748,0.0015219342894852161,-0.00012625734962057322
1738773147531213800,1.8802138671875,-0.0011390810832381248,-0.0009184735827147961,-0.00023122975835576653
1738773147541205000,1.890205078125,0.0012383228167891502,0.0002144351601600647,-0.0011146003380417824
1738773147551196000,1.90019580078125,-0.00041822774801403284,0.0006793215870857239,0.00038495834451168776
1738773147561186800,1.910186767578125,-0.0011492654448375106,-0.0006021917797625065,-0.00019401290046516806
1738773147571177700,1.920177734375,-0.00048728263936936855,0.0008088639006018639,0.0005968993064016104
1738773147581169000,1.9301689453125,-0.0007240376435220242,-0.001499830512329936,0.0012749400921165943
1738773147591159800,1.940159912109375,-0.0008918448002077639,0.0009771548211574554,-0.0008476837538182735
1738773147601151700,1.95015185546875,0.000016559497453272343,0.00056835962459445,0.0007805729401297867
1738773147611143000,1.960142822265625,0.0014551710337400436,0.0011594495736062527,0.001482265768572688
1738773147621133800,1.9701337890625,-0.00009185925591737032,-0.00002911919727921486,0.0006761268596164882
1738773147631124700,1.980124755859375,0.00019372848328202963,-0.00023733265697956085,0.0011484271381050348
1738773147641116000,1.990115966796875,-0.0005546198226511478,-0.0005238887388259172,0.0002802365634124726
1738773147651106800,2.00010693359375,0.0003695324994623661,-0.0011733199935406446,0.0009220080683007836
1738773147661097700,2.01009765625,0.0022060482297092676,-0.0004020684864372015,-0.0004359377780929208
1738773147671089000,2.0200888671875,0.0004377064760774374,0.0009152302518486977,-0.00036269071279093623
1738773147681080800,2.030080810546875,-0.0003330123145133257,-0.0009260789956897497,-0.00043752556666731834
1738773147691071700,2.04007177734375,0.0006171173881739378,0.0007492597214877605,0.000025791407097131014
1738773147701063000,2.05006298828125,-0.0006382967694662511,0.0005575120449066162,0.00041194973164238036
1738773147711053800,2.0600537109375,0.0008201827295124531,-0.00007829908281564713,-0.00015481012815143913
1738773147721044700,2.070044677734375,0.0025419164448976517,0.0006391564384102821,0.0006369476323015988
1738773147731035600,2.08003564453125,-0.001661008456721902,-0.00015475274994969368,0.00013087244587950408
1738773147741026800,2.09002685546875,-0.0007885568193159997,0.0005280817858874798,-0.0001647384196985513
1738773147751017700,2.100017822265625,0.00047492270823568106,-0.0007500490173697472,-0.00022337972768582404
1738773147761010000,2.110010009765625,0.0000972864218056202,-0.0012613758444786072,-0.00010833117994479835
1738773147771000800,2.120000732421875,0.0003415277460590005,0.0004397118464112282,-0.000008987990440800786
1738773147780991700,2.12999169921875,0.0003420603461563587,-0.002153940498828888,-0.001272391527891159
1738773147790982700,2.139982666015625,-0.0005081608542241156,-0.00039144186303019524,-0.001239481964148581
1738773147800973800,2.149973876953125,0.0017840219661593437,0.0007467931136488914,0.0006218012422323227
1738773147810964700,2.15996484375,0.000943085877224803,-0.0013664832804352045,-0.0002617437276057899
1738773147820955600,2.16995556640625,0.0012983516789972782,0.000010903459042310715,-0.0002750595158431679
1738773147830946800,2.17994677734375,-0.0013354925904422998,-0.0007792010437697172,0.0004178951494395733
1738773147840938800,2.189938720703125,-0.000696067581884563,0.00036728987470269203,-0.0006457713898271322
1738773147850929700,2.1999296875,0.0011649025836959481,-0.0013708616606891155,0.0000863668683450669
1738773147860920800,2.2099208984375,0.00041309231892228127,0.00039561325684189796,0.0014557642862200737
1738773147870911700,2.219911865234375,-0.00027808884624391794,0.00039876019582152367,-0.0002850243472494185
1738773147880902700,2.229902587890625,0.0005634700646623969,-0.00004465598613023758,0.0012281837407499552
1738773147890893800,2.239893798828125,0.001948838704265654,0.0009804368019104004,-0.00036683178041130304
1738773147900885000,2.249885009765625,-0.0022951746359467506,0.00010825181379914284,0.0004957661149092019
1738773147910876000,2.2598759765625,0.0004918358754366636,0.000574769452214241,0.0013151410967111588
1738773147920867800,2.269867919921875,-0.0001579754170961678,-0.00035653775557875633,-0.001254276605322957
1738773147930858800,2.279858642578125,0.0010082301450893283,-0.0011745952069759369,-0.0008157400880008936
1738773147940849700,2.289849609375,0.00040182832162827253,0.0009596622548997402,-0.00012012240767944604
1738773147950840800,2.2998408203125,0.0007340909214690328,-0.0018813242204487324,0.0003361102135386318
1738773147960832000,2.30983203125,0.0011937525123357773,0.0021094228141009808,-0.00013793243851978332
1738773147970823000,2.319822998046875,-0.00029023189563304186,-0.0004384273197501898,-0.0005928226746618748
1738773147980813800,2.329813720703125,0.0006530596874654293,0.0009200512431561947,0.0016170684248209
1738773147990805800,2.3398056640625,0.0010912109864875674,0.00032738596200942993,0.00023538799723610282
1738773148000796700,2.349796630859375,0.0008704349165782332,-0.0007450687699019909,-0.00002320494968444109
1738773148010787800,2.359787841796875,-0.00030998518923297524,0.0008640093728899956,-0.0003929008380509913
1738773148020779000,2.369779052734375,0.0014181400183588266,0.0003337739035487175,0.0009155102306976914
1738773148030770000,2.37977001953125,-0.0005150501965545118,-0.00033282674849033356,-0.0005949921323917806
1738773148040760800,2.3897607421875,-0.00020479195518419147,0.00021365401335060596,0.0010780056472867727
1738773148050752000,2.399751953125,-0.0023942538537085056,-0.0022166292183101177,0.00028983206721022725
1738773148060743000,2.409742919921875,0.00037277035880833864,0.00028594350442290306,-0.0007583881379105151
1738773148070733800,2.41973388671875,0.002284036949276924,0.0008368298877030611,-0.0009230520226992667
1738773148080726000,2.42972607421875,0.0016589929582551122,-0.00007690046913921833,0.00038669060450047255
1738773148090717000,2.439717041015625,0.00045005965512245893,-0.0011216518469154835,0.00030375071219168603
1738773148100707800,2.449707763671875,0.001455935649573803,0.001025388715788722,-0.0002552467631176114
1738773148110698800,2.45969873046875,-0.0007097937050275505,0.00006086379289627075,0.00038931594463065267
1738773148120690000,2.46968994140625,0.0011570821516215801,-0.001518390839919448,-0.00029405116220004857
1738773148130680800,2.479680908203125,0.0011686054058372974,0.0005756902974098921,0.00037810555659234524
1738773148140671700,2.489671630859375,0.00035021593794226646,-0.000852562952786684,-0.0006022040033712983
1738773148150663000,2.499662841796875,-0.0010549938306212425,0.00018729385919868946,-0.0015151568222790956
1738773148160654800,2.50965478515625,0.0007077525369822979,0.001418207073584199,0.0012747707078233361
1738773148170645800,2.519645751953125,-0.00010730826761573553,-0.0007572108879685402,0.0005465692956931889
1738773148180637000,2.529636962890625,0.000005077221430838108,0.0005509336479008198,-0.0011136452667415142
1738773148190627800,2.5396279296875,0.003260527504608035,0.0005750302225351334,0.00029577937675639987
1738773148200618800,2.54961865234375,0.00005887518636882305,-0.0000031418167054653168,-0.00005549157503992319
1738773148210610000,2.55960986328125,0.0010847420198842883,0.00033084582537412643,0.0010669498005881906
1738773148220600800,2.569600830078125,0.0004711496876552701,-0.0004981961101293564,0.00007598759839311242
1738773148230592800,2.5795927734375,0.00015815836377441883,-0.00008662743493914604,-0.00012313429033383727
1738773148240584000,2.589583984375,0.0012479238212108612,-0.0009156693704426289,-0.0010520449141040444
1738773148250574800,2.599574951171875,0.00037361751310527325,0.0016256726812571287,0.000014801364159211516
1738773148260565800,2.609565673828125,0.0019115930190309882,-0.0008188427891582251,0.0003671375452540815
1738773148270557000,2.619556884765625,-0.00029096234356984496,0.00010429485701024532,-0.0002508256584405899
1738773148280547800,2.6295478515625,0.002139971125870943,0.0011621026787906885,0.0002722191857174039
1738773148290538800,2.639538818359375,-0.0001275425311177969,-0.0015944677870720625,0.00028531497810035944
1738773148300529700,2.64952978515625,-0.0005757525213994086,0.0016234295908361673,0.0003886456252075732
1738773148310520800,2.659520751953125,0.00031824479810893536,0.0010254690423607826,-0.00033908241312019527
1738773148320512500,2.669512451171875,0.000343811116181314,-0.0008693698327988386,-0.0009103304473683238
1738773148330503700,2.679503662109375,0.00046456593554466963,-0.000979035859927535,0.0006149084074422717
1738773148340494600,2.68949462890625,0.002167391125112772,-0.0007737062405794859,-0.0007169384625740349
1738773148350485500,2.699485595703125,0.00068497727625072,0.0014167281333357096,0.00013609981397166848
1738773148360476400,2.709476318359375,-0.0018687278497964144,0.00038288929499685764,0.00001439332845620811
1738773148370467600,2.719467529296875,0.0009590530535206199,-0.001269215950742364,-0.000013924145605415106
1738773148380458500,2.72945849609375,-0.0009616186143830419,0.000516433734446764,-0.00018037170229945332
1738773148390449400,2.739449462890625,0.00007990177255123854,-0.00001820712350308895,-0.0012132989941164851
1738773148400441600,2.749441650390625,0.00020320608746260405,-0.00008984608575701714,0.0008615698316134512
1738773148410432500,2.7594326171875,-0.00004056212492287159,0.0002613295800983906,-0.0006580909248441458
1738773148420423400,2.76942333984375,-0.00020860752556473017,0.00036785611882805824,-0.0001939019130077213
1738773148430414600,2.77941455078125,-0.000687858322635293,-0.0006092633120715618,0.0001310641528107226
1738773148440405500,2.789405517578125,0.0009217561455443501,0.0008088699541985989,0.0015731658786535263
1738773148450396400,2.799396484375,0.00035451550502330065,0.0016016189474612474,0.00026796318707056344
1738773148460387600,2.8093876953125,-0.00018557353178039193,-0.00018189987167716026,0.00073481525760144
1738773148470379500,2.819379638671875,0.0006786693120375276,0.000603128457441926,0.0002145384787581861
1738773148480370400,2.829370361328125,0.0004935795441269875,0.0015528115909546614,-0.00018893044034484774
1738773148490361600,2.839361572265625,-0.00039563787868246436,0.00047472422011196613,-0.0010934663005173206
1738773148500352500,2.8493525390625,0.0005702907219529152,0.0004211945924907923,-0.0009174313163384795
1738773148510343400,2.859343505859375,-0.0014200415462255478,0.000025674235075712204,0.0010911555727943778
1738773148520334800,2.8693349609375,0.00005641498137265444,-0.0004305252805352211,0.0008996742544695735
1738773148530325800,2.87932568359375,0.001255327370017767,-0.00048619811423122883,0.0007222658605314791
1738773148540316700,2.889316650390625,0.0005940644768998027,-0.001250791596248746,0.000754490087274462
1738773148550307600,2.8993076171875,-0.00007825344800949097,-0.0004262614529579878,-0.0001579242671141401
1738773148560299500,2.909299560546875,0.00024771748576313257,0.0004784143529832363,0.0006764440913684666
1738773148570290700,2.919290771484375,-0.0019878915045410395,0.00023052003234624863,0.0003657618071883917
1738773148580281600,2.929281494140625,-0.0007686963072046638,-0.002277644816786051,0.0005537809920497239
1738773148590272800,2.939272705078125,-0.0016077258624136448,0.0009201099164783955,0.0018335625063627958
1738773148600263700,2.949263671875,0.0005204060580581427,-0.0002625999040901661,0.00010250773630104959
1738773148610254600,2.959254638671875,0.00007690361235290766,-0.00005847681313753128,0.0002651170070748776
1738773148620245800,2.969245849609375,0.0018476394470781088,0.0007247587200254202,-0.0006315693026408553
1738773148630236700,2.979236572265625,0.0004786065546795726,0.0002040569670498371,0.0004914493765681982
1738773148640228600,2.989228515625,-0.0006780042895115912,-0.0011213982943445444,-0.000019611208699643612
1738773148650219800,2.9992197265625,0.00030461419373750687,-0.00014904513955116272,-0.0005989593919366598
1738773148660210700,3.009210693359375,0.0019725519232451916,0.0011963837314397097,0.0006652431329712272
1738773148670201600,3.01920166015625,-0.0008946441812440753,-0.0012918701395392418,0.0005435573402792215
1738773148680192800,3.02919287109375,-0.00007385795470327139,0.0020474675111472607,0.0006412953371182084
1738773148690183700,3.03918359375,0.00045317632611840963,0.000820196932181716,0.0005024585407227278
1738773148700174600,3.049174560546875,0.0009802158456295729,0.0017855928745120764,-0.001549773383885622
1738773148710165500,3.05916552734375,-0.0013765859184786677,0.000638746889308095,-0.0006298156222328544
1738773148720157700,3.06915771484375,0.0007384965429082513,-0.0005530174821615219,-0.0010537909111008048
1738773148730148600,3.079148681640625,0.0013723978772759438,-0.0010716631077229977,-0.0008374262833967805
1738773148740139800,3.089139892578125,0.0006096685538068414,0.0004319576546549797,0.0013634100323542953
1738773148750130700,3.099130615234375,-0.00019435602007433772,-0.0004772162064909935,-0.00036327471025288105
1738773148760121600,3.10912158203125,0.0001595780486240983,0.0013457173481583595,-0.0015901930164545774
1738773148770112500,3.119112548828125,0.002328662434592843,0.0004541110247373581,-0.00043766407179646194
1738773148780103700,3.129103759765625,0.0007797678699716926,-0.0008021022658795118,-0.0014946727314963937
1738773148790094600,3.139094482421875,-0.0006375389639288187,0.00013805530034005642,0.0006942205945961177
1738773148800086500,3.14908642578125,-0.00010890146950259805,-0.0002062914427369833,-0.001292231259867549
1738773148810077700,3.15907763671875,0.0009883393067866564,-0.0006945272907614708,-0.0008017546497285366
1738773148820068600,3.169068603515625,-0.00001993332989513874,0.00007193046621978283,-0.0002768456470221281
1738773148830059500,3.1790595703125,0.00010912632569670677,0.0007310796063393354,-0.00026404435629956424
1738773148840050700,3.18905078125,-0.00017769617261365056,0.0006924637127667665,-0.0012661919463425875
1738773148850041600,3.19904150390625,-0.00007988361176103354,0.0005977028049528599,-0.0004855901934206486
1738773148860032500,3.209032470703125,0.0005491550546139479,-0.0005586417391896248,0.0016891472041606903
1738773148870023400,3.2190234375,-0.00015284668188542128,0.0005176377017050982,-0.0006071415264159441
1738773148880015600,3.229015625,-0.00007641396950930357,0.0003991269040852785,-0.00011605459440033883
1738773148890006500,3.239006591796875,0.0005149830831214786,-0.00005484023131430149,-0.001607535406947136
1738773148899997700,3.248997802734375,0.0006036662962287664,0.00031853513792157173,0.0004484249511733651
1738773148909988600,3.258988525390625,0.0009401183342561126,0.00014900043606758118,-0.0005634783301502466
1738773148919979500,3.2689794921875,0.0011885912390425801,0.00023502064868807793,-0.0010396515717729926
1738773148929970400,3.278970458984375,0.001650988357141614,0.00016329833306372166,0.000719886040315032
1738773148939961600,3.288961669921875,-0.0004896604223176837,0.00031296792440116405,0.000981674762442708
1738773148949952500,3.298952392578125,0.0007052978035062551,-0.00014541368000209332,0.0014504941646009684
1738773148959944700,3.30894482421875,0.0011159571586176753,-0.001405887771397829,-0.0006704473053105175
1738773148969935600,3.318935546875,0.0010232629720121622,-0.0007719206623733044,-0.000199441536096856
1738773148979926500,3.328926513671875,-0.000034278316888958216,0.00033142673783004284,-0.001349394442513585
1738773148989917400,3.33891748046875,-0.0000989033724181354,-0.000397747615352273,-0.000036088182241655886
1738773148999908600,3.34890869140625,0.0009170925477519631,0.000542348250746727,-0.0005119950510561466
1738773149009899500,3.3588994140625,-0.0000731881009414792,-0.0010834019631147385,-0.00023319016327150166
1738773149019890400,3.368890380859375,0.00013347319327294827,0.0003834674134850502,-0.0009421236463822424
1738773149029881600,3.378881591796875,-0.0015503102913498878,-0.00018890248611569405,0.0003916817076969892
1738773149039873500,3.38887353515625,0.0017267093062400818,-0.00009808852337300777,-0.0005566699546761811
1738773149049864400,3.398864501953125,-0.0007316622650250793,-0.0016002370975911617,0.0008214106783270836
1738773149059855600,3.408855712890625,0.00015730084851384163,-0.00167187605984509,0.0001401740883011371
1738773149069846500,3.418846435546875,0.0014639629516750574,0.001049835467711091,0.0004047119873575866
1738773149079837400,3.42883740234375,-0.000494525651447475,0.0003326463047415018,-0.00044350477401167154
1738773149089828600,3.43882861328125,0.0005254800198599696,-0.0009816484525799751,-0.0001286371989408508
1738773149099819800,3.44881982421875,-0.0013603043043985963,-0.0002151906955987215,0.0005507352179847658
1738773149109810700,3.458810791015625,0.000027415924705564976,0.0008712806738913059,-0.0013703096192330122
1738773149119802600,3.468802734375,0.0013771059457212687,0.0002795262262225151,0.0009018993587233126
1738773149129793500,3.47879345703125,0.0018133657285943627,0.0005833993200212717,-0.0002885876165237278
1738773149139784400,3.488784423828125,0.0016397276194766164,-0.0010925282258540392,-0.0006723491242155433
1738773149149775600,3.498775634765625,-0.0013813992263749242,-0.0007449155673384666,-0.00046542834024876356
1738773149159766800,3.508766845703125,-0.00048737606266513467,0.0010436633601784706,0.001719162566587329
1738773149169757700,3.5187578125,-0.00030562281608581543,-0.0008570307400077581,0.0006343327113427222
1738773149179748600,3.52874853515625,-0.00001746881753206253,0.00044765183702111244,-0.0015539868036285043
1738773149189739800,3.53873974609375,0.0008191490778699517,0.00048431637696921825,-0.0013064872473478317
1738773149199731700,3.548731689453125,0.000468677026219666,0.00018284632824361324,-0.0006007496267557144
1738773149209722600,3.55872265625,0.0007095576729625463,-0.0022255275398492813,-0.0008689833339303732
1738773149219713800,3.5687138671875,0.0024438081309199333,0.00023470050655305386,-0.0005270334077067673
1738773149229704700,3.57870458984375,0.0008254316635429859,0.0005436376668512821,0.0009194789454340935
1738773149239695600,3.588695556640625,0.00027202675119042397,-0.00037408736534416676,-0.0006065123016014695
1738773149249686800,3.598686767578125,-0.0009183120564557612,-0.0002546408213675022,0.0016570473089814186
1738773149259677700,3.608677734375,0.0006787856109440327,-0.00035956944338977337,0.0012818078976124525
1738773149269668600,3.618668701171875,0.0002965544117614627,-0.000888174632564187,-0.0010483656078577042
1738773149279659500,3.628659423828125,0.0007743255700916052,-0.00033823191188275814,-0.0012901806039735675
1738773149289651700,3.638651611328125,-0.00006543827475979924,0.0012201238423585892,0.00010586154530756176
1738773149299642600,3.648642578125,0.0003116653533652425,0.00010505830869078636,-0.000930374430026859
1738773149309633500,3.658633544921875,0.0008032462792471051,-0.0012717461213469505,-0.00047142713447101414
1738773149319624700,3.668624755859375,-0.00040955719305202365,0.001234021969139576,0.00003643767558969557
1738773149329616000,3.678615966796875,0.00013256387319415808,-0.0005508845206350088,-0.0011591813527047634
1738773149339606800,3.688606689453125,0.001963753253221512,-0.000494425417855382,-0.0017416146583855152
1738773149349597700,3.69859765625,0.00016955891624093056,0.0022241943515837193,-0.0016924126539379358
1738773149359588600,3.708588623046875,-0.00018144567729905248,-0.00038357311859726906,0.00035342772025614977
1738773149369580800,3.718580810546875,-0.00019180495291948318,-0.0009223776869475842,0.0010307804914191365
1738773149379571700,3.72857177734375,0.00021299556829035282,0.00045687356032431126,-0.000767918536439538
1738773149389563000,3.73856298828125,0.0010448956163600087,-0.0011083197314292192,-0.0012719584628939629
1738773149399553800,3.7485537109375,0.0015793921193107963,0.000028317328542470932,0.0007286081090569496
1738773149409544700,3.758544677734375,0.0006809969199821353,0.00008052145130932331,-0.00029043160611763597
1738773149419535600,3.76853564453125,0.0004285292234271765,0.0004858544562011957,0.0000632361916359514
1738773149429526800,3.77852685546875,0.0010351139353588223,-0.0005788505077362061,-0.00017520856636110693
1738773149439517700,3.788517578125,-0.00041311304084956646,0.001146877883002162,0.0019313518423587084
1738773149449508600,3.798508544921875,0.0015859234845265746,-0.00180096086114645,0.00042789665167219937
1738773149459500800,3.808500732421875,-0.0011110597988590598,0.000545816496014595,-0.001026721904054284
1738773149469491700,3.81849169921875,-0.00004097260534763336,0.0011122736614197493,0.00019547287956811488
1738773149479482600,3.828482666015625,-0.00016880437033250928,-0.0009314361959695816,0.0007568671717308462
1738773149489473800,3.838473876953125,0.0008461517281830311,0.0008307206444442272,0.001557468785904348
1738773149499464700,3.848464599609375,0.0008323031943291426,0.00017318641766905785,-0.000288101815385744
1738773149509455600,3.85845556640625,0.0018892060033977032,-0.0009347919840365648,-0.0001323820324614644
1738773149519446800,3.86844677734375,0.0000976974843069911,0.00035391165874898434,-0.00010308725177310407
1738773149529438700,3.878438720703125,0.0003393542720004916,-0.0004873853176832199,0.000013984768884256482
1738773149539429600,3.8884296875,0.00007037504110485315,0.00018453015945851803,0.0015322528779506683
1738773149549420800,3.8984208984375,0.0021322201937437057,-0.0007260625716298819,-0.0020252107642591
1738773149559411700,3.90841162109375,0.0005495036020874977,0.00017435243353247643,0.0019207948353141546
1738773149569402600,3.918402587890625,-0.0015324191190302372,-0.0013698677066713572,-0.0005637163994833827
1738773149579393500,3.9283935546875,0.0005355254979804158,0.0004272335208952427,0.0002038066159002483
1738773149593755600,3.942755615234375,-0.00047466380055993795,0.00028986972756683826,-0.0009614037116989493
1738773149603746600,3.95274658203125,-0.00008637493010610342,0.00023713917471468449,0.0006961477338336408
1738773149613737700,3.96273779296875,0.000029394286684691906,0.00026980298571288586,-0.00008804963727016002
1738773149623729700,3.972729736328125,0.0005734781734645367,-0.0010045194067060947,-0.0006816682289354503
1738773149633720600,3.982720458984375,0.00020932231564074755,0.0011958666145801544,0.000765247386880219
1738773149643711700,3.992711669921875,-0.00013981811935082078,-0.0004185417201370001,-0.00039961934089660645
1738773149653702700,4.00270263671875,0.0002600736916065216,0.0008468795567750931,0.00034251163015142083
1738773149663693600,4.012693603515625,0.0011405147379264235,0.000563252717256546,-0.001215703901834786
1738773149673684700,4.022684814453125,-0.00015377195086330175,0.0012305094860494137,0.00010328568168915808
1738773149683675600,4.032675537109375,0.0014566415920853615,-0.001480588223785162,0.0002971637877635658
1738773149693666800,4.042666748046875,-0.0002862847177311778,-0.0004942859522998333,-0.0003581980708986521
1738773149703658800,4.05265869140625,-0.000557660823687911,-0.0012093447148799896,0.0016804516781121492
1738773149713649700,4.062649658203125,0.00024432979989796877,0.0005727694369852543,-0.001106737763620913
1738773149723640600,4.072640625,-0.00011546327732503414,0.0007996708154678345,0.0001827648375183344
1738773149733631700,4.0826318359375,0.0005134658422321081,-0.002258618362247944,-0.00016474600124638528
1738773149743622700,4.09262255859375,-0.0007547314744442701,0.0009667361155152321,-0.000012413191143423319
1738773149753613800,4.10261376953125,0.001459217630326748,-0.0003594525624066591,0.00007180115790106356
1738773149763604700,4.112604736328125,-0.0004864879883825779,-0.0008848942816257477,0.0005266690859571099
1738773149773596000,4.122595947265625,-0.00016513653099536896,-0.00029185181483626366,0.001314363325946033
1738773149783587600,4.132587646484375,-0.000876466860063374,-0.00042128143832087517,-0.0003562376368790865
1738773149793578800,4.142578857421875,-0.0006274725892581046,-0.0009162470232695341,0.00005092233186587691
1738773149803570000,4.15256982421875,0.00006921030580997467,-0.0008752343710511923,-0.0010545558761805296
1738773149813560800,4.162560791015625,0.00035483750980347395,-0.0005451231263577938,-0.0012813331559300423
1738773149823551700,4.1725517578125,0.00021821737755089998,-0.0004580377135425806,-0.0002722614735830575
1738773149833543000,4.18254296875,0.0010762348538264632,-0.0006816624663770199,0.00027769693406298757
1738773149843533800,4.192533935546875,-0.0022162310779094696,0.001473899930715561,-0.000497549248393625
1738773149853524700,4.202524658203125,-0.0006376293022185564,-0.0002834086772054434,-0.0007525777909904718
1738773149863515600,4.212515625,0.00021484855096787214,0.0009448411874473095,0.0014796837931498885
1738773149873507800,4.2225078125,-0.0013017982710152864,0.00010921107605099678,0.000052809424232691526
1738773149883498800,4.232498779296875,0.00018371292389929295,-0.001585891004651785,0.0002781128278002143
1738773149893490000,4.242489990234375,0.0006097136065363884,0.0008025658316910267,0.00024342827964574099
1738773149903480800,4.252480712890625,-0.0004353108233772218,-0.000518362270668149,-0.00008627102943137288
1738773149913471700,4.2624716796875,0.0006768853636458516,-0.000012509990483522415,-0.0004926148103550076
1738773149923462700,4.272462646484375,-0.0008320616325363517,0.0005579390563070774,0.0009489543153904378
1738773149933453800,4.282453857421875,0.00007096584886312485,-0.0017596601974219084,-0.0003240240039303899
1738773149944069600,4.293069580078125,0.0000022563617676496506,-0.0004222206771373749,0.0009279280202463269
1738773149954060800,4.303060791015625,0.0002122758887708187,0.0006391042843461037,-0.0003012488887179643
1738773149964051700,4.3130517578125,0.0003478308208286762,0.00002284906804561615,-0.0005896692164242268
1738773149974042600,4.323042724609375,-0.0009375448571518064,0.0012010852806270123,-0.0001443576766178012
1738773149984034800,4.333034912109375,-0.00024938408751040697,0.0006849644705653191,-0.0019454534631222486
1738773149994025700,4.343025634765625,0.0011735112639144063,-0.0008118716068565845,-0.0011957213282585144
1738773150004016600,4.3530166015625,-0.00003290083259344101,0.0012707202695310116,-0.001459374325349927
1738773150014007800,4.3630078125,-0.0005960475536994636,-0.0006796105299144983,0.0001614913926459849
1738773150023998700,4.372998779296875,0.0016420729225501418,-0.000499580753967166,-0.0016190981259569526
1738773150033989600,4.38298974609375,-0.001207841793075204,-0.00020782905630767345,-0.0007995550986379385
1738773150043980800,4.392980712890625,0.0009162955684587359,0.0010529113933444023,0.0005727718234993517
1738773150053971700,4.4029716796875,-0.0005893977941013873,-0.00038327742367982864,-0.00015075114788487554
1738773150063963600,4.412963623046875,-0.000582739885430783,0.000052415765821933746,-0.00037498929305002093
1738773150073954800,4.422954833984375,-0.0012113756965845823,-0.0013434726279228926,0.000012665987014770508
1738773150083945700,4.43294580078125,-0.000948521657846868,-0.00082388985902071,-0.0008880151435732841
1738773150093936600,4.4429365234375,0.0007596563082188368,0.00039873411878943443,0.0005153770907782018
1738773150103927800,4.452927734375,-0.00014049222227185965,-0.0001330990344285965,-0.00022125322720967233
1738773150113918700,4.462918701171875,0.0008303179638460279,0.0014866613782942295,-0.00031059456523507833
1738773150123909600,4.47290966796875,-0.00005172088276594877,0.00034363241866230965,0.0007741109002381563
1738773150133900500,4.482900634765625,0.00044022081419825554,-0.0010703166481107473,-0.0011739934561774135
1738773150143892700,4.492892822265625,0.0013448966201394796,-0.0016072099097073078,0.0005501369596458972
1738773150153883600,4.502883544921875,0.0012411875650286674,-0.0006554620340466499,-0.0006209745770320296
1738773150163874600,4.51287451171875,0.00003850401844829321,-0.00025545526295900345,0.0010525558609515429
1738773150173865700,4.52286572265625,-0.0004924446693621576,-0.0015480243600904942,-0.0013209760654717684
1738773150183856600,4.532856689453125,-0.0006993722636252642,0.0004605315625667572,-0.000051447132136672735
1738773150193847600,4.54284765625,0.00041727302595973015,-0.0013766235206276178,0.000211451668292284
1738773150203838700,4.552838623046875,-0.0010727655608206987,0.0012564437929540873,-0.0004585996503010392
1738773150213829600,4.56282958984375,-0.000791420228779316,0.002258660038933158,-0.00003617841866798699
1738773150223821600,4.572821533203125,-0.0015898358542472124,-0.0004665527958422899,-0.000010612071491777897
1738773150233812700,4.582812744140625,-0.00026389164850115776,-0.0005905246362090111,0.00017720332834869623
1738773150243803600,4.5928037109375,0.002079690108075738,-0.00018519163131713867,-0.0018124443013221025
1738773150253794600,4.602794677734375,0.0007964590331539512,-0.0006066996138542891,-0.00046410178765654564
1738773150263785700,4.61278564453125,-0.0012994486605748534,-0.0001773980911821127,0.0000706609571352601
1738773150273777000,4.62277685546875,0.00044957653153687716,0.0007912367582321167,-0.0002307271060999483
1738773150283767800,4.632767822265625,-0.0029374316800385714,0.0006085438653826714,0.0007037761388346553
1738773150293758700,4.6427587890625,0.0003797010285779834,0.0009141063783317804,-0.000011058291420340538
1738773150303750700,4.652750732421875,0.000610863440670073,-0.0007237379904836416,0.0008153206435963511
1738773150313741600,4.662741455078125,0.00039693363942205906,-0.0013491266872733831,-0.0004157787188887596
1738773150323732500,4.672732421875,0.0011370262363925576,-0.0002982434816658497,-0.00006690464215353131
1738773150333723600,4.6827236328125,-0.0001351978862658143,-7.543712854385376e-7,-0.001065353280864656
1738773150343714600,4.692714599609375,0.0011170203797519207,-0.00028278306126594543,0.0008153711096383631
1738773150353705500,4.70270556640625,0.000940832425840199,0.0020201958250254393,-0.00037637422792613506
1738773150363696400,4.7126962890625,-0.000059717101976275444,0.0007464059162884951,-0.00013056444004178047
1738773150373687600,4.7226875,0.0014631380327045918,0.0006708530709147453,-0.0004183286800980568
1738773150383679500,4.732679443359375,0.0009084015619009733,0.00038403039798140526,0.0007955401670187712
1738773150393670700,4.742670654296875,-0.0004382100305519998,0.00023306114599108696,0.0007275851676240563
1738773150403661600,4.75266162109375,-0.0007916114991530776,0.00007779872976243496,-0.0003880130243487656
1738773150413652500,4.762652587890625,-0.0005537397228181362,-0.0014641613233834505,-0.001318755908869207
1738773150423643400,4.772643310546875,-0.0006030082004144788,0.0010895440354943275,-0.0023432739544659853
1738773150433634600,4.782634521484375,-0.0009267787099815905,0.00004567066207528114,-0.0008636689744889736
1738773150443625500,4.79262548828125,-0.0006519404705613852,-0.0008451566100120544,-0.0011984282173216343
1738773150453616400,4.802616455078125,-0.0011898113880306482,0.0008894456550478935,0.000891577685251832
1738773150463608600,4.812608642578125,0.0005771960131824017,0.0006361790001392365,-0.0006626431713812053
1738773150473599500,4.822599609375,-0.0023241089656949043,0.0003069019876420498,0.0010848244419321418
1738773150483590400,4.83259033203125,-0.0005997122498229146,0.0012816190719604492,0.00012262442032806575
1738773150493581600,4.84258154296875,-0.0013974402099847794,0.0006034597754478455,-0.0006989890243858099
1738773150503572500,4.852572509765625,-0.0001537440111860633,0.0012737773358821869,-0.0007519859354943037
1738773150513563400,4.8625634765625,0.0008015575585886836,0.001374703599140048,-0.00003716800711117685
1738773150523554300,4.87255419921875,0.0010273935040459037,0.000004507135599851608,-0.00019509345293045044
1738773150533545500,4.88254541015625,-0.00001595227513462305,-0.0014502673875540495,0.0004953143652528524
1738773150543537400,4.892537353515625,0.002269572578370571,0.0006922457832843065,-0.000249838107265532
1738773150553528600,4.902528564453125,-0.00048812030581757426,-0.0003225977998226881,-0.00015220654313452542
1738773150563519500,4.91251953125,0.0004687533946707845,0.0007322800811380148,-0.00018016973626799881
1738773150573510400,4.922510498046875,-0.0011486205039545894,0.000453361077234149,-0.0009363314020447433
1738773150583501300,4.932501220703125,0.0008016122737899423,-0.001390877878293395,0.000039983453461900353
1738773150593492500,4.942492431640625,-0.0017837065970525146,0.000965887913480401,0.00036445606383495033
1738773150603483400,4.9524833984375,-0.000645471503958106,-0.0003278758376836777,-0.00011278237798251212
1738773150613474300,4.962474365234375,-0.0012932431418448687,-0.00019963248632848263,-0.0002433277986710891
1738773150623466500,4.972466552734375,0.0001592448679730296,-0.00101882079616189,-0.0002859383821487427
1738773150633457400,4.98245751953125,-0.0005613210960291326,0.0013495807070285082,-0.0011094305664300919
1738773150643448300,4.9924482421875,-0.00039087876211851835,0.00019962782971560955,0.0004562418907880783
1738773150653439500,5.002439453125,-0.00047337799333035946,-0.000052822986617684364,0.0006055712583474815
1738773150663430400,5.012430419921875,0.0017490299651399255,0.001320036593824625,-0.0008359978091903031
1738773150673421300,5.02242138671875,0.0007810515817254782,-0.0013835125137120485,0.0009305190178565681
1738773150683412500,5.03241259765625,0.0004092743620276451,0.0014074805658310652,0.0007054819143377244
1738773150693403400,5.0424033203125,-0.0019479517359286547,-0.0023543345741927624,-0.0005810643779113889
1738773150703395300,5.052395263671875,-0.00030771095771342516,0.0001692764926701784,-0.00030942197190597653
1738773150713386500,5.062386474609375,0.0006095644785091281,0.0012672292068600655,-0.0001914710592245683
1738773150723377400,5.07237744140625,-0.00021255342289805412,0.000821415800601244,-0.0014612663071602583
1738773150733368300,5.082368408203125,-0.00031094951555132866,0.00011279340833425522,0.0007215674268081784
1738773150743359200,5.092359130859375,0.0004760145675390959,0.0008994911331683397,0.0008643128676339984
1738773150753350400,5.102350341796875,0.0007025989471003413,-0.0009844321757555008,-0.0004929157439619303
1738773150763341300,5.11234130859375,-0.0013722698204219341,-0.0008075982332229614,0.0004849969409406185
1738773150773332500,5.12233251953125,-0.0011717400047928095,-0.00021346565335988998,0.00039618313894607127
1738773150783324400,5.132324462890625,-0.000587176124099642,-0.0006411694921553135,0.0010907355463132262
1738773150793315300,5.1423154296875,-0.0002635797718539834,0.0011772399302572012,-0.0007369176018983126
1738773150803306200,5.15230615234375,-0.00032323459163308144,-0.0002446216531097889,-0.0005246635992079973
1738773150813297400,5.16229736328125,-0.0009586250525899231,0.0015235370956361294,-0.0017300437903031707
1738773150823288300,5.172288330078125,-0.00048058765241876245,0.001361350528895855,0.0002625333145260811
1738773150833279500,5.182279541015625,0.0018174693686887622,-0.00030088750645518303,0.0011026272550225258
1738773150843270700,5.192270751953125,0.00025952025316655636,-0.0002489557955414057,0.0002956895041279495
1738773150853261600,5.202261474609375,-0.0007367216167040169,-0.00020247278735041618,0.0007757312851026654
1738773150863253200,5.212253173828125,0.0005453240592032671,-0.001575864851474762,-0.0008341495995409787
1738773150873244400,5.222244384765625,0.0014542019926011562,0.000224387738853693,-0.00042599893640726805
1738773150883235300,5.2322353515625,0.00017961312551051378,0.0009327889420092106,0.0007244866574183106
1738773150893226500,5.2422265625,0.0006723641417920589,-0.0009239898063242435,0.0012955130077898502
1738773150903217700,5.2522177734375,-0.000535379396751523,-0.0001293024979531765,0.00015887583140283823
1738773150913208600,5.26220849609375,0.000008267699740827084,0.0009808589238673449,0.00037704803980886936
1738773150923199500,5.272199462890625,0.0002857689978554845,0.00021280325017869473,0.0010891773272305727
1738773150933190400,5.2821904296875,-0.0005196451093070209,0.000553022138774395,-0.0010351117234677076
1738773150943182600,5.2921826171875,0.0008092721691355109,-0.000667238375172019,0.000469574355520308
1738773150953173500,5.302173583984375,-0.0024726027622818947,-0.002258667256683111,0.0008024382404983044
1738773150963164400,5.312164306640625,0.0009943003533408046,0.000654831063002348,-0.000059893238358199596
1738773150973155600,5.322155517578125,0.00048645702190697193,0.00034764595329761505,0.0009177041356451809
1738773150983146500,5.332146484375,-0.0011242227628827095,0.0004528407007455826,-0.00028790891519747674
1738773150993137400,5.342137451171875,-0.00035894091706722975,0.0006617465987801552,0.0003552932757884264
1738773151003128600,5.352128662109375,0.00071111717261374,0.00008943304419517517,-0.00005083877476863563
1738773151013119500,5.362119384765625,0.0003742160042747855,-0.00007771188393235207,-0.00032695059780962765
1738773151023111400,5.372111328125,0.0017167155165225267,0.0003212299197912216,0.0003319154493510723
1738773151033102600,5.3821025390625,0.00010183861013501883,-0.0005046608857810497,-0.0013803690671920776
1738773151043093500,5.392093505859375,0.0005082370480522513,-0.0015552779659628868,0.00004974842886440456
1738773151053084400,5.40208447265625,-0.0004036746686324477,-0.0015739614609628916,-0.0008897068910300732
1738773151063075600,5.41207568359375,-0.0004737157723866403,0.0008622980676591396,0.0005124473827891052
1738773151073066500,5.42206640625,-0.0012512458488345146,0.001298729795962572,-0.0000025240296963602304
1738773151083057400,5.432057373046875,0.0010696990648284554,-0.0006823954172432423,0.0007287799380719662
1738773151093048300,5.44204833984375,-0.0005393240717239678,-0.0013265176676213741,-0.0001898159389384091
1738773151103040500,5.45204052734375,-0.00027567113284021616,-0.001659146510064602,-0.0006998112658038735
1738773151113031400,5.462031494140625,0.0014542452991008759,-0.00019375281408429146,0.00045734160812571645
1738773151123022600,5.472022705078125,0.0004180092364549637,0.00039054499939084053,0.0005574764800257981
1738773151133013500,5.482013427734375,-0.0005299686454236507,0.0004141819663345814,-0.0007704690797254443
1738773151143004400,5.49200439453125,-0.0006431529764086008,-0.00111420638859272,0.00018347520381212234
1738773151152995300,5.501995361328125,-0.0003522431943565607,0.0008706408552825451,0.0002812182065099478
1738773151162986500,5.511986572265625,-0.0006153634749352932,-0.00006359629333019257,0.000015434721717610955
1738773151172977400,5.521977294921875,-0.0010054850718006492,0.0001559276133775711,0.0007238044636324048
1738773151182969300,5.53196923828125,-0.000998827163130045,0.000489355530589819,-0.00028819675208069384
1738773151192960500,5.54196044921875,0.000711486442014575,-0.0012389128096401691,-0.0003447124909143895
1738773151202951400,5.551951416015625,0.0010526373516768217,0.0008338256739079952,-0.001392133766785264
1738773151212942300,5.5619423828125,0.000203822273761034,-0.0014680360909551382,-0.000315238197799772
1738773151222933500,5.57193359375,-0.0015866209287196398,0.001513905357569456,-0.00016317171684931964
1738773151232924400,5.58192431640625,0.0005514418007805943,-0.0004816856235265732,-0.0002827088173944503
1738773151242915300,5.591915283203125,0.00003452226519584656,-0.0003131076227873564,-0.0004733911482617259
1738773151252906200,5.60190625,-0.0004204334691166878,-0.0004773861728608608,-0.0005958233959972858
1738773151262898400,5.6118984375,-0.000014035147614777088,-0.0008182707242667675,0.00032563030254095793
1738773151272889300,5.621889404296875,-0.000549962860532105,0.00035480642691254616,0.0007725710747763515
1738773151282880500,5.631880615234375,0.00014219270087778568,-0.00017596175894141197,-0.0009374446235597134
1738773151292871400,5.641871337890625,-0.0024876354727894068,0.00014211051166057587,0.0012805764563381672
1738773151302862300,5.6518623046875,0.0003004278987646103,0.0011011147871613503,0.0018680698703974485
1738773151312853200,5.661853271484375,-0.00007064337842166424,-0.00029128347523510456,0.00045026245061308146
1738773151322844400,5.671844482421875,0.000542682595551014,0.0009758486412465572,-0.00015640565834473819
1738773151332836400,5.68183642578125,-0.0016510386485606432,-0.0010595209896564484,0.0004715696268249303
1738773151342827500,5.69182763671875,-0.0017879250226542354,0.000386308878660202,0.0004555906925816089
1738773151352818400,5.701818359375,0.000921834958717227,-0.0008653439581394196,-0.0007962427916936576
1738773151362809300,5.711809326171875,-0.00025288539472967386,-0.0006384425796568394,0.0009326813742518425
1738773151372800300,5.72180029296875,-0.0009821087587624788,0.0013897716999053955,-0.00044544320553541183
1738773151382791400,5.73179150390625,-0.0011291152331978083,-0.0003047976642847061,0.00048373371828347445
1738773151392782300,5.7417822265625,0.00004563783295452595,0.0007070787250995636,-0.00021378870587795973
1738773151402773500,5.7517734375,-0.001450526062399149,0.0009627421386539936,-0.0018601547926664352
1738773151412765400,5.761765380859375,0.0012454696698114276,-0.00023237615823745728,-0.00044828440877608955
1738773151422756400,5.77175634765625,-0.0020363437943160534,-0.0006137408781796694,0.00018927635392174125
1738773151432747300,5.781747314453125,-0.0005325663951225579,-0.0007870125118643045,0.0003488082147669047
1738773151442738400,5.791738525390625,0.0000480026938021183,-0.00010364549234509468,0.00032750293030403554
1738773151452729300,5.801729248046875,0.0009068292565643787,-0.0006396970711648464,0.00014032685430720448
1738773151462720500,5.811720458984375,0.0005217361031100154,0.0007723108865320683,0.0014729725662618876
1738773151472711400,5.82171142578125,-0.0004944290267303586,-0.001050529070198536,-0.0012494579423218966
1738773151482702600,5.83170263671875,-0.0004395678988657892,0.0002722633071243763,0.0009529762319289148
1738773151492694300,5.8416943359375,0.00046874932013452053,0.0009879241697490215,-0.0007575360359624028
1738773151502685400,5.851685546875,0.0011113699292764068,-0.0007588430307805538,-0.0004704472958110273
1738773151512676400,5.86167626953125,-0.00034654431510716677,-0.0014081804547458887,-0.00006841588765382767
1738773151522667500,5.87166748046875,-8.660135790705681e-7,-0.002006592694669962,-0.0009555148426443338
1738773151532658400,5.881658447265625,-0.00005199795123189688,0.0011424403637647629,0.0009463873575441539
1738773151542649600,5.891649658203125,-0.0003092592814937234,-0.0005774288438260555,0.0002622212050482631
1738773151552640500,5.901640625,-0.0005489935865625739,0.0020391158759593964,-0.00035798526369035244
1738773151562631400,5.91163134765625,0.00022252416238188744,-0.0007137935608625412,-0.0007766342023387551
1738773151572623600,5.92162353515625,-0.000631249975413084,0.0007680393755435944,-0.002710875356569886
1738773151582614500,5.931614501953125,0.0014731799019500613,0.0006138426251709461,0.000734988774638623
1738773151592605400,5.94160546875,-0.0003022977616637945,-0.0007154210470616817,-0.00004696793621405959
1738773151602596600,5.9515966796875,0.000764564611017704,-0.0004187449812889099,0.000710435095243156
1738773151612587500,5.96158740234375,0.0005003107944503427,-0.000696009723469615,-0.00011068995809182525
1738773151622578400,5.971578369140625,-0.000976944575086236,0.0011088144965469837,-0.0001498384226579219
1738773151632569600,5.981569580078125,0.00023893651086837053,0.0003530941903591156,0.0015199861954897642
1738773151642561500,5.9915615234375,0.0005124432500451803,-0.0005225534550845623,-0.0013362540630623698
1738773151652552400,6.001552490234375,-0.0006644764798693359,-0.00021568662486970425,-0.00020445486006792635
1738773151662543600,6.011543701171875,-0.0002988245105370879,-0.0026676589623093605,0.0006078092847019434
1738773151672534500,6.021534423828125,0.0019423271296545863,0.00042140018194913864,-0.0013000235194340348
1738773151682525400,6.031525390625,0.00012445333413779736,0.0015180897898972034,0.0006278387736529112
1738773151692516400,6.041516357421875,0.0010009602410718799,-0.0007714643143117428,0.00032026131520979106
1738773151702507500,6.051507568359375,-0.00037349731428548694,-0.00045508076436817646,0.00035461605875752866
1738773151712498400,6.06149853515625,0.0006246870616450906,0.0006552189588546753,0.0001904211239889264
1738773151722490600,6.07149072265625,-0.0006163459620438516,-0.0011192455422133207,0.0009496883139945567
1738773151732481500,6.0814814453125,-0.00044126936700195074,0.00034771207720041275,0.0003047006903216243
1738773151742472400,6.091472412109375,-0.00006602995563298464,-0.00029730587266385555,-0.001216763281263411
1738773151752463400,6.10146337890625,0.0001517727505415678,-0.001789935166016221,-0.0012307974975556135
1738773151762454500,6.11145458984375,0.00006282306276261806,0.0005837404169142246,0.00044619495747610927
1738773151772445400,6.121445556640625,0.00025176675990223885,-0.001481795683503151,0.0005276305018924177
1738773151782436400,6.131436279296875,0.0006800030823796988,0.000029814429581165314,0.0003068544901907444
1738773151792428500,6.141428466796875,-0.0005714167491532862,-0.00006228545680642128,0.0010331767844036222
1738773151802419500,6.15141943359375,-0.00003558874595910311,-0.0002561635337769985,-0.0016409032978117466
1738773151812410400,6.161410400390625,-0.0011966181918978691,-0.0011728019453585148,0.00009808552567847073
1738773151822401500,6.171401611328125,-0.0001220327103510499,0.0016533443704247475,0.0003657332272268832
1738773151832392400,6.181392333984375,0.0029631266370415688,0.0002369084395468235,0.0009388800826855004
1738773151842383400,6.19138330078125,0.0005010344320908189,0.0006228005513548851,0.0007945367251522839
1738773151852374500,6.20137451171875,-0.0008470439352095127,0.0008165384642779827,-0.0014039529487490654
1738773151862366500,6.211366455078125,-0.0002488979371264577,-0.0006175737362354994,0.00014893629122525454
1738773151872357400,6.221357421875,0.00029608141630887985,-0.0009312666952610016,0.0007875751471146941
1738773151882348500,6.2313486328125,0.0008694600546732545,0.0007289480417966843,-0.0008856889326125383
1738773151892339500,6.24133935546875,0.0003989530960097909,-0.00015996862202882767,-0.0008140753488987684
1738773151902330400,6.251330322265625,0.00007591163739562035,-0.00010404223576188087,-0.0002971557551063597
1738773151912321300,6.2613212890625,-0.00029540539253503084,0.0007048631086945534,0.00047278727288357913
1738773151922312400,6.2713125,-0.00017955794464796782,-0.0010373769327998161,-0.002072129398584366
1738773151932303400,6.281303466796875,-0.00005425873678177595,0.002138789277523756,-0.000841681903693825
1738773151942295600,6.291295654296875,0.0008235190762206912,-0.000864989822730422,0.000027041241992264986
1738773151952286500,6.301286376953125,-0.00019042089115828276,-0.00032725511118769646,0.0017329591792076826
1738773151962277400,6.31127734375,-0.000551012868527323,-0.00020767911337316036,0.002198213478550315
1738773151972268300,6.321268310546875,-0.00022641196846961975,-0.001345749944448471,0.0015565676148980856
1738773151982259500,6.331259521484375,-0.00039312581066042185,-0.001481304643675685,0.0002425639540888369
1738773151992250400,6.34125048828125,-0.0024941139854490757,-0.0000820518471300602,0.0010896484600380063
1738773152002241300,6.3512412109375,0.0003357611130923033,0.0005999836139380932,0.0020246843341737986
1738773152012233500,6.3612333984375,0.0006421336438506842,-0.000849931500852108,-0.00026554573560133576
1738773152022224400,6.371224365234375,0.0005052471533417702,0.0017471830360591412,-0.00012572979903779924
1738773152032215300,6.38121533203125,-0.0010940252104774117,0.00040312809869647026,-0.0006261609960347414
1738773152042206500,6.39120654296875,-0.0007206499576568604,-0.00027917372062802315,0.000654286821372807
1738773152052197400,6.401197265625,0.000272117555141449,-0.00007961294613778591,0.0009629866690374911
1738773152062188300,6.411188232421875,0.000843365560285747,-0.000567237613722682,-0.000935580930672586
1738773152072179500,6.421179443359375,0.00032015261240303516,-0.0008363658562302589,0.0005371787119656801
1738773152082171400,6.43117138671875,-0.0012242145603522658,0.00030186912044882774,0.001959306886419654
1738773152092162300,6.441162353515625,-0.0005556496325880289,-0.00009163049980998039,-0.0017809636192396283
1738773152102153500,6.451153564453125,-0.00013114174362272024,0.00016509834676980972,0.0014292107662186027
1738773152112144400,6.461144287109375,0.0009697888744994998,0.0015021786093711853,-0.000402670877519995
1738773152122135300,6.47113525390625,0.0011109363986179233,0.00011653592810034752,0.0004095932235941291
1738773152132126200,6.481126220703125,0.0004282605368643999,-0.0013085841201245785,-0.000793150975368917
1738773152142117400,6.491117431640625,-0.000770428276155144,0.00031248200684785843,-0.001111931400373578
1738773152152108500,6.501108642578125,-0.00039951136568561196,-0.0005859730299562216,0.0005738734034821391
1738773152162100500,6.5111005859375,-0.0004455840098671615,-0.0006991573609411716,-0.000021343075786717236
1738773152172091400,6.52109130859375,0.0018514550756663084,0.0002289125695824623,0.0009601708152331412
1738773152182082300,6.531082275390625,-0.0008841438684612513,-0.001662730472162366,0.0006187536055222154
1738773152192073500,6.541073486328125,-0.00028918543830513954,0.000011092517524957657,-0.0006749695166945457
1738773152202064600,6.551064697265625,0.0007968517020344734,0.0005019134841859341,-0.0001806868240237236
1738773152212055600,6.5610556640625,-0.00035035377368330956,-0.0018149979878216982,-0.00046292736078612506
1738773152222046500,6.57104638671875,0.0005519251571968198,0.0004396340809762478,-0.00030153978150337934
1738773152232038400,6.581038330078125,-0.0005787442205473781,0.0006926967762410641,-0.001169685972854495
1738773152242029300,6.591029296875,-0.001456255791708827,-0.00009133783169090748,-0.0017060466343536973
1738773152252020500,6.6010205078125,0.00014256639406085014,0.0014639738947153091,0.0005133120575919747
1738773152262011600,6.61101171875,0.00032312877010554075,-0.0017946697771549225,-0.0011703383643180132
1738773152272002600,6.62100244140625,-0.0006418989505618811,-0.0007317943964153528,-0.0006930333329364657
1738773152281993500,6.630993408203125,0.00043774652294814587,0.00043147429823875427,0.0006744998972862959
1738773152291984600,6.640984619140625,-0.0006054400582797825,-0.0003702174872159958,0.0005596750997938216
1738773152301976300,6.650976318359375,0.0006086949724704027,0.000790121965110302,0.001048897742293775
1738773152311967500,6.660967529296875,-0.00025893247220665216,0.00077085942029953,-0.00008580014400649816
1738773152321958400,6.67095849609375,-0.00013722595758736134,-0.001600419171154499,-0.0016165850684046745
1738773152331949300,6.68094921875,0.0003653508611023426,0.00003538234159350395,0.000512731377966702
1738773152341940500,6.6909404296875,0.00023059500381350517,-0.000012287870049476624,-0.000570109928958118
1738773152351931400,6.700931396484375,0.000985274207778275,0.00013007968664169312,-0.0002533269580453634
1738773152361922300,6.71092236328125,-0.0010917250765487552,0.0009218375198543072,0.0008020838140510023
1738773152371914500,6.72091455078125,0.0017569113988429308,0.00012246565893292427,0.0005167947383597493
1738773152381905400,6.730905517578125,0.0004844531649723649,-0.0007768839132040739,-0.0007759036379866302
1738773152391896300,6.740896240234375,-0.00005189573857933283,0.0005148458294570446,-0.0007179009262472391
1738773152401887500,6.750887451171875,0.0003454479156062007,-0.0009458980057388544,0.0004957015626132488
1738773152411878400,6.76087841796875,0.0010206393199041486,0.00032055191695690155,0.00042770971776917577
1738773152421869300,6.770869384765625,0.00044726068153977394,0.0013732998631894588,0.00023463054094463587
1738773152431860200,6.780860107421875,-0.0014543214347213507,-0.0009470414370298386,0.0007088432321324944
1738773152441851400,6.790851318359375,-0.0015280910301953554,0.00002021854743361473,-0.0017969249747693539
1738773152451843300,6.80084326171875,0.0012673086021095514,0.0008515426889061928,-0.00032348569948226213
1738773152461834500,6.81083447265625,0.00025876937434077263,-0.0003655219916254282,-0.000709910353180021
1738773152471825400,6.820825439453125,0.00044525053817778826,0.0003627380356192589,0.0004924944369122386
1738773152481816300,6.83081640625,-0.0001672765938565135,0.0008990983478724957,0.0005239197053015232
1738773152491807200,6.84080712890625,-0.00023343355860561132,-0.0025616621132940054,-0.00023069020244292915
1738773152501798400,6.85079833984375,-0.0005913624190725386,0.0009310734458267689,0.0006161949713714421
1738773152511789300,6.860789306640625,0.000778243993408978,0.0011826138943433762,0.00008024074486456811
1738773152521781200,6.87078125,0.0008333713049069047,-0.0030669921543449163,-0.0002297511964570731
1738773152531772400,6.8807724609375,-0.0010863016359508038,0.00018479442223906517,0.000595810473896563
1738773152541763300,6.890763427734375,-0.0008839013171382248,0.0008588405326008797,-0.0007658638060092926
1738773152551754200,6.900754150390625,-0.0004703695303760469,-0.0004098371136933565,-0.000884594046510756
1738773152561745400,6.910745361328125,0.0005016842624172568,0.0005267965607345104,0.00034658535150811076
1738773152571736300,6.920736328125,0.000335750519298017,-0.0011010929010808468,-0.00029046725830994546
1738773152581727200,6.930727294921875,-0.0014301915653049946,-0.0005823092069476843,0.0016744129825383425
1738773152591718100,6.94071826171875,0.0005685586947947741,0.0010686558671295643,0.0004695604438893497
1738773152601710300,6.95071044921875,-0.0004429099499247968,-0.001405420945957303,0.0016594607150182128
1738773152611701200,6.960701171875,0.0006282777758315206,-0.00006974977441132069,-0.00034355962998233736
1738773152621692400,6.9706923828125,-0.0007800019229762256,0.0003137453459203243,0.00016217466327361763
1738773152631683300,6.980683349609375,0.00047787989024072886,-0.0009371601045131683,-0.0005098435212858021
1738773152641674200,6.99067431640625,-0.0003996316809207201,0.0003704517148435116,0.0007258632103912532
1738773152651665200,7.0006650390625,-0.0007447844836860895,0.0004287632182240486,0.0006337007507681847
1738773152661656300,7.01065625,0.00024378090165555477,0.000025027897208929062,0.00017776756430976093
1738773152671648300,7.020648193359375,-0.0002814600011333823,-0.0011518828105181456,0.00036118499701842666
1738773152681639400,7.030639404296875,-0.00005029758904129267,0.0009056753478944302,-0.0004071369767189026
1738773152691630300,7.04063037109375,0.0008593043312430382,-0.0006884606555104256,0.0011070837499573827
1738773152701621200,7.050621337890625,-0.0006765406578779221,-0.00023971800692379475,0.0009185319067910314
1738773152711612200,7.060612060546875,0.0004833410494029522,0.00011896388605237007,0.00034692109329625964
1738773152721603300,7.070603271484375,-0.0012570347171276808,-0.00044855568557977676,-0.001264824066311121
1738773152731594200,7.08059423828125,0.0005773898446932435,0.00045741675421595573,0.00041470452561043203
1738773152741586200,7.090586181640625,0.0005347792757675052,0.0006558224558830261,0.0013454793952405453
1738773152751577300,7.100577392578125,0.0003660463262349367,-0.00048075919039547443,-0.00014618014392908663
1738773152761568300,7.110568359375,0.0002009302843362093,-0.00008261669427156448,0.00031401406158693135
1738773152771559200,7.12055908203125,0.00016298308037221432,0.00024881819263100624,0.0004699582059402019
1738773152781550300,7.13055029296875,-0.0010772510431706905,0.0003215223550796509,-0.00042273339931853116
1738773152791541200,7.140541259765625,-0.0008660086896270514,-0.00019474816508591175,0.0005899706156924367
1738773152801532200,7.1505322265625,0.0008277618326246738,0.003136599902063608,-0.0017504154238849878
1738773152811523000,7.160523193359375,0.0008485383586958051,-0.00157836708240211,0.0007385921780951321
1738773152821515300,7.170515380859375,-0.0007842457271181047,-0.001051860162988305,-0.0013107103295624256
1738773152831506200,7.180506103515625,0.00025072949938476086,-0.0006402353756129742,0.00018358835950493813
1738773152841497300,7.190497314453125,-0.0009439645800739527,-0.0005092078354209661,0.0007090300205163658
1738773152851488300,7.20048828125,0.000488339108414948,0.0004021215718239546,0.000788289587944746
1738773152861479200,7.210479248046875,0.00023294193670153618,-0.00030148541554808617,-0.0008673976990394294
1738773152871470300,7.22047021484375,-0.0002512704813852906,0.0009356185328215361,-0.0005333170993253589
1738773152881461500,7.23046142578125,-0.0005474139470607042,0.00172524549998343,0.0008704351494088769
1738773152891453200,7.240453125,-0.0007561490056104958,-0.0003359916154295206,-0.00017207501514349133
1738773152901444400,7.2504443359375,-0.00018596614245325327,0.00039691035635769367,0.0003701445530168712
1738773152911435300,7.260435302734375,0.0008333527948707342,0.0010546541307121515,0.0019031933043152094
1738773152921426200,7.27042626953125,0.000026148627512156963,-0.0014748163521289825,-0.0003322641714476049
1738773152931417300,7.280417236328125,-0.0027163252234458923,0.001579861855134368,0.0004296800761949271
1738773152941408500,7.290408447265625,-0.0013602437684312463,-0.0004068564157932997,-0.00011333846487104893
1738773152951399400,7.3003994140625,-0.002583460882306099,-0.000332800205796957,0.0011415553744882345
1738773152961391000,7.31039111328125,0.00027624156791716814,0.0009404569864273071,0.0012486145133152604
1738773152971382300,7.32038232421875,0.0015154520515352488,-0.0003587729297578335,-0.0006573827704414725
1738773152981373200,7.330373291015625,0.0002826749114319682,0.00028970674611628056,-0.0011798948980867863
1738773152991364400,7.3403642578125,-0.0004905195091851056,0.00017954595386981964,0.0012381833512336016
1738773153001355500,7.35035546875,-0.0021025310270488262,-0.0007301897276192904,0.0006719953380525112
1738773153011346400,7.360346435546875,-0.0000613912707194686,0.0016228558961302042,-0.0003420502180233598
1738773153021337300,7.37033740234375,0.00034820300061255693,-0.00021312711760401726,-0.00039637868758291006
1738773153031328300,7.380328369140625,0.000051538110710680485,0.00040785246528685093,0.001191276009194553
1738773153041320400,7.390320556640625,0.002093649934977293,0.0011250416282564402,-0.00001300536678172648
1738773153051311400,7.400311279296875,-0.0005093484651297331,-0.00029232539236545563,-0.0007515563629567623
1738773153061302500,7.410302490234375,-0.0005993632948957384,-0.000557576073333621,0.0009917488787323236
1738773153071293400,7.42029345703125,0.0004661533748731017,0.00012215366587042809,0.00038132123881950974
1738773153081284400,7.430284423828125,-0.00044731085654348135,0.0006667701527476311,0.0006404467858374119
1738773153091275300,7.440275146484375,-0.00003445881884545088,-0.0011807929258793592,0.00024077092530205846
1738773153101266400,7.450266357421875,-0.0013455330627039075,-0.0004223245196044445,-0.0003451245429459959
1738773153111258400,7.46025830078125,-0.0006694691837765276,-0.00044438429176807404,0.00003044219920411706
1738773153121249300,7.470249267578125,-0.0003339109243825078,-0.0005301381461322308,-0.00036530353827401996
1738773153131240400,7.480240478515625,0.002078752499073744,0.0005069277249276638,-0.0011326062958687544
1738773153141231400,7.4902314453125,0.0009514364646747708,-0.00040307454764842987,-0.00022233789786696434
1738773153151222300,7.50022216796875,-0.0014215365517884493,-0.00021682586520910263,-0.001181800733320415
1738773153161213400,7.51021337890625,-0.00030114478431642056,-0.0011744985822588205,-0.000031048868549987674
1738773153171204400,7.520204345703125,-0.0007027855608612299,0.0003501889295876026,0.0002522034337744117
1738773153181195300,7.5301953125,-0.00013260275591164827,0.0009246328845620155,0.00015846011228859425
1738773153191187500,7.5401875,0.0009486946510151029,0.00018911808729171753,-0.001459902385249734
1738773153201178400,7.550178466796875,-0.00012269499711692333,-0.0005405882839113474,-0.0001336481946054846
1738773153211169300,7.560169189453125,-0.0008790022111497819,0.00006489851512014866,-0.00011914747301489115
1738773153221160400,7.570160400390625,0.0003950541140511632,0.00004385947249829769,0.00001800531754270196
1738773153231151400,7.5801513671875,-0.00019110750872641802,-0.00018556485883891582,-0.0002288687537657097
1738773153241142300,7.590142333984375,0.00004191906191408634,0.0009089943487197161,0.0002475707442499697
1738773153251133200,7.60013330078125,-0.0007226074230857193,0.0004642135463654995,0.0005328030092641711
1738773153261124400,7.610124267578125,0.0002478484530001879,-0.0009866764303296804,-0.001273352769203484
1738773153271116300,7.6201162109375,-0.00011406256817281246,-0.0008526570163667202,0.0014140779385343194
1738773153281107500,7.630107421875,0.0012044685427099466,0.0002538864500820637,-0.0008434837218374014
1738773153291098400,7.640098388671875,-0.001153256162069738,-0.00029289722442626953,0.0014858467038720846
1738773153301089300,7.65008935546875,-0.0005777470651082695,-0.0002889025490731001,0.00015985884238034487
1738773153311080200,7.660080078125,-0.0009971284307539463,0.0008431279566138983,0.0006512436084449291
1738773153321071400,7.6700712890625,-0.0003619644558057189,-0.00020669004879891872,-0.0006193505832925439
1738773153331062000,7.68006201171875,0.0004178290255367756,-0.0008885820861905813,0.0007156531210057437
1738773153341053200,7.69005322265625,0.0007632410852238536,0.0008291567210108042,0.00041498226346448064
1738773153351045000,7.700045166015625,-0.0016549176070839167,-0.00020978739485144615,0.0001284489408135414
1738773153361036300,7.710036376953125,0.00037361227441579103,0.0007500159554183483,-0.0004497233312577009
1738773153371027200,7.720027099609375,-0.0001736162230372429,0.0006004588212817907,0.0006876145489513874
1738773153381018000,7.73001806640625,0.0005803246749565005,-0.00005361344665288925,-0.0018389263423159719
1738773153391009000,7.740009033203125,-0.0012483253376558423,0.0005707934033125639,0.0010612034238874912
1738773153401000200,7.750000244140625,-0.00020702939946204424,-0.0007892828434705734,-0.0008229829836636782
1738773153410991000,7.7599912109375,-0.0009200834902003407,-0.0013314478565007448,0.00011325464583933353
1738773153420983000,7.769983154296875,0.0008807459380477667,-0.00033302861265838146,-0.00013841409236192703
1738773153430974200,7.77997412109375,0.0009876476833596826,0.00035726698115468025,0.0007206752197816968
1738773153440965000,7.789965087890625,-0.00010824319906532764,-0.00025472743436694145,0.0004290591459721327
1738773153450956000,7.7999560546875,-0.0034738783724606037,0.0006534999702125788,0.0005070118932053447
1738773153460947200,7.809947265625,-0.00012202397920191288,0.002677502343431115,0.0005083434516564012
1738773153470938000,7.819938232421875,0.0006394126685336232,-0.0005827466957271099,-0.00011108056060038507
1738773153480929000,7.829928955078125,0.0009952109539881349,0.0008076897356659174,-0.0003571566485334188
1738773153490920200,7.839920166015625,0.0006573417922481894,-0.0007248257752507925,0.0014008558355271816
1738773153500912000,7.849912109375,-0.0015235209139063954,-0.0005940645933151245,-0.0003999736509285867
1738773153510903000,7.859903076171875,-0.00040189229184761643,0.0014169474598020315,-0.0007535635959357023
1738773153520894200,7.869894287109375,0.0005682973423972726,-0.00022249436005949974,-0.002968514570966363
1738773153530885000,7.879885009765625,-0.00045655237045139074,-0.00004515610635280609,0.00013126895646564662
1738773153540876000,7.8898759765625,-0.001254968112334609,0.0005431363824754953,-0.0005025634309276938
1738773153550867200,7.8998671875,0.0010820765746757388,0.00035890121944248676,0.0013886417727917433
1738773153560858400,7.9098583984375,0.00016568275168538094,0.0016513329464942217,0.0003505416098050773
1738773153570849300,7.919849365234375,-0.0005468979361467063,0.0009844941087067127,0.0007256472017616034
1738773153580841200,7.92984130859375,-0.0019088385161012411,0.00012722262181341648,-0.00032496984931640327
1738773153595203000,7.944203125,-0.000023753149434924126,0.0016034555155783892,-0.0009528882219456136
1738773153605194000,7.954194091796875,-0.00000374671071767807,-0.0007672603242099285,-0.00018942364840768278
1738773153615185200,7.96418505859375,-0.00008364149834960699,0.0007424855139106512,0.0003530622343532741
1738773153625176000,7.974176025390625,0.0006404012674465775,0.0011955203954130411,-0.001051602652296424
1738773153635167200,7.984167236328125,-0.0012107620714232326,-0.00027747382409870625,0.000017390120774507523
1738773153645158400,7.994158447265625,0.0015243907691910863,0.0005130672361701727,-0.0013611768372356892
1738773153655150000,8.004150146484376,-0.0012982935877516866,0.00039029563777148724,-0.0005752780707553029
1738773153665141000,8.01414111328125,-0.000056237331591546535,-0.0008912703488022089,-0.00047546735731884837
1738773153675132200,8.024132080078125,0.0007259331177920103,0.0005018291994929314,-0.0001486974797444418
1738773153685123300,8.034123291015625,0.00040003086905926466,0.0015308524016290903,0.0010485905222594738
1738773153695114200,8.0441142578125,0.0019111083820462227,-0.001299555180594325,0.00033326540142297745
1738773153705105400,8.05410546875,0.0005697645246982574,-0.00035324646160006523,-0.00035375289735384285
1738773153715096300,8.064096435546874,0.0005876077339053154,0.0007306602783501148,0.0013147174613550305
1738773153725087200,8.074087158203126,0.00033753691241145134,-0.0005167645867913961,-0.0006541574839502573
1738773153735079200,8.0840791015625,0.00022741989232599735,0.0007084032986313105,-0.0002823609102051705
1738773153745070300,8.0940703125,-0.00038422131910920143,0.00004456215538084507,0.000309584429487586
1738773153755061200,8.104061279296875,-0.0002734338631853461,0.0002501583658158779,0.0016073428560048342
1738773153765052200,8.11405224609375,0.0005718236789107323,-0.0014303489588201046,0.00021425116574391723
1738773153775043300,8.124043212890625,-0.0007200757972896099,0.00010389834642410278,-0.0004089285503141582
1738773153785034200,8.1340341796875,-0.00008168281055986881,0.0003341909032315016,0.0006120264297351241
1738773153795025200,8.144025146484376,-0.0016593394102528691,-0.00019870768301188946,0.0006226790719665587
1738773153805016300,8.154016357421876,0.0009167303796857595,0.0005071507766842842,0.00004947397974319756
1738773153815008300,8.16400830078125,0.00005599681753665209,-0.0010681087151169777,-0.0003590549167711288
1738773153824999200,8.173999267578125,0.001511211390607059,-0.0006548396777361631,0.0008342168293893337
1738773153834990300,8.183990234375,-0.0003519359743222594,-0.00010329904034733772,-0.00011040637036785483
1738773153844981200,8.193981201171875,0.001479653874412179,-0.00044006225652992725,-0.00018201878992840648
1738773153854972200,8.20397216796875,0.002654107753187418,0.0007365222554653883,-0.0003306231810711324
1738773153864963300,8.21396337890625,-0.0006862996960990131,0.000791291706264019,-0.00008627043280284852
1738773153874954200,8.223954345703126,-0.00029827712569385767,0.0012517520226538181,0.0007707348559051752
1738773153884945200,8.233945068359375,0.0009880273137241602,0.0004347851499915123,-0.00006248246063478291
1738773153894937300,8.243937255859375,-0.001680992660112679,0.00013917405158281326,-0.000022535037714987993
1738773153904928300,8.25392822265625,-0.0015989437233656645,0.0006152624264359474,0.00021576794097200036
1738773153914919200,8.263919189453125,-0.0003235558979213238,-0.00027529848739504814,0.0006767611484974623
1738773153924910300,8.273910400390625,0.00013703759759664536,0.0013316913973540068,-0.0004660615813918412
1738773153934901200,8.2839013671875,-0.000509844277985394,-0.00023238337598741055,-0.0002546065952628851
1738773153945517300,8.294517333984375,-0.001390285324305296,-0.001316822599619627,0.0010527390986680984
1738773153955508200,8.30450830078125,-0.0006874579121358693,0.0016682585701346397,0.0015317370416596532
1738773153965499100,8.3144990234375,0.0005447868024930358,-0.0007877086754888296,-0.0002885335707105696
1738773153975490000,8.324489990234374,-0.000498324865475297,0.0006680178921669722,0.0009892606176435947
1738773153985482200,8.334482177734374,-0.0003023161552846432,-0.0011338768526911736,-0.0002531040518078953
1738773153995473200,8.34447314453125,0.00011157814878970385,-0.000720182666555047,-0.000739795621484518
1738773154005464000,8.354464111328125,-0.0004383646883070469,0.0007416263688355684,-0.00006495056732092053
1738773154015455200,8.364455322265625,0.00025250320322811604,0.000826697563752532,-0.00009892278467305005
1738773154025446100,8.374446044921875,0.0005390592850744724,0.0006189707200974226,0.0003077419241890311
1738773154035437000,8.38443701171875,-0.0018294509500265121,-0.0006210030987858772,0.00028931075939908624
1738773154045428200,8.39442822265625,0.0006267826538532972,-0.0008947760798037052,0.00026294548297300935
1738773154055419100,8.404419189453124,0.0005795749602839351,-0.00007135584019124508,0.001299569965340197
1738773154065411000,8.4144111328125,0.0005145937902852893,-0.0005826829001307487,0.0004279172862879932
1738773154075402200,8.42440234375,0.0006100429454818368,0.00023126485757529736,0.0011226590722799301
1738773154085393200,8.43439306640625,-0.0005271269474178553,0.0002051659394055605,-0.0006427504122257233
1738773154095384000,8.444384033203125,-0.00008178455755114555,0.00012399046681821346,-0.0014006220735609531
1738773154105375200,8.454375244140625,0.00012034934479743242,0.0003921708557754755,0.0004742433375213295
1738773154115366100,8.4643662109375,0.0007943121017888188,0.0003311766777187586,-0.000996193615719676
1738773154125357000,8.474357177734374,-0.0010579165536910295,0.0015200118068605661,0.00048825234989635646
1738773154135349200,8.484349365234374,-0.001395392115227878,0.00031394907273352146,0.00011259617167524993
1738773154145340200,8.494340087890626,-0.00040123413782566786,0.00003271922469139099,-0.0013175213243812323
1738773154155331000,8.5043310546875,-0.0016313365194946527,0.0003643282689154148,-0.00036175636341795325
1738773154165322200,8.514322265625,0.0004014542791992426,0.00012837187387049198,0.0006877954001538455
1738773154175313200,8.524313232421875,-0.0019234195351600647,-0.00017806119285523891,0.0005136349936947227
1738773154185304000,8.534303955078125,0.00023214297834783792,-0.00009470432996749878,0.00037435171543620527
1738773154195295000,8.544294921875,0.00028164603281766176,0.00029110023751854897,-0.0003752924094442278
1738773154205286100,8.5542861328125,-0.0010954744648188353,0.00013903365470468998,-0.0008133824449032545
1738773154215278000,8.564278076171876,0.000059064943343400955,-0.0002607726491987705,0.000006888614734634757
1738773154225269000,8.57426904296875,-0.0005846210988238454,0.0006686707492917776,0.000105691869975999
1738773154235260200,8.58426025390625,0.00026174401864409447,0.0009659903589636087,-0.00005589984357357025
1738773154245251000,8.5942509765625,-0.0010408080415800214,0.00014467141591012478,0.00033398691448383033
1738773154255242000,8.604241943359375,0.00039865518920123577,0.0008579406421631575,-0.00046262145042419434
1738773154265233200,8.614233154296874,0.00030997185967862606,0.0004022738430649042,-0.0003092233673669398
1738773154275224300,8.624224365234374,-0.001878383569419384,-0.00015007308684289455,0.00029729120433330536
1738773154285216000,8.634216064453126,-0.00010977836791425943,0.001193758100271225,-0.0008920765249058604
1738773154295207200,8.644207275390626,0.0000212246086448431,0.001829091226682067,0.00000936174183152616
1738773154305198000,8.654197998046875,0.0014092642813920975,0.0000791279599070549,-0.00030808706651441753
1738773154315189200,8.664189208984375,0.0007812795229256153,0.00042876647785305977,0.00015752812032587826
1738773154325180400,8.674180419921875,-0.0012618977343663573,-0.0005776421166956425,0.0006832360522821546
1738773154335171600,8.684171630859375,-0.0009773155907168984,-0.0007662368007004261,0.0010529736755415797
1738773154345162500,8.69416259765625,0.00031991011928766966,0.00228654476813972,-0.0011305520310997963
1738773154355153400,8.7041533203125,-0.0012045559706166387,0.00046939169988036156,-0.00023279142624232918
1738773154365145300,8.714145263671876,0.001145151094533503,-0.0008938803803175688,-0.0006844635354354978
1738773154375136300,8.72413623046875,0.0002197367139160633,0.0010862026829272509,0.0002623637847136706
1738773154385127400,8.73412744140625,-0.0005214209668338299,-0.0003833295777440071,0.0004365344939287752
1738773154395118600,8.74411865234375,0.0010483141522854567,-0.00023027975112199783,0.00022563413949683309
1738773154405109500,8.754109619140625,-0.0015107174403965473,0.0003438976127654314,0.00032363849459216
1738773154415100400,8.764100341796874,-0.001440684893168509,-0.0003170797135680914,0.0010741455480456352
1738773154425091600,8.774091552734374,-0.0013354900293052197,0.000243249349296093,-0.001229488872922957
1738773154435083300,8.784083251953126,-0.0007800173480063677,0.0006980933248996735,0.0007698947447352111
1738773154445074400,8.794074462890626,-0.0020831020083278418,0.000334838405251503,-0.0005979047273285687
1738773154455065600,8.804065673828125,0.0006121048936620355,0.0001284005120396614,-0.0003417986736167222
1738773154465056500,8.814056396484375,-0.000016134697943925858,-0.00027746520936489105,0.0003431663499213755
1738773154475047400,8.82404736328125,-0.0008383803069591522,-0.000602012500166893,-0.00015365600120276213
1738773154485038600,8.83403857421875,-0.0003432986559346318,-0.0001814994029700756,0.0013009626418352127
1738773154495029500,8.844029541015624,-0.0007181523251347244,0.0007192445918917656,0.0008623539470136166
1738773154505020400,8.8540205078125,0.0011814803583547473,-0.0017918497323989868,-0.0006431310321204364
1738773154515012600,8.8640126953125,0.0012073686812072992,-0.0010195921640843153,-0.0003012985398527235
1738773154525003500,8.87400341796875,-0.000938606564886868,0.0004326293710619211,-0.0005777346668764949
1738773154534994400,8.883994384765625,0.0006846534088253975,-0.0001663810107856989,0.00019026914378628135
1738773154544985600,8.893985595703125,-0.00006715685594826937,-0.0005951500497758389,-0.0009029585053212941
1738773154554976500,8.9039765625,-0.0007501690997742116,-0.001178789185360074,-0.0005630181985907257
1738773154564967400,8.913967529296874,-0.00038478337228298187,-0.0005526801105588675,0.0008921329863369465
1738773154574958300,8.923958251953126,-0.000051817973144352436,-0.0017089066095650196,-0.0008446706342510879
1738773154584949500,8.933949462890626,0.0024680651258677244,0.0006698286160826683,-0.00006809284968767315
1738773154594941400,8.94394140625,-0.00038697069976478815,-0.0011113546788692474,0.0010333668906241655
1738773154604932600,8.9539326171875,-0.0005419666995294392,-0.0011654167901724577,-0.00011791764700319618
1738773154614923500,8.963923583984375,0.00004874670412391424,-0.00017431192100048065,-0.0003466502530500293
1738773154624914400,8.97391455078125,-0.0004596507642418146,0.00033728103153407574,0.00041288332431577146
1738773154634905300,8.9839052734375,-0.000506492389831692,-0.0002264666836708784,-0.0005950195482000709
1738773154644896500,8.993896484375,0.0010546527337282896,0.0009418621193617582,-0.0006291079916991293
1738773154654887400,9.003887451171876,0.0004858574829995632,0.0005238486919552088,0.0006510481471195817
1738773154664879400,9.01387939453125,-0.0012318813242018223,-0.00011823954991996288,0.0004190868348814547
1738773154674870500,9.02387060546875,0.0008250130340456963,-0.00031259888783097267,-0.00009928568033501506
1738773154684861400,9.033861328125,-0.0006093655247241259,0.0015785119030624628,-0.00010807411308633164
1738773154694852400,9.043852294921875,-0.0015457397093996406,-0.0008056005463004112,-0.0007928558625280857
1738773154704843500,9.053843505859374,0.0006620208732783794,-0.0009273071773350239,0.00007054099114611745
1738773154714834400,9.06383447265625,0.0003295519854873419,0.00014094985090196133,0.00031896564178168774
1738773154724825300,9.073825439453126,0.0011865573469549417,0.00005466328002512455,0.0012087277136743069
1738773154734816500,9.08381640625,-0.0005680147442035377,0.0010881135240197182,0.0009018121054396033
1738773154744808400,9.093808349609375,0.0005715518491342664,-0.0008970068302005529,-0.0007821046747267246
1738773154754799400,9.10379931640625,-0.0006238847272470593,0.001550381537526846,0.0006990211550146341
1738773154764790500,9.11379052734375,0.000733528402633965,0.0005341195501387119,0.000829782453365624
1738773154774781400,9.123781494140625,-0.00035595393273979425,0.00009580538608133793,-0.0009398340480402112
1738773154784772400,9.1337724609375,-0.00018045154865831137,0.001602355856448412,-0.0005422241520136595
1738773154794763300,9.14376318359375,-0.002281372668221593,-0.00033670803532004356,0.00001484410313423723
1738773154804754400,9.15375439453125,0.0007690120255574584,-0.00029729329980909824,-0.00030686575337313116
1738773154814746400,9.163746337890625,-0.001648725476115942,-0.0012870258651673794,0.00035534630296751857
1738773154824737500,9.173737548828125,0.00029218627605587244,-0.0004188353195786476,0.0007945015677250922
1738773154834728400,9.183728515625,0.00045491347555071115,-0.0005473962519317865,0.0023091291077435017
1738773154844719400,9.19371923828125,0.0000045729102566838264,0.00028857006691396236,-0.00044298142893239856
1738773154854710300,9.203710205078124,-0.00015718548092991114,-0.000576353631913662,0.001871628686785698
1738773154864701400,9.213701416015626,0.0002593329409137368,-0.00003040558658540249,0.00037599753704853356
1738773154874692400,9.2236923828125,-0.0002657629083842039,-0.0009221718646585941,-0.00021665696112904698
1738773154884683300,9.233683349609375,0.0006040254374966025,-0.00027289311401546,-0.0008946977904997766
1738773154894675500,9.243675537109375,-0.0008583759190514684,-0.0015160776674747467,0.0005036886432208121
1738773154904666400,9.253666259765625,-0.00023093516938388348,-0.0017246033530682325,-0.00045451667392626405
1738773154914657300,9.2636572265625,-0.0005727376556023955,0.000689108157530427,0.0007209684699773788
1738773154924648400,9.2736484375,-0.0009959139861166477,0.00000600726343691349,0.0004466628597583622
1738773154934639400,9.283639404296874,0.000544965616427362,0.0006070148665457964,-0.0007851370610296726
1738773154944630300,9.29363037109375,0.0010909135453402996,-0.0004025897942483425,0.00010542399832047522
1738773154954621400,9.303621337890625,0.00027417903766036034,0.00029511936008930206,-0.00043775522499345243
1738773154964613400,9.31361328125,-0.0007436810992658138,0.000632009468972683,-0.0006566670490428805
1738773154974604300,9.323604248046875,-0.0007495551835745573,-0.0008247231598943472,-0.0006601759814657271
1738773154984595500,9.333595458984375,0.0015966898063197732,0.00034040980972349644,0.0007489025010727346
1738773154994586400,9.34358642578125,-0.00040285533759742975,-0.0003532436676323414,0.00039230380207300186
1738773155004577300,9.353577392578124,-0.0015629283152520657,-0.000035262200981378555,-0.0005935984081588686
1738773155014568400,9.363568359375,-0.0006758932722732425,-0.0010123476386070251,-0.00018252529844176024
1738773155024559600,9.3735595703125,0.000053546507842838764,-0.0000741160474717617,-0.0008339345222339034
1738773155034550500,9.383550537109375,0.0004744064062833786,-0.00004624994471669197,-0.0002860665845219046
1738773155044542500,9.39354248046875,0.0007255424279719591,0.0012762758415192366,0.00025721825659275055
1738773155054533400,9.403533447265625,0.0008119191043078899,-0.0002019326202571392,-0.0006923232576809824
1738773155064524300,9.413524169921875,-0.0008006248390302062,0.0008625327609479427,-0.0010433278512209654
1738773155074515500,9.423515380859374,-0.0010359733132645488,0.00014292821288108826,-0.00006864330498501658
1738773155084506600,9.433506591796874,-0.0013859126484021544,-0.0004967630375176668,-0.0012707941932603717
1738773155094497500,9.44349755859375,0.00020978099200874567,0.0004841610789299011,-0.000649352790787816
1738773155104488400,9.453488525390625,-0.00007917196489870548,-0.0000644500833004713,-0.00017477750952821225
1738773155114479600,9.463479736328125,-0.0004852038691751659,-0.000783899798989296,-0.00017627820488996804
1738773155124471600,9.473471435546875,0.00020162540022283792,0.0007649948820471764,0.0003438371350057423
1738773155134462500,9.48346240234375,0.002142287092283368,-0.0004801452159881592,-0.00032270848168991506
1738773155144453600,9.49345361328125,0.0001443836372345686,-0.0002875986974686384,0.00022590270964428782
1738773155154444500,9.503444580078124,-0.00060988066252321,0.0010212005581706762,0.00018954146071337163
1738773155164435500,9.513435546875,-0.0008937736274674535,-0.0014488811139017344,0.00003774129436351359
1738773155174426600,9.523426513671875,0.00013956741895526648,0.000802032183855772,0.00001342504401691258
1738773155184417500,9.53341748046875,-0.000043658073991537094,0.0003519579768180847,-0.0007511685253120959
1738773155194409500,9.543409423828125,-0.0001759325386956334,0.000007336260750889778,0.00020977896929252893
1738773155204400600,9.553400634765625,-0.00031308538746088743,0.001929605845361948,0.0008766344399191439
1738773155214391600,9.5633916015625,-0.000981047167442739,-0.0007682603318244219,-0.001010859850794077
1738773155224382500,9.573382568359374,0.0003377501852810383,-0.000022308900952339172,-0.0013163243420422077
1738773155234373400,9.583373291015626,0.00008268875535577536,0.0016022277995944023,0.0002675099531188607
1738773155244364500,9.593364501953126,-0.0013865772634744644,-0.0014031492173671722,-0.00036898552207276225
1738773155254355500,9.60335546875,0.000055308686569333076,0.0007259906269609928,0.0006770853651687503
1738773155264346400,9.613346435546875,-0.00021766533609479666,0.0011377152986824512,0.00021183115313760936
1738773155274338600,9.623338623046875,-0.001395419705659151,-0.0011647094506770372,-0.00006120635953266174
1738773155284329500,9.63332958984375,-0.0005328218685463071,0.0004861841443926096,-0.00035095828934572637
1738773155294320400,9.6433203125,-0.001067988108843565,0.001014547422528267,0.0003416488762013614
1738773155304311600,9.6533115234375,0.00016905029769986868,0.0010875184088945389,0.000035917997593060136
1738773155314302500,9.663302490234376,-0.0009027076885104179,-0.00042538996785879135,0.0005267200758680701
1738773155324293400,9.67329345703125,0.0006128973327577114,0.00043587619438767433,-0.0013039368204772472
1738773155334284500,9.683284423828125,-0.0006134589784778655,-0.0008988934569060802,0.0009135816362686455
1738773155344275500,9.693275390625,0.000946354353800416,0.0006414791569113731,-0.0011532977223396301
1738773155354267600,9.703267578125,-0.0009404526790603995,0.0005379170179367065,-0.0005533348303288221
1738773155364258600,9.713258544921874,0.0023821070790290833,-0.0006999201141297817,-0.0017088804161176085
1738773155374249500,9.72324951171875,-0.0008494944777339697,0.000009748851880431175,0.0007334223482757807
1738773155384240400,9.733240478515626,-0.000004739733412861824,0.00004277215339243412,0.0015898949932307005
1738773155394231600,9.7432314453125,0.001253765425644815,0.0014639606233686209,0.0004050314018968493
1738773155404222500,9.753222412109375,0.00098292191978544,-0.0012905469629913568,-0.00014784082304686308
1738773155414213400,9.76321337890625,0.0007936183828860521,0.0013127562124282122,0.0010050799464806914
1738773155424204500,9.77320458984375,-0.0010013520950451493,0.001025933539494872,-0.0005174492252990603
1738773155434196500,9.783196533203125,-0.000021698419004678726,0.0016152921598404646,0.0007549095898866653
1738773155444187400,9.7931875,0.0010630071628838778,0.0021396682132035494,-0.00011700933100655675
1738773155454178600,9.803178466796876,0.00021790806204080582,0.00008169887587428093,-0.000655358424410224
1738773155464169500,9.81316943359375,-0.0007972890161909163,-6.007030606269836e-8,0.0012112511321902275
1738773155474160400,9.823160400390625,-0.00034602044615894556,0.0009029668290168047,-0.00053579913219437
1738773155484151300,9.8331513671875,-0.001186247798614204,0.00014582998119294643,-0.000045511158532463014
1738773155494142500,9.843142578125,0.0014589797938242555,0.002550039440393448,-0.00030442586285062134
1738773155504133400,9.85313330078125,-0.0012358728563413024,-0.0002619922161102295,-0.0010349309304729104
1738773155514125600,9.86312548828125,0.00044660712592303753,0.0005719796754419804,0.00018339449889026582
1738773155524116500,9.873116455078126,0.0010974836768582463,0.0013301819562911987,0.0014393412275239825
1738773155534107400,9.883107421875,-0.0016596404602751136,0.0003788149915635586,-0.0008508822647854686
1738773155544098300,9.893098388671875,0.0003284092526882887,0.0010749651119112968,0.0003355559892952442
1738773155554089500,9.90308935546875,-0.0005331877619028091,-0.0000900274608284235,-0.0012126152869313955
1738773155564080400,9.913080322265625,0.0004106365377083421,-0.0010615484789013863,-0.0008602790185250342
1738773155574071300,9.9230712890625,0.001960949506610632,0.0004077213816344738,0.0010041260393336415
1738773155584062500,9.9330625,-0.00037757231621071696,-0.001221067737787962,0.0002504515287000686
1738773155594054400,9.943054443359374,-0.0010455468436703086,-0.0010966286063194275,0.0002745934762060642
1738773155604045300,9.95304541015625,0.0006751215551048517,0.0006195120513439178,0.0002660713507793844
1738773155614036500,9.963036376953125,-0.00041780772153288126,0.0007545596454292536,0.00021550699602812529
1738773155624027400,9.97302734375,0.0006301462417468429,-0.0019189879531040788,0.0005702400812879205
1738773155634018300,9.983018310546875,0.0015373743372038007,0.0012473133392632008,-0.00004926066321786493
1738773155644009500,9.993009521484375,-0.0014411049196496606,-0.0007404701318591833,-0.000998144969344139
1738773155654000600,10.003000732421874,-0.000838105333968997,-0.0003066530916839838,-0.0012257613707333803
1738773155663992300,10.012992431640624,0.00025245919823646545,-0.0005378155037760735,0.0006933124386705458
1738773155673983500,10.0229833984375,-0.0009013533126562834,-0.0011437567882239819,-0.00011774596350733191
1738773155683974400,10.032974365234375,0.0005255683790892363,0.0004051376599818468,-0.0003624904784373939
1738773155693965300,10.04296533203125,-0.0010282492730766535,-0.0004456613678485155,0.0013429521350190043
1738773155703956500,10.05295654296875,0.00006710877642035484,-0.0004017192404717207,-0.00079157151049003
1738773155713947600,10.06294775390625,-0.00003776862286031246,-0.0004919953644275665,-0.0005750777199864388
1738773155723938600,10.0729384765625,-0.0006713346228934824,0.00022945483215153217,0.0002638180449139327
1738773155733929500,10.082929443359374,0.0021218671463429928,0.00037418538704514503,-0.00026948758750222623
1738773155743921400,10.09292138671875,0.0010086657712236047,0.00007537868805229664,-0.0009685673285275698
1738773155753912600,10.10291259765625,0.001163572771474719,0.0007300844881683588,-0.000012742006219923496
1738773155763903500,10.112903564453125,-0.0002979700220748782,-0.0004584842827171087,-0.0009525715722702444
1738773155773894700,10.122894775390625,-0.00009128183592110872,0.0008766318205744028,0.0011646498460322618
1738773155783885600,10.132885498046875,0.0002173784887418151,-0.0006695995107293129,0.00029912247555330396
1738773155793876500,10.14287646484375,-0.0004485833924263716,0.000027972273528575897,-0.00018361513502895832
1738773155803867600,10.15286767578125,-0.0003292737528681755,0.00023356848396360874,-0.0015769810415804386
1738773155813858600,10.162858642578126,-0.0004365874920040369,-0.0006436884868890047,-0.0004031070857308805
1738773155823850500,10.1728505859375,-0.0006533688283525407,0.0014796499162912369,-0.0007067074766382575
1738773155833841700,10.182841552734375,-0.00020502263214439154,-0.0009316666983067989,-0.0009236070327460766
1738773155843832600,10.19283251953125,-0.0009054340189322829,-0.00028292066417634487,-0.00007725444447714835
1738773155853823500,10.202823486328125,-0.0005221026949584484,-0.00011961604468524456,-0.00003481167368590832
1738773155863814700,10.212814697265625,0.0007136039203032851,-0.0010322814341634512,-0.000423633202444762
1738773155873805600,10.2228056640625,-0.00013966509141027927,0.0019051781855523586,0.000673794187605381
1738773155883796500,10.23279638671875,-0.0023431647568941116,-0.0007681031711399555,0.0004748560313601047
1738773155893787400,10.242787353515626,0.000026652938686311245,-0.000421763164922595,-0.002064839005470276
1738773155903779600,10.252779541015625,0.001158762606792152,0.00040008826181292534,-0.0005255317664705217
1738773155913770500,10.2627705078125,0.0005244460189715028,0.0006908071227371693,-0.0000015820842236280441
1738773155923761400,10.272761474609375,0.00011138967238366604,-0.00009828759357333183,-0.0005059848190285265
1738773155933752600,10.282752685546875,-0.000018131686374545097,0.001518965233117342,0.00021444057347252965
1738773155943743500,10.292743408203124,-0.0002455656649544835,-0.0009639000054448843,-0.00011019877274520695
1738773155953734400,10.302734375,0.00263387942686677,0.00042968569323420525,-0.00012320741370785981
1738773155963725600,10.3127255859375,0.0006021535955369473,0.0007231663912534714,0.0005697470623999834
1738773155973716500,10.322716552734375,-0.0003698203363455832,-0.0010249426122754812,-0.00033627243828959763
1738773155983708400,10.33270849609375,0.0007854589493945241,-0.000298698665574193,0.0006496298010461032
1738773155993699600,10.342699462890625,-0.001526883221231401,0.0007058253977447748,0.001115604187361896
1738773156003690500,10.3526904296875,-0.000580662046559155,-0.00023080804385244846,-0.0008106601890176535
1738773156013681400,10.362681396484374,-0.0007709471974521875,-0.0004932705778628588,0.00021430238848552108
1738773156023672600,10.372672607421874,0.0008863379480317235,-0.00015531550161540508,0.0004297521081753075
1738773156033663500,10.38266357421875,0.0010239550611004233,-0.0013042711652815342,-0.0016483489889651537
1738773156043654400,10.392654296875,-0.0007081649382598698,-0.000016632722690701485,-0.000026217516278848052
1738773156053645300,10.402645263671875,-0.0003000951837748289,0.0008211010135710239,0.0009428024059161544
1738773156063637500,10.412637451171875,0.0008296177256852388,-0.000498761422932148,-0.00006760093674529344
1738773156073628400,10.42262841796875,-0.0010173784103244543,0.0010564301628619432,0.0002722606877796352
1738773156083619600,10.43261962890625,0.0011120853014290333,-0.0006147031672298908,-0.00022761465515941381
1738773156093610500,10.442610595703124,0.00010552967432886362,-0.00013682013377547264,-0.0005143051967024803
1738773156103601400,10.452601318359376,-0.0017107462044805288,0.001189167844131589,-0.0005555842071771622
1738773156113592300,10.46259228515625,0.0011294560972601175,-0.00032800203189253807,0.0005007063737139106
1738773156123583500,10.47258349609375,-0.0016450252151116729,0.0004677507095038891,-0.00024231559655163437
1738773156133575400,10.482575439453125,-0.0007625715807080269,0.0004885802045464516,0.00043058115988969803
1738773156143566300,10.49256640625,0.001587934442795813,0.0000174669548869133,-0.0005894094938412309
1738773156153557500,10.5025576171875,-0.0005832518800161779,0.0014984705485403538,0.0012146716471761465
1738773156163548400,10.51254833984375,-0.00005168491043150425,-0.0005375163163989782,-0.0008908234303817153
1738773156173539300,10.522539306640626,-0.0002717204624786973,-0.0017906849971041083,-0.0007106260163709521
1738773156183530500,10.532530517578126,-0.0009116780711337924,0.0010394563432782888,0.0016377493739128113
1738773156193521400,10.542521484375,0.0007705395109951496,-0.0008546060416847467,-0.00020175833196844906
1738773156203512300,10.55251220703125,-0.0010353499092161655,-0.00005512498319149017,0.00038520238013006747
1738773156213503500,10.56250341796875,0.00004511198494583368,0.00011884002014994621,0.0001048864796757698
1738773156223495400,10.572495361328125,-0.0013301443541422486,0.0007100619841367006,-0.00016329385107383132
1738773156233486300,10.582486328125,-0.0007645885925740004,0.000600114231929183,0.00024040325661189854
1738773156243477500,10.5924775390625,-0.0006870906217955053,-0.0013660977128893137,0.0009677124908193946
1738773156253468400,10.602468505859376,0.0017098167445510626,0.0008844414260238409,-0.0003004396567121148
1738773156263459300,10.612459228515625,-0.0002508023171685636,0.0010245235171169043,0.0015203634975478053
1738773156273450500,10.622450439453125,-0.001976694678887725,0.00003401143476366997,0.0013943557860329747
1738773156283441700,10.632441650390625,0.0004917893093079329,0.0021360444370657206,-0.0010994281619787216
1738773156293433300,10.642433349609375,0.0008770384592935443,0.0010292683728039265,0.0009338367381133139
1738773156303424500,10.652424560546875,0.000846678507514298,-0.0001422562636435032,0.000484827789478004
1738773156313415400,10.66241552734375,0.0010797166032716632,-0.0007489591371268034,0.0009408535552211106
1738773156323406300,10.67240625,-0.00025905435904860497,0.0006468037609010935,-0.00020883309480268508
1738773156333397500,10.6823974609375,-0.000907130423001945,-0.0005140083376318216,0.0004326254711486399
1738773156343388700,10.692388671875,0.0010572171304374933,-0.00006286893039941788,-0.0009274508338421583
1738773156353379800,10.7023798828125,-0.00028445268981158733,0.000047230860218405724,0.0004701207799371332
1738773156363370800,10.712370849609375,-0.0006351909833028913,-0.0004824718926101923,-0.0016138027422130108
1738773156373362700,10.72236279296875,-0.0003157490282319486,0.0013082760851830244,-0.00018895922403316945
1738773156383353600,10.732353515625,-0.0006478452123701572,-0.0007934907916933298,0.00005871475150343031
1738773156393344800,10.7423447265625,0.00015193980652838945,0.0007665359880775213,0.00026936555514112115
1738773156403336000,10.7523359375,0.0005958887049928308,-0.0003056528512388468,0.00031756877433508635
1738773156413326800,10.762326904296875,0.00045848090667277575,0.0014505279250442982,-0.0007223698776215315
1738773156423317800,10.77231787109375,0.0004978956421837211,-0.0003007669001817703,-0.0005673739360645413
1738773156433308700,10.78230859375,-0.00028836721321567893,0.0007145884446799755,-0.001002065953798592
1738773156443299800,10.7922998046875,-0.0007634751964360476,0.0005308301188051701,-0.0007879477925598621
1738773156453291800,10.802291748046875,0.000045692198909819126,-0.00046327593736350536,0.0004458575276657939
1738773156463282700,10.81228271484375,0.00029496406204998493,-0.00016207247972488403,-0.00032086652936413884
1738773156473273900,10.82227392578125,0.001103522488847375,-0.00018665031529963017,0.0013550373259931803
1738773156483264800,10.8322646484375,0.0003019109135493636,-0.0010234154760837555,0.0013015078147873282
1738773156493255700,10.842255615234375,-0.000860125757753849,-0.00037987250834703445,-0.0002413526235613972
1738773156503246800,10.852246826171875,-0.00035119568929076195,0.0009192172437906265,0.0006010052165947855
1738773156513237800,10.86223779296875,-0.000736862188205123,-0.002989507745951414,0.0010502957738935947
1738773156523229700,10.872229736328125,-0.001106509007513523,0.002274762839078903,-0.00030099222203716636
1738773156533220900,10.882220947265624,0.00030065164901316166,0.0008445545099675655,0.001084362855181098
1738773156543211800,10.892211669921876,0.0007853469578549266,-0.00010512885637581348,-0.0005468233721330762
1738773156553202700,10.90220263671875,0.0005965931341052055,0.0012148625683039427,0.0009325588471256196
1738773156563193900,10.91219384765625,0.0013225709553807974,-0.00025573489256203175,-0.000990775995887816
1738773156573184800,10.922184814453125,0.0002774394815787673,-0.0007594896014779806,0.001657774206250906
1738773156583175700,10.93217578125,-0.0013273813528940082,0.00014385441318154335,-0.000314829230774194
1738773156593168000,10.94216796875,-0.0002015656791627407,-0.000215927604585886,0.00006409048364730552
1738773156603158800,10.95215869140625,-0.0005123565788380802,-0.0006393701769411564,0.00007713998638791963
1738773156613149700,10.962149658203124,-0.0002548058400861919,0.0006930716335773468,0.0010294652311131358
1738773156623140600,10.972140625,0.0012615981977432966,0.00011649727821350098,0.0009208082919940352
1738773156633131800,10.9821318359375,-0.0005324991652742028,-0.0007421958725899458,-0.0004972171154804528
1738773156643122700,10.992122802734375,0.0006582001224160194,0.0002503639552742243,0.0013576745986938477
1738773156653113600,11.002113525390625,0.0006428107153624296,-0.0013482640497386456,0.0006234475877135992
1738773156663104800,11.012104736328125,-0.0006232560845091939,-0.00021162698976695538,0.00028495979495346546
1738773156673096700,11.0220966796875,-0.002195823471993208,0.0004605492576956749,0.0011929532047361135
1738773156683087600,11.032087646484374,-0.00185121048707515,-0.0004156308714300394,0.0018366392469033599
1738773156693078800,11.042078857421876,0.000068998197093606,-0.0014061953406780958,-0.0000406806830142159
1738773156703069700,11.052069580078125,0.00003943708725273609,-0.00026955828070640564,-0.0010175281204283237
1738773156713060600,11.062060546875,0.0005845766281709075,-0.0003454543184489012,0.00016336096450686455
1738773156723051800,11.0720517578125,-0.000538478372618556,-0.0002056383527815342,-0.0007703432929702103
1738773156733042700,11.082042724609375,0.00010408216621726751,-0.0009881581645458937,0.0004691806389018893
1738773156743034600,11.09203466796875,-0.00006715906783938408,0.0004789771046489477,-0.0009766494622454047
1738773156753025800,11.10202587890625,0.0016403287881985307,0.00040760147385299206,-0.0005228285444900393
1738773156763016700,11.1120166015625,0.0006253980100154877,0.0002850957680493593,0.0006987634114921093
1738773156773007600,11.122007568359376,-0.000795602158177644,-0.00037235929630696774,0.0005092245410196483
1738773156782998800,11.131998779296875,-0.00005364546086639166,0.00018583936616778374,0.0006295993807725608
1738773156792989700,11.14198974609375,0.0003092450788244605,-0.0009412302169948816,-0.00030038951081223786
1738773156802980600,11.151980712890625,-0.00012591551057994366,0.0007253757212311029,-0.0008993344381451607
1738773156812972800,11.161972900390625,0.0015419393312186003,-0.000574047677218914,-0.00023253588005900383
1738773156822963700,11.171963623046874,0.0005725488299503922,-0.00041425786912441254,0.0006180777563713491
1738773156832954600,11.18195458984375,0.0005372138693928719,-0.00003674929030239582,-0.00026226480258628726
1738773156842945500,11.191945556640626,0.0008189763175323606,-0.0008530081249773502,0.0016232532216235995
1738773156852936700,11.201936767578125,-0.00030497682746499777,0.0005695109721273184,-0.00037720115506090224
1738773156862927600,11.211927734375,0.0007807938382029533,0.00019054324366152287,0.0005293388967402279
1738773156872918500,11.22191845703125,0.00009221688378602266,0.0010282436851412058,0.0013083618832752109
1738773156882909700,11.23190966796875,0.0020056981593370438,-0.0009092059917747974,0.0004300513828638941
1738773156892901600,11.241901611328124,-0.000736253394279629,0.0016877425368875265,0.0007967120036482811
1738773156902892500,11.251892578125,-0.000608421687502414,-0.00056236214004457,-0.0006589718395844102
1738773156912883700,11.2618837890625,0.0013676667585968971,-0.00048732501454651356,0.000591008341871202
1738773156922874600,11.27187451171875,0.0011202592868357897,0.0002133524976670742,-0.0009656092734076083
1738773156932865500,11.281865478515625,0.0003334017237648368,-0.0005977991968393326,-0.0004131919122301042
1738773156942856700,11.291856689453125,-0.00004743027966469526,0.0005878398660570383,0.0012536805588752031
1738773156952847600,11.30184765625,-0.0014542053686454892,0.0005696651060134172,0.0000879729850566946
1738773156962839600,11.311839599609375,-0.00021050916984677315,0.0004074785392731428,0.0014741483610123396
1738773156972830700,11.321830810546874,0.0028588883578777313,0.0013394281268119812,-0.0009066599886864424
1738773156982821600,11.331821533203126,0.0018546103965491056,-0.000014523044228553772,-0.0000576442398596555
1738773156992812500,11.3418125,-0.0002932933275587857,0.0007281233556568623,-0.0000853960809763521
1738773157002803700,11.3518037109375,-0.0004309787764213979,-0.0011054633650928736,-0.0004792776016984135
1738773157012794600,11.361794677734375,-0.0006460981094278395,0.0010932637378573418,-0.00041522260289639235
1738773157022785500,11.37178564453125,0.00024765869602560997,0.0006676907651126385,0.0010356676066294312
1738773157032777700,11.38177783203125,0.0012566556688398123,-0.000015675323083996773,0.0005532056093215942
1738773157042768600,11.3917685546875,-0.000657091848552227,0.0016855518333613873,-0.00015572784468531609
1738773157052759600,11.401759521484376,0.00012419233098626137,-0.0004619644023478031,-0.00040336180245503783
1738773157062750500,11.41175048828125,-0.0011772944126278162,0.0005260682664811611,0.0015018637059256434
1738773157072741600,11.42174169921875,-0.00047878577606752515,0.0008344217203557491,0.0005740911001339555
1738773157082732800,11.43173291015625,-0.0009765306022018194,0.00034972652792930603,-0.0004107458225917071
