time,seconds_elapsed,z,y,x
1738773145676609500,0.025609619140625,0.0019177423091605306,0.0027379959356039762,-0.000526773277670145
1738773145687849500,0.036849365234375,0.002033855998888612,0.0034410704392939806,0.0009571401169523597
1738773145697840400,0.04684033203125,0.002971288748085499,0.004326571244746447,-0.0007403587806038558
1738773145707831300,0.056831298828125,-0.000827177835162729,0.0028929917607456446,0.0006913566030561924
1738773145717822500,0.066822509765625,0.0014168017078191042,0.005061337724328041,0.001121723442338407
1738773145727813400,0.0768134765625,0.0014527543680742383,0.0032551817130297422,0.0001257012045243755
1738773145737804300,0.08680419921875,0.0021108214277774096,0.004727377090603113,0.0013289173366501927
1738773145747795500,0.09679541015625,0.0014229270163923502,0.004288222175091505,0.0001323590986430645
1738773145757787400,0.106787353515625,0.00088949577184394,0.0041734399273991585,0.00035926041891798377
1738773145767778300,0.1167783203125,0.000483363721286878,0.003964381758123636,0.000743554555810988
1738773145777769500,0.12676953125,-0.0008191883680410683,0.0029888655990362167,-0.0006772418855689466
1738773145787760400,0.136760498046875,0.00003781688792514615,0.003287405939772725,-0.0013235911028459668
1738773145797751600,0.14675146484375,0.0029230855870991945,0.0038037928752601147,0.0010631339391693473
1738773145807742700,0.15674267578125,0.002284725895151496,0.0033159018494188786,0.00003355582884978503
1738773145817733600,0.166733642578125,0.002228799508884549,0.005139101762324572,-0.000987500068731606
1738773145827724500,0.176724609375,-0.00004953479583491571,0.002674612682312727,0.0010066748363897204
1738773145837716500,0.186716552734375,0.0011829761788249016,0.005429652985185385,-0.0008759136544540524
1738773145847707400,0.196707275390625,0.0023033679462969303,0.003888481529429555,-0.00012064119800925255
1738773145857698600,0.206698486328125,0.0010572749888524413,0.0024285365361720324,0.000055660068028373644
1738773145867689500,0.216689453125,0.0011201255256310105,0.005658152047544718,0.0001656486128922552
1738773145877680600,0.2266806640625,0.0030836742371320724,0.004974784795194864,-0.0004519384237937629
1738773145887671600,0.236671630859375,0.00017843178648035973,0.003228283952921629,0.0007637945818714797
1738773145897662500,0.246662353515625,0.00048389637959189713,0.006030461750924587,-0.001276186783798039
1738773145907654400,0.256654296875,0.0027385284192860126,0.0023454460315406322,-0.00014034859486855567
1738773145917645600,0.2666455078125,0.0028546424582600594,0.0036631780676543713,0.0011318434262648225
1738773145927636500,0.276636474609375,0.0023422501981258392,0.005193963181227446,0.0000023968450477696024
1738773145937627600,0.286627685546875,0.0021489046048372984,0.0038924762047827244,-0.000550475378986448
1738773145947618600,0.29661865234375,0.0035489285364747047,0.003912449814379215,0.0006849650526419282
1738773145957609500,0.306609375,0.0026437200140208006,0.004307396709918976,0.0016887104138731956
1738773145967600600,0.3166005859375,0.0023489079903811216,0.0019017633749172091,0.0003374225052539259
1738773145977592600,0.326592529296875,0.002103098202496767,0.004519650712609291,0.00028389296494424343
1738773145987583500,0.33658349609375,0.004099403973668814,0.003375822911038995,-0.0011523497523739934
1738773145997574700,0.34657470703125,0.0022295983508229256,0.004083158448338509,0.0003989415417890996
1738773146007565600,0.356565673828125,0.003215500619262457,0.003349191276356578,-0.00028389296494424343
1738773146017556500,0.366556396484375,0.003229881636798382,0.0012711267918348312,-0.0016647420125082135
1738773146027547600,0.376547607421875,0.001374723738990724,0.007505320478230715,0.0024471788201481104
1738773146037538600,0.38653857421875,0.003180080559104681,0.0009763148264028132,-0.0031214910559356213
1738773146047529500,0.396529541015625,0.0028458540327847004,0.00361817074008286,0.0018783274572342634
1738773146057521700,0.406521728515625,0.0018516959389671683,0.007346063386648893,0.0006436860421672463
1738773146067512600,0.4165126953125,0.0031246868893504143,-0.00040959418402053416,-0.0000673779723001644
1738773146077503500,0.42650341796875,0.0020969731267541647,0.0081487400457263,0.0010218549286946654
1738773146087494400,0.436494384765625,0.0009970874525606632,0.0032117723021656275,-0.0005909554311074317
1738773146097485600,0.446485595703125,0.0017158746486529708,0.0017062872648239136,0.00011824435205198824
1738773146107476500,0.4564765625,0.0015635418239980936,0.007831824012100697,0.0012679309584200382
1738773146117467400,0.46646728515625,0.0015126754296943545,0.0013020194601267576,-0.0010985539993271232
1738773146127459600,0.47645947265625,0.0038402783684432507,0.003686880227178335,-0.0004743089957628399
1738773146137450500,0.486450439453125,0.0031340080313384533,0.008080563507974148,-0.0007033408619463444
1738773146147441400,0.49644140625,0.001520665013231337,0.0008753810543566942,-0.0010836402652785182
1738773146157432600,0.5064326171875,0.0035350800026208162,0.004604339133948088,0.0014165353495627642
1738773146167423500,0.516423583984375,0.0027321369852870703,0.004294879734516144,-0.0008809737046249211
1738773146177414400,0.526414306640625,0.0025393241085112095,0.001549693406559527,0.00043835630640387535
1738773146187405600,0.536405517578125,0.0022860574536025524,0.005026450380682945,0.0006141249323263764
1738773146197396500,0.546396484375,0.004265318624675274,0.0024618261959403753,-0.0009448895580135286
1738773146207388400,0.556388427734375,0.0025326660834252834,0.003172357566654682,0.00006524744821945205
1738773146217379600,0.566379638671875,0.002130528911948204,0.004467719234526157,0.0005179848521947861
1738773146227370500,0.57637060546875,0.0009970874525606632,0.003656520042568445,0.0007912251749075949
1738773146237361400,0.586361328125,0.0033862092532217503,0.00355904852040112,0.000185888638952747
1738773146247352600,0.5963525390625,0.0015483618481084704,0.004087952431291342,-0.0008458199445158243
1738773146257343500,0.606343505859375,0.001350488979369402,0.0020969731267541647,0.000690291344653815
1738773146267334400,0.61633447265625,0.0011808456620201468,0.005145227070897818,-0.00041811628034338355
1738773146277326600,0.62632666015625,0.00007776429993100464,0.0026618295814841986,-0.0002591255761217326
1738773146287317500,0.6363173828125,0.0017891116440296173,0.002665025182068348,-0.00039760995423421264
1738773146297308400,0.646308349609375,0.0011624698527157307,0.0041247038170695305,-0.0026581010315567255
1738773146307299300,0.65629931640625,0.0008452873444184661,0.004699414130300283,0.0009797769598662853
1738773146317290800,0.666290771484375,0.002484462922438979,0.004737230949103832,0.0018730012234300375
1738773146327281700,0.67628173828125,0.0005480785621330142,0.0033750240691006184,0.0008362325606867671
1738773146337272600,0.6862724609375,0.0020663465838879347,0.0029909962322562933,-0.00036458674003370106
1738773146347264800,0.6962646484375,0.00045140579459257424,0.0036932716611772776,0.0000066579027588886674
1738773146357255700,0.706255615234375,0.0021142836194485426,0.003686880227178335,0.0016287893522530794
1738773146367246600,0.71624658203125,0.002710299100726843,0.002229332225397229,-0.000290018244413659
1738773146377237800,0.72623779296875,-0.0006351639167405665,0.004190217703580856,0.000963797967415303
1738773146387228700,0.736228759765625,0.002846652874723077,0.005717274267226458,0.000972852751147002
1738773146397219600,0.746219482421875,0.0011249192757532,0.005768939387053251,-0.000925448490306735
1738773146407210800,0.756210693359375,0.0006314354832284153,0.0029313412960618734,-0.001050617080181837
1738773146417202700,0.76620263671875,0.002448244020342827,0.0027486486360430717,-0.0009275790071114898
1738773146427193600,0.776193603515625,-0.00029401297797448933,0.0041302964091300964,0.0007901599165052176
1738773146437184800,0.786184814453125,0.0005573995877057314,0.0037175065372139215,0.0005286374944262207
1738773146447175700,0.79617578125,0.000580036488827318,0.0032714270055294037,-0.00042876892257481813
1738773146457166600,0.80616650390625,0.001987517112866044,0.004467452876269817,-0.000606668065302074
1738773146467157800,0.81615771484375,0.0019156117923557758,0.0034173682797700167,-0.0003736414946615696
1738773146477148700,0.826148681640625,0.0035081820096820593,0.0052296495996415615,0.00008868326403899118
1738773146487139600,0.8361396484375,0.0008594020619057119,0.004757737275213003,0.0005675196298398077
1738773146497131800,0.8461318359375,0.0022796657867729664,0.0035332157276570797,0.0003022687742486596
1738773146507122700,0.856122802734375,0.0013763216556981206,0.002781671704724431,0.0010093380697071552
1738773146517113600,0.866113525390625,0.0010964233661070466,0.003201119601726532,0.0011110707418993115
1738773146527104500,0.8761044921875,0.0013435647124424577,0.0034109766129404306,-0.00017443705291952938
1738773146537095700,0.886095703125,0.0028812738601118326,0.0038187066093087196,0.002311357529833913
1738773146547086600,0.896086669921875,0.0009374326909892261,0.00401684595271945,0.000844754686113447
1738773146557077800,0.906077880859375,0.000624777574557811,0.004003796260803938,0.0015704660909250379
1738773146567069700,0.916069580078125,0.0008769789128564298,0.005875199567526579,-0.0004551342281047255
1738773146577060600,0.926060546875,0.0018021611031144857,0.00301656243391335,0.0007547398563474417
1738773146587051500,0.936051513671875,0.0016476977616548538,0.0029108349699527025,-0.0002463423879817128
1738773146597042700,0.946042724609375,0.001076982356607914,0.0034290861804038286,-0.0004040015337523073
1738773146607033900,0.956033935546875,0.0004394215648062527,0.0030831415206193924,-0.00014274542627390474
1738773146617024800,0.966024658203125,0.001740642124786973,0.003683418035507202,0.00009374327055411413
1738773146627016000,0.976015869140625,0.0012229235144332051,0.004021905828267336,0.00039228363311849535
1738773146637006800,0.9860068359375,0.0016040218761190772,0.005078381858766079,0.0007459514308720827
1738773146646998500,0.99599853515625,0.000922252656891942,0.002686064224690199,0.0011094729416072369
1738773146656989700,1.00598974609375,-0.0006354302167892456,0.003132410114631057,-0.0002623213513288647
1738773146666980900,1.01598095703125,0.00041758365114219487,0.0037971350830048323,-0.00011877698125317693
1738773146676971800,1.0259716796875,0.002502039773389697,0.004144411068409681,0.0008317052270285785
1738773146686963000,1.035962890625,0.0023092268966138363,0.0049164616502821445,0.0009116000146605074
1738773146696953900,1.045953857421875,0.0024554345291107893,0.002624811604619026,-0.0011020160745829344
1738773146706944800,1.05594482421875,0.0016431703697890043,0.004236290231347084,0.0008849684381857514
1738773146716936700,1.065936767578125,0.002305498579517007,0.00427171029150486,0.0015547533985227346
1738773146726928000,1.075927978515625,0.0020485036075115204,0.002614957746118307,-0.0006317017832770944
1738773146736918800,1.085918701171875,0.0015574166318401694,0.0057127466425299644,0.002040780382230878
1738773146746909700,1.09590966796875,0.0009933591354638338,0.003742273896932602,0.0007217166712507606
1738773146756900900,1.10590087890625,0.0019739349372684956,0.003966778516769409,-0.0005161206354387105
1738773146766891800,1.115891845703125,0.00205223192460835,0.004808870144188404,-0.0009717874927446246
1738773146776882700,1.125882568359375,0.0015864450251683593,0.002739860210567713,-0.00008548746700398624
1738773146786873900,1.135873779296875,0.002091913018375635,0.005812082905322313,0.0004106594424229115
1738773146796865800,1.14586572265625,0.001680720946751535,0.003931092098355293,0.0010151970200240612
1738773146806856700,1.155856689453125,0.000571248063351959,0.0034645062405616045,-0.00048602689639665186
1738773146816848000,1.165847900390625,0.0013986921403557062,0.004070907831192017,-0.00002157160452043172
1738773146826838800,1.1758388671875,0.0008671252289786935,0.003323092358186841,-0.0013022858183830976
1738773146836829700,1.18582958984375,0.0008471515611745417,0.004123372491449118,-0.0014516890514642
1738773146846820900,1.19582080078125,0.00037523938226513565,0.00318886898458004,-0.001056476030498743
1738773146856811800,1.205811767578125,0.0017896442441269755,0.0026618295814841986,0.0010050770360976458
1738773146866803700,1.2158037109375,0.001924932817928493,0.005315136630088091,0.0010655306978151202
1738773146876795000,1.225794921875,-0.00026525085559114814,0.003762780223041773,0.000606668065302074
1738773146886785800,1.235785888671875,0.0016823188634589314,0.0041036647744476795,0.000258859246969223
1738773146896776700,1.245776611328125,0.0014705975772812963,0.004526308737695217,0.00009454221435589716
1738773146906768000,1.255767822265625,0.0008484831196255982,0.004452539142221212,-0.000021837920940015465
1738773146916758800,1.2657587890625,0.0015363775892183185,0.003635747591033578,0.001674595638178289
1738773146926749700,1.275749755859375,-0.00023276027059182525,0.0065167550928890705,0.0003909520455636084
1738773146936740600,1.28574072265625,0.00058323226403445,0.0014168017078191042,0.0007520766812376678
1738773146946732800,1.29573291015625,0.0028245486319065094,0.0041614556685090065,0.00130947632715106
1738773146956723700,1.3057236328125,-0.0013113404856994748,0.004540157038718462,-0.00027803401462733746
1738773146966714600,1.315714599609375,0.0014748586108908057,0.002951048780232668,0.0007808388327248394
1738773146976705800,1.325705810546875,-0.0007408913807012141,0.004864796530455351,0.0012479572324082255
1738773146986696700,1.33569677734375,0.0021078919526189566,0.004054396413266659,-0.0005163869354873896
1738773146996687600,1.3456875,0.0002892192860599607,0.003359045134857297,0.0012114719720557332
1738773147006678800,1.3556787109375,0.000743820914067328,0.005318332463502884,0.0023459785152226686
1738773147016670700,1.365670654296875,0.0007643272401764989,0.003079413203522563,-0.00018029600323643535
1738773147026661600,1.37566162109375,0.00042743736412376165,0.004529770463705063,0.0014836470363661647
1738773147036652800,1.38565283203125,0.0008596684201620519,0.003754524514079094,0.0007257114048115909
1738773147046643700,1.395643798828125,0.0017931063193827868,0.002662362065166235,-0.00002103897168126423
1738773147056634600,1.405634521484375,0.001133707701228559,0.004942294210195541,-0.0005997438565827906
1738773147066625800,1.415625732421875,0.001109739183448255,0.003403519745916128,0.00028389296494424343
1738773147076616700,1.42561669921875,0.00162426196038723,0.0043534692376852036,-0.0003579288604669273
1738773147086607600,1.435607666015625,-0.000007456851108145202,0.002683401107788086,0.0006383596919476986
1738773147096599800,1.445599853515625,0.0014503574930131435,0.0037561224307864904,0.0002468750171829015
1738773147106590700,1.4555908203125,0.0016506272368133068,0.003102582646533847,-0.0015662050573155284
1738773147116581600,1.46558154296875,0.0019861855544149876,0.0027169568929821253,0.0009720537927933037
1738773147126572800,1.47557275390625,0.0013459615875035524,0.00555295730009675,-0.00005912217602599412
1738773147136563700,1.485563720703125,0.0022511701099574566,0.0032887374982237816,0.00010146643762709573
1738773147146554600,1.4955546875,0.0016042882343754172,0.004942027851939201,-0.00014540860138367862
1738773147156545500,1.505545654296875,0.00019441076437942684,0.0040735709480941296,0.00015180018090177327
1738773147166536700,1.51553662109375,0.0004522047529462725,0.0030663637444376945,0.0002820287481881678
1738773147176528600,1.525528564453125,0.0008761800127103925,0.004033357370644808,0.0011906992876902223
1738773147186519600,1.53551953125,0.0019241338595747948,0.0038368161767721176,-0.0005880259559489787
1738773147196510700,1.5455107421875,0.00025246766745112836,0.004356931429356337,-0.0002002697146963328
1738773147206501600,1.555501708984375,0.0016764599131420255,0.003364637726917863,0.0006628608098253608
1738773147216492500,1.565492431640625,0.0021467742044478655,0.004547081422060728,0.0008514125947840512
1738773147226483700,1.575483642578125,0.0010596717474982142,0.0036304211243987083,0.0014421016676351428
1738773147236475000,1.585474853515625,0.0006356965750455856,0.003025883575901389,0.0018181400373578072
1738773147246466600,1.595466552734375,0.002357163932174444,0.003837615018710494,0.00021278657368384302
1738773147256457700,1.605457763671875,0.0016583503456786275,0.002382996492087841,-0.0001608549355296418
1738773147266448600,1.61544873046875,0.0007683219737373292,0.005287173669785261,-0.0013928331900388002
1738773147276439600,1.625439453125,0.00126766471657902,0.0035145736765116453,-0.00024580975878052413
1738773147286430700,1.6354306640625,0.002499909373000264,0.003972903825342655,0.0011994877131655812
1738773147296422000,1.645421875,0.000508663768414408,0.004996622912585735,-0.0006599313346669078
1738773147306412800,1.655412841796875,0.0012516856659203768,0.002918558195233345,0.0008149272762238979
1738773147316404000,1.665404052734375,0.0029768813401460648,0.003087668912485242,0.002397377509623766
1738773147326395600,1.675395751953125,0.0027632960118353367,0.006441920530050993,0.00024740767548792064
1738773147336386800,1.68538671875,0.001026115962304175,0.0008207862265408039,0.0012000204296782613
1738773147346377700,1.695377685546875,0.0016993631143122911,0.005604089703410864,-0.001139566651545465
1738773147356369000,1.705368896484375,0.0007307713967747986,0.004523112904280424,0.0002721750643104315
1738773147366359800,1.71535986328125,-0.00039414784987457097,0.002258094260469079,-0.0006982808117754757
1738773147376351000,1.72535107421875,0.001865011639893055,0.0046509443782269955,0.0010780475568026304
1738773147386342000,1.735341796875,0.0004796353168785572,0.0031241541728377342,-0.000003728425554072601
1738773147396332800,1.745332763671875,0.0004308994684834033,0.0036940707359462976,-0.0008743157959543169
1738773147406324700,1.75532470703125,0.0013353090034797788,0.003906590864062309,0.0008346347021870315
1738773147416316000,1.76531591796875,0.0011507519520819187,0.002691656816750765,0.00041571943438611925
1738773147426306800,1.775306884765625,0.0023156185634434223,0.0028762139845639467,0.0006793724023737013
1738773147436298000,1.785298095703125,0.0017483652336522937,0.002974218223243952,0.0022509037517011166
1738773147446289000,1.795288818359375,0.003260774305090308,0.0029883331153541803,0.0011456918437033892
1738773147456279800,1.80527978515625,0.002894589677453041,0.004226436838507652,-0.0007150587625801563
1738773147466271000,1.81527099609375,0.002290851203724742,0.004785966593772173,0.002201901515945792
1738773147476262000,1.825261962890625,0.0018466358305886388,0.0027973842807114124,0.00048123320448212326
1738773147486253800,1.83525390625,0.000809068325906992,0.0024458470288664103,-0.00017417073831893504
1738773147496245000,1.845244873046875,0.001990446588024497,0.005245361942797899,0.00033928672201000154
1738773147506236000,1.85523583984375,0.000749679864384234,0.0033694314770400524,-0.0009986853692680597
1738773147516226800,1.865226806640625,0.001877262257039547,0.003778226673603058,-0.0004471447318792343
1738773147526217700,1.8752177734375,0.0001877528557088226,0.003425091505050659,0.0004159857635386288
1738773147536209000,1.885208984375,0.0015723302494734526,0.001585646066814661,0.00016937704640440643
1738773147546199800,1.89519970703125,0.0016170714516192675,0.00532419141381979,0.0021108214277774096
1738773147556190700,1.905190673828125,0.00017017599020618945,0.0029585056472569704,-0.0008932242053560913
1738773147566183000,1.915182861328125,-0.00017124126316048205,0.003427754621952772,0.00040027310024015605
1738773147576173800,1.925173828125,0.001981391804292798,0.0043622576631605625,0.00011265171633567661
1738773147586164700,1.935164794921875,0.000957939017098397,0.004099670331925154,0.0005616606795229018
1738773147596156000,1.945156005859375,0.0031318773981183767,0.005346029531210661,0.00006817692337790504
1738773147606146800,1.955146728515625,0.0005470133037306368,0.004232295788824558,0.0012207929976284504
1738773147616137700,1.9651376953125,0.0026879284996539354,0.0028565065003931522,-0.0005390237784013152
1738773147626129000,1.97512890625,0.00018242653459310532,0.0034583809319883585,-0.0010966897243633866
1738773147636120800,1.985120849609375,0.00034221619716845453,0.0037670412566512823,0.0003587277897167951
1738773147646111700,1.99511181640625,-0.00032437301706522703,0.0026088326703757048,-0.00023915186466183513
1738773147656103000,2.00510302734375,0.0007483482477255166,0.0035020567011088133,-0.0010902981739491224
1738773147666093800,2.01509375,0.0030104373581707478,0.004125769250094891,0.00029587719473056495
1738773147676084700,2.025084716796875,0.0017749968683347106,0.003802194958552718,0.00049082055920735
1738773147686076000,2.035075927734375,0.0026487798895686865,0.003480751533061266,0.001008272753097117
1738773147696066800,2.04506689453125,0.001996571896597743,0.003870371961966157,0.0020447750575840473
1738773147706057700,2.0550576171875,0.001148355077020824,0.0030216225422918797,-0.0005765743553638458
1738773147716050000,2.0650498046875,0.0019497001776471734,0.0044408212415874004,0.00041758365114219487
1738773147726040800,2.075040771484375,0.0009797769598662853,0.0038123151753097773,0.0002846919232979417
1738773147736031700,2.08503173828125,0.0008221178431995213,0.0027513117529451847,-0.0002892192860599607
1738773147746022700,2.095022705078125,0.0006567355012521148,0.004174771253019571,0.000979244359768927
1738773147756013800,2.105013916015625,0.002566754585132003,0.0030128341168165207,-0.0005062668933533132
1738773147766004700,2.115004638671875,0.0023523701820522547,0.0038256309926509857,0.003442135639488697
1738773147775995600,2.12499560546875,0.0005174521938897669,0.005423261318355799,0.0005946838646195829
1738773147785986800,2.13498681640625,0.001446362817659974,0.003145459573715925,0.0012306467397138476
1738773147795978800,2.144978759765625,0.0007693872321397066,0.004477039910852909,-0.0011984225129708648
1738773147805969700,2.1549697265625,0.0014383733505383134,0.004208060912787914,0.0008777778712101281
1738773147815960800,2.1649609375,0.0025867284275591373,0.003236273303627968,-0.0009451558580622077
1738773147825951700,2.17495166015625,0.0014769891276955605,0.0034208304714411497,0.0003249056462664157
1738773147835942700,2.184942626953125,0.0015310513554140925,0.003736414946615696,-0.00033342777169309556
1738773147845933800,2.194933837890625,0.0007009439868852496,0.0025009745731949806,0.0011094729416072369
1738773147855924700,2.2049248046875,-0.0008623315370641649,0.003940413240343332,-0.000835966260638088
1738773147865915600,2.21491552734375,0.002814162289723754,0.0036799560766667128,-0.0007446198142133653
1738773147875907800,2.224907958984375,0.0005544701125472784,0.00227939966134727,-0.0006002765148878098
1738773147885898800,2.234898681640625,0.002365419641137123,0.005572398193180561,0.002544117858633399
1738773147895889700,2.2448896484375,0.0013012205017730594,0.004621649626642466,0.0006609965930692852
1738773147905880800,2.254880859375,0.0006237123161554337,0.0029848709236830473,0.0006213154993019998
1738773147915871700,2.264871826171875,0.0006892260862514377,0.005459214095026255,0.0004551342281047255
1738773147925863000,2.27486279296875,0.0011534150689840317,0.0023576964158564806,0.0011757856700569391
1738773147935853800,2.284853759765625,0.0017638115677982569,0.003826962551102042,-0.0010213222121819854
1738773147945845000,2.294844970703125,0.0002364887041039765,0.003563842037692666,0.00008202536264434457
1738773147955836700,2.304836669921875,0.0005435511702671647,0.002889263443648815,0.00047058056225068867
1738773147965827600,2.31482763671875,0.001487375469878316,0.004638161510229111,0.00018961707246489823
1738773147975818800,2.32481884765625,0.0019648801535367966,0.0036842171102762222,-0.00016884441720321774
1738773147985810000,2.334809814453125,0.001898034941405058,0.004358795937150717,-0.0008311725687235594
1738773147995800800,2.34480078125,0.000045273736759554595,0.002944657113403082,-0.00048363005043938756
1738773148005792000,2.3547919921875,0.0011073424248024821,0.0034767568577080965,0.0018895127577707171
1738773148015783000,2.364782958984375,0.002796851797029376,0.004018709994852543,0.0007808388327248394
1738773148025773800,2.37477392578125,0.0009084042394533753,0.003057841444388032,0.0017800568602979183
1738773148035765800,2.384765869140625,0.0038506644777953625,0.003641073824837804,0.0007709851488471031
1738773148045757000,2.3947568359375,0.0005270395777188241,0.0026993800420314074,-0.0004468784318305552
1738773148055747800,2.404747802734375,0.0019110844004899263,0.004932706709951162,0.0003933488915208727
1738773148065739000,2.414739013671875,-0.0005344964447431266,0.003418699838221073,0.0003616572648752481
1738773148075730000,2.42472998046875,0.0017379788914695382,0.004562793765217066,0.0018125474452972412
1738773148085720800,2.434720947265625,0.0025073662400245667,0.004087419714778662,0.00006072007090551779
1738773148095711700,2.444711669921875,0.0023393207229673862,0.003314303932711482,-0.000024767397917457856
1738773148105703000,2.454702880859375,0.0010426276130601764,0.0046970173716545105,0.00010199906682828441
1738773148115694800,2.46469482421875,0.0007179882377386093,0.004462658893316984,-0.0008250473183579743
1738773148125686000,2.47468603515625,0.00038589202449657023,0.0025188177824020386,-0.00008122641156660393
1738773148135677000,2.484677001953125,0.0008285093936137855,0.005874666851013899,0.001088966615498066
1738773148145667800,2.494667724609375,-7.989483492565341e-7,0.002763562137261033,0.00021278657368384302
1738773148155658800,2.50465869140625,0.002284459536895156,0.005144960712641478,0.0007070692372508347
1738773148165650000,2.51464990234375,0.001865011639893055,0.004376638680696487,-0.0001334243715973571
1738773148175640800,2.524640869140625,0.000018109494703821838,0.002273274352774024,0.0002633866388350725
1738773148185631700,2.5346318359375,0.002115881536155939,0.004809668753296137,-0.00038695731200277805
1738773148195624000,2.5446240234375,0.0018940401496365666,0.004299673717468977,0.00148125016130507
1738773148205614800,2.55461474609375,0.0010687265312299132,0.0027241474017500877,0.0008234494016505778
1738773148215605800,2.564605712890625,0.002797118155285716,0.004346278961747885,0.0007856325246393681
1738773148225597000,2.574596923828125,0.0015480954898521304,0.003918575122952461,0.001067927572876215
1738773148235587800,2.584587890625,0.0007384945638477802,0.0038448055274784565,0.0000857537888805382
1738773148245578800,2.594578857421875,0.0010484865633770823,0.004298075567930937,0.0006735134520567954
1738773148255570000,2.60456982421875,0.002549177734181285,0.002825347473844886,0.0002085255109705031
1738773148265560800,2.614560791015625,0.0006005428149364889,0.0037111148703843355,0.0008154599345289171
1738773148275552800,2.624552734375,0.0014000238152220845,0.003605387406423688,-0.0005693838465958834
1738773148285544000,2.6345439453125,-0.00020719393796753138,0.0028453213162720203,-0.00002370213405811228
1738773148295534800,2.644534912109375,0.0003981425834354013,0.003802194958552718,0.0007400924805551767
1738773148305525800,2.65452587890625,0.0016130766598507762,0.006103166379034519,0.0001536643976578489
1738773148315516700,2.6645166015625,0.0021057615522295237,0.003266367129981518,-0.0006854976527392864
1738773148325507600,2.674507568359375,0.001026382320560515,0.004030694253742695,0.0013859090395271778
1738773148335498500,2.68449853515625,0.0009185242815874517,0.0029228192288428545,0.001805889536626637
1738773148345489400,2.694489501953125,0.0015158712631091475,0.0028626318089663982,0.0007795072160661221
1738773148355481600,2.704481689453125,0.001826395862735808,0.0041342913173139095,-0.0008426241693086922
1738773148365472500,2.714472412109375,0.0010037453612312675,0.003343332326039672,-0.001079911831766367
1738773148375463700,2.724463623046875,0.0012191950809210539,0.003602457931265235,-0.00040187101694755256
1738773148385454600,2.73445458984375,0.00026072346372529864,0.0041822283528745174,0.0011017497163265944
1738773148395445500,2.744445556640625,0.0009592706337571144,0.004225637763738632,0.0023073628544807434
1738773148405436400,2.7544365234375,0.000749679864384234,0.00222001108340919,0.00011877698125317693
1738773148415427600,2.764427490234375,0.001350222621113062,0.0037974014412611723,0.001401089015416801
1738773148425418500,2.77441845703125,0.001371527905575931,0.004594219382852316,0.001469798618927598
1738773148435410400,2.784410400390625,0.0017339842161163688,0.0028881982434540987,0.0002479403046891093
1738773148445401600,2.794401611328125,0.0007118629291653633,0.0051867724396288395,-0.0006013417732901871
1738773148455392500,2.804392578125,0.0031244205310940742,0.00484269205480814,-0.001344363670796156
1738773148465383400,2.814383544921875,0.001044758129864931,0.0035137746017426252,-0.0005640574963763356
1738773148475374600,2.82437451171875,0.0015254586469382048,0.005025118589401245,0.00035659727291204035
1738773148485365500,2.834365478515625,0.00037230990710668266,0.004373176954686642,0.0009685916593298316
1738773148495356700,2.844356689453125,0.0010490191634744406,0.0033569145016372204,-0.0005816344055347145
1738773148505347600,2.85434765625,0.0007137271459214389,0.0040972731076180935,-0.00037923414492979646
1738773148515339500,2.864339599609375,0.0013233247445896268,0.005684517323970795,0.000794420950114727
1738773148525330400,2.874330322265625,0.000003462109361862531,0.0021291973534971476,0.0002335592289455235
1738773148535321600,2.884321533203125,0.0013409015955403447,0.0041089910082519054,0.0007217166712507606
1738773148545312800,2.894312744140625,0.00019574233738239855,0.0033939324785023928,0.0013281183782964945
1738773148555303700,2.9043037109375,0.0011547466274350882,0.0031515848822891712,-0.00035366779775358737
1738773148565294600,2.914294677734375,0.0006580671179108322,0.004800613969564438,0.0017070862231776118
1738773148575285800,2.92428564453125,0.00293293921276927,0.004743089899420738,-0.000014114753867033869
1738773148585276700,2.934276611328125,0.0012785836588591337,0.004087686073035002,0.00011664645717246458
1738773148595268600,2.9442685546875,0.0016740630380809307,0.004210724029690027,-0.0007938882918097079
1738773148605259800,2.954259765625,0.0006809702608734369,0.004254666157066822,-0.0010452907299622893
1738773148615250700,2.964250732421875,0.0011121360585093498,0.005396096967160702,0.0006982808117754757
1738773148625241600,2.97424169921875,0.0013997574569657445,0.003947070799767971,0.00177899154368788
1738773148635232800,2.984232666015625,0.0023339942563325167,0.002237055217847228,0.0009544769418425858
1738773148645223700,2.9942236328125,0.0008500810363329947,0.004393683280795813,-0.00013528858835343271
1738773148655214600,3.004214599609375,0.0017422399250790477,0.0018093516118824482,0.0001400822657160461
1738773148665205800,3.014205810546875,0.0016841830220073462,0.003355849301442504,0.001326786819845438
1738773148675197700,3.02419775390625,0.0013273194199427962,0.0041526672430336475,-0.0007621967233717442
1738773148685188600,3.034188720703125,0.0003038666909560561,0.003145193215459585,0.0002926813904196024
1738773148695179800,3.0441796875,0.0005510080372914672,0.001972869737073779,0.0010599381057545543
1738773148705170700,3.054170654296875,0.0008514125947840512,0.0049164616502821445,0.0006649913266301155
1738773148715161600,3.06416162109375,0.0014942996203899384,0.005169994663447142,0.0004727110790554434
1738773148725152500,3.074152587890625,0.00044128578156232834,0.003623496973887086,-0.0003091930120717734
1738773148735143700,3.084143798828125,0.0023039006628096104,0.0034256239887326956,0.00021651499264407903
1738773148745134600,3.094134521484375,0.0020911141764372587,0.0016056197928264737,0.0015366439474746585
1738773148755126800,3.104126708984375,0.00213612150400877,0.003866909770295024,-0.001502555445767939
1738773148765117700,3.11411767578125,0.001344630029052496,0.00580862071365118,0.000254331884207204
1738773148775108600,3.124108642578125,0.0025126924738287926,0.003656520042568445,-0.0009598032338544726
1738773148785099500,3.134099609375,0.002415487077087164,0.002757969545200467,-0.0007680556736886501
1738773148795090700,3.144090576171875,-0.000059388490626588464,0.003754258155822754,0.0005637911963276565
1738773148805081600,3.15408154296875,-0.0007206514128483832,0.0027329358272254467,-0.00001304948909819359
1738773148815072500,3.164072509765625,-0.0011377023765817285,0.0026290726382285357,0.0002532666258048266
1738773148825063700,3.174063720703125,0.0004964132094755769,0.003865312086418271,-0.00007270430069183931
1738773148835054600,3.1840546875,-0.0009275790071114898,0.003242664970457554,-0.0000774979853304103
1738773148845046500,3.194046630859375,0.00001864212754298933,0.004005128052085638,0.0003430151555221528
1738773148855037700,3.20403759765625,0.0016367788193747401,0.004797684494405985,-0.0017584852175787091
1738773148865028600,3.214028564453125,0.001627191435545683,0.003662645351141691,0.0006412891671061516
1738773148875019500,3.22401953125,0.0017132115317508578,0.002796052722260356,-0.0011584750609472394
1738773148885010700,3.2340107421875,0.0010135991033166647,0.0032357405871152878,-0.00040613205055706203
1738773148895001600,3.244001708984375,0.00025779398856684566,0.0034703651908785105,-0.0004713795206043869
1738773148904992500,3.253992431640625,0.0020658141002058983,0.0049196574836969376,-0.00023409185814671218
1738773148914983400,3.2639833984375,0.0014644722687080503,0.004532167688012123,0.0016104135429486632
1738773148924975600,3.2739755859375,0.0023694143164902925,0.005979862064123154,0.0008327704854309559
1738773148934966500,3.283966552734375,0.0005866943974979222,0.002826146548613906,0.0017981663113459945
1738773148944957400,3.29395751953125,0.0011859056539833546,0.006142847239971161,0.0005906891310587525
1738773148954948600,3.303948486328125,0.0005097290268167853,0.003912449814379215,0.0011254518758505583
1738773148964939500,3.313939453125,0.0009195895399898291,0.0032120386604219675,-0.00010173275222769007
1738773148974930400,3.323930419921875,0.0002924150903709233,0.0036615801509469748,-0.0006274407496675849
1738773148984921600,3.333921630859375,0.001166198286227882,0.003632551757618785,0.00025273399660363793
1738773148994912500,3.34391259765625,0.0015904398169368505,0.0038519962690770626,0.000672448193654418
1738773149004904400,3.353904541015625,-0.0004673847579397261,0.0049675945192575455,0.0015446334145963192
1738773149014895600,3.3638955078125,0.0001424791116733104,0.002797118155285716,-0.0003885551996063441
1738773149024886500,3.373886474609375,0.000571248063351959,0.0032357405871152878,-0.000618918624240905
1738773149034877400,3.38387744140625,0.0024735440965741873,0.004811533261090517,0.0010167949367314577
1738773149044868600,3.39386865234375,0.0008490157779306173,0.002335592173039913,0.0017901768442243338
1738773149054859500,3.403859619140625,0.0035598473623394966,0.0034490597900003195,0.00016325176693499088
1738773149064850700,3.4138505859375,0.0024775387719273567,0.003412574529647827,0.0005805690889246762
1738773149074841600,3.423841552734375,0.000985103310085833,0.003281813347712159,0.0005118595436215401
1738773149084833500,3.43383349609375,0.0004444815858732909,0.004493551794439554,-0.0005155879771336913
1738773149094824400,3.443824462890625,0.00020186760229989886,0.0029201561119407415,-0.0005408879951573908
1738773149104815600,3.453815673828125,0.002388589084148407,0.004191549029201269,0.0014149374328553677
1738773149114806500,3.463806640625,0.0016341155860573053,0.002769687445834279,-0.000958205375354737
1738773149124797700,3.473797607421875,0.0013451626291498542,0.005152684170752764,0.0006013417732901871
1738773149134788600,3.48378857421875,0.0017129451734945178,0.002261556452140212,-0.0001739044237183407
1738773149144779800,3.49377978515625,0.0007432882557623088,0.00224957219325006,-0.0005928196478635073
1738773149154770700,3.503770751953125,0.0036581179592758417,0.004174238536506891,-0.0006519418093375862
1738773149164762600,3.5137626953125,0.001130778226070106,0.0041065942496061325,0.0017843178939074278
1738773149174753800,3.52375390625,0.0008229167433455586,0.004682635888457298,-0.000020506340661086142
1738773149184744700,3.53374462890625,0.0009238505735993385,0.0018578211311250925,0.0010050770360976458
1738773149194735600,3.543735595703125,0.0005113269435241818,0.004249073565006256,-0.0010607370641082525
1738773149204726800,3.553726806640625,0.0015792545164003968,0.003724697045981884,-0.00018642126815393567
1738773149214717700,3.5637177734375,0.0011970909545198083,0.004120176658034325,0.0013406352372840047
1738773149224708600,3.57370849609375,0.0019465044606477022,0.0039039277471601963,0.0011608719360083342
1738773149234699800,3.58369970703125,0.0018516959389671683,0.0035742283798754215,0.000147272803587839
1738773149244691700,3.593691650390625,0.0007731156656518579,0.003581951605156064,0.0004546015989035368
1738773149254682600,3.6036826171875,0.0010410296963527799,0.004494084510952234,0.0014327806420624256
1738773149264673800,3.613673828125,0.0017395768081769347,0.0037380128633230925,0.0009781790431588888
1738773149274664700,3.623664794921875,0.0006948187365196645,0.0037004624027758837,-0.0006527407676912844
1738773149284655600,3.633655517578125,0.0000780306218075566,0.003930293023586273,-0.000015180017726379447
1738773149294646500,3.643646484375,0.003491936717182398,0.003944141324609518,0.0004058657505083829
1738773149304637700,3.6536376953125,0.0017542241839691997,0.003207511268556118,0.000636761833447963
1738773149314628600,3.663628662109375,0.0007086671539582312,0.003522030543535948,0.0002540655550546944
1738773149324619800,3.673619873046875,0.0001459412305848673,0.0038125813007354736,-0.00008255799184553325
1738773149334611700,3.68361181640625,0.00040480049210600555,0.0034677020739763975,-0.0004468784318305552
1738773149344603000,3.693602783203125,0.0013872405979782343,0.004630704410374165,-0.000051399008953012526
1738773149354593800,3.70359375,-0.000041278995922766626,0.003963582683354616,-0.0006868292111903429
1738773149364584700,3.713584716796875,0.0003145193331874907,0.003567304229363799,-0.00005326322207110934
1738773149374575600,3.72357568359375,0.0035380094777792692,0.004622182343155146,0.0006079996819607913
1738773149384566800,3.73356689453125,0.0020221380982548,0.0024383901618421078,-0.0005012069013901055
1738773149394557700,3.7435576171875,-0.0000015978966985130683,0.00196354859508574,0.000045540054998127744
1738773149404548600,3.753548583984375,0.0026098978705704212,0.004186222795397043,0.0010902981739491224
1738773149414540800,3.763540771484375,0.003840544493868947,0.002258094260469079,0.0005768407136201859
1738773149424531700,3.77353173828125,0.002511094557121396,0.004486361052840948,-0.0003810983616858721
1738773149434522600,3.783522705078125,0.0011062771081924438,0.0044381581246852875,0.0013989584986120462
1738773149444513800,3.793513671875,0.0017361147329211235,0.002926813904196024,-0.0005403553950600326
1738773149454504700,3.803504638671875,0.0021784657146781683,0.003825897118076682,-0.000300404557492584
1738773149464495600,3.81349560546875,0.0015334481140598655,0.004286091309040785,0.0014908375451341271
1738773149474486800,3.82348681640625,-0.000672448193654418,0.0023220102302730083,0.00045140579459257424
1738773149484477700,3.833477783203125,0.0008602010202594101,0.005191033706068993,0.0007424892974086106
1738773149494469600,3.8434697265625,0.0015121428295969963,0.004050934221595526,0.0004239752306602895
1738773149504460800,3.853460693359375,0.0041489386931061745,0.0037438718136399984,0.0004487426485866308
1738773149514451700,3.86345166015625,0.0011677960865199566,0.004030694253742695,0.001127582392655313
1738773149524442600,3.873442626953125,0.001228516222909093,0.004234958905726671,0.0006974819116294384
1738773149534433800,3.883433837890625,0.0025691515766084194,0.003483414649963379,0.0007352987886406481
1738773149544424700,3.8934248046875,0.0006079996819607913,0.004640824627131224,0.0015041533624753356
1738773149554415600,3.90341552734375,0.0018072210950776935,0.003388606244698167,0.001466869143769145
1738773149564406500,3.913406494140625,0.0019526296528056264,0.0041159153915941715,-0.00014700648898724467
1738773149574398700,3.923398681640625,0.00018455706594977528,0.0020271982066333294,0.00013688647595699877
1738773149584389600,3.9333896484375,0.0011355718597769737,0.004512459971010685,0.0009840379934757948
1738773149595004700,3.944004638671875,0.0005091963685117662,0.0038035267498344183,-0.0004106594424229115
1738773149604995800,3.953995849609375,0.000550475378986448,0.004521248396486044,0.00042823629337362945
1738773149614986800,3.96398681640625,0.0020809939596801996,0.004023769870400429,0.00014407701382879168
1738773149624978000,3.97397802734375,0.0018511632224544883,0.0032197616528719664,-0.0005528722540475428
1738773149634969600,3.983969482421875,0.0014674017438665032,0.005824067164212465,0.0009494169498793781
1738773149644960800,3.993960693359375,0.0008149272762238979,0.0018996327416971326,-0.000360059377271682
1738773149654952000,4.003951904296875,0.000371777277905494,0.004372644238173962,0.00017177389236167073
1738773149664942800,4.01394287109375,0.0014231932582333684,0.005117796827107668,-0.0014626081101596355
1738773149674933800,4.023933837890625,0.000925182132050395,0.0041675809770822525,-0.0007297061383724213
1738773149684925000,4.033925048828125,0.0025569009594619274,0.0029585056472569704,-0.00008788431296125054
1738773149694915800,4.043915771484375,0.001692705205641687,0.0036791570018976927,0.0011566109023988247
1738773149704906800,4.05390673828125,0.0001728391507640481,0.0030770162120461464,0.0006503439508378506
1738773149714899000,4.06389892578125,0.001359543763101101,0.005063734482973814,0.0006570018595084548
1738773149724889900,4.073889892578125,0.001276453142054379,0.00449994346126914,-0.0003110571997240186
1738773149734880800,4.083880859375,0.0012309130979701877,0.0016194682102650404,0.001347825862467289
1738773149744871700,4.09387158203125,0.0010929612908512354,0.005161206237971783,0.00041625206358730793
1738773149754862800,4.10386279296875,0.002061819192022085,0.0038807583041489124,0.0005291700945235789
1738773149764853800,4.113853759765625,0.0023305322974920273,0.003052515210583806,0.000010918960470007733
1738773149774844700,4.1238447265625,0.000660463934764266,0.004422178957611322,0.001341966912150383
1738773149784835800,4.1338359375,-0.000437291048001498,0.0038309572264552116,-0.00047617321251891553
1738773149794827800,4.143827880859375,-0.00023276027059182525,0.003373692510649562,0.0008085357258096337
1738773149804818700,4.153818603515625,0.0009976201690733433,0.0031582426745444536,0.0014972290955483913
1738773149814809900,4.163809814453125,0.0009086705395020545,0.003543868428096175,-0.0014197311829775572
1738773149824800800,4.17380078125,0.00152306177187711,0.003573962254449725,0.000859934720210731
1738773149834791700,4.183791748046875,0.003412574529647827,0.0026849990244954824,0.001425057533197105
1738773149844782800,4.193782958984375,0.0007539408979937434,0.004255198873579502,-0.00011371697473805398
1738773149854773800,4.203773681640625,0.00170815153978765,0.002680205274373293,0.0009954896522685885
1738773149864764700,4.2137646484375,0.0019126823171973228,0.004786499310284853,-0.0002383529208600521
1738773149874755600,4.223755615234375,-0.00043569316039793193,0.0032083101104944944,-0.0011118697002530098
1738773149884747800,4.233747802734375,0.0018487664638087153,0.0037470676470547915,-0.0009259810904040933
1738773149894738700,4.24373876953125,0.0033457293175160885,0.005854959599673748,0.0018634138396009803
1738773149904729900,4.253729736328125,0.0015723302494734526,0.003718305379152298,0.0007819040911272168
1738773149914720800,4.263720703125,0.001654355670325458,0.0032671659719198942,0.0005699164466932416
1738773149924711700,4.273711669921875,0.0009912285022437572,0.004366518929600716,0.0013257216196507215
1738773149934702600,4.28370263671875,-0.00025513084256090224,0.0026106967125087976,0.00196354859508574
1738773149945318700,4.294318603515625,0.00042983421008102596,0.0035473306197673082,0.0010985539993271232
1738773149955309600,4.3043095703125,0.0015638081822544336,0.004259193316102028,0.00007004113285802305
1738773149965300700,4.31430078125,0.0021667478140443563,0.00310497940517962,-0.000018908443962573074
1738773149975291600,4.324291748046875,-0.0005478122038766742,0.004042678512632847,0.00030892668291926384
1738773149985283800,4.334283935546875,0.0014303837670013309,0.003878894029185176,-0.001160072977654636
1738773149995274800,4.344274658203125,0.0013763216556981206,0.0026176210958510637,-0.0007422229973599315
1738773150005265700,4.354265625,0.001528920722194016,0.0044046021066606045,-0.0012658004416152835
1738773150015256600,4.364256591796875,0.00045859633246436715,0.004200870171189308,0.0008881642133928835
1738773150025247700,4.374247802734375,0.0027164241764694452,0.0040975394658744335,0.00007829693640815094
1738773150035238700,4.38423876953125,0.0012218583142384887,0.00412417110055685,-0.00023462448734790087
1738773150045229600,4.3942294921875,0.002977946773171425,0.004929777234792709,0.0008828379213809967
1738773150055220700,4.404220703125,0.0012101404136046767,0.002660231664776802,0.000669518718495965
1738773150065212700,4.414212646484375,0.0014793860027566552,0.0037209687288850546,0.000251402409048751
1738773150075203600,4.42420361328125,0.0007933556917123497,0.002775546396151185,0.0008274441352114081
1738773150085194800,4.43419482421875,-0.0000476705827168189,0.003123355330899358,0.0002868224401026964
1738773150095185700,4.444185546875,0.0006340986583381891,0.003222158644348383,0.0010487528052181005
1738773150105176600,4.454176513671875,0.0025563682429492474,0.003052248852327466,-0.000523577444255352
1738773150115167700,4.464167724609375,0.002624811604619026,0.004796353168785572,0.00016218650853261352
1738773150125159000,4.474158935546875,0.0005763080553151667,0.004847751930356026,0.0017728663515299559
1738773150135149800,4.48414990234375,0.000556600687559694,0.001472461735829711,0.0008314388687722385
1738773150145141800,4.494141845703125,0.0028716865926980972,0.0023276028223335743,0.00036671728594228625
1738773150155132700,4.504132568359375,0.0023124227300286293,0.0033065807074308395,0.0013899037148803473
1738773150165123600,4.51412353515625,0.0008306399104185402,0.0038607846945524216,0.0006362291751429439
1738773150175114800,4.52411474609375,0.000824248360004276,0.0035545211285352707,-0.0005033374181948602
1738773150185106000,4.53410595703125,0.0011491540353745222,0.004036819562315941,0.0006138586322776973
1738773150195096800,4.544096923828125,0.0027079021092504263,0.0017859158106148243,0.0016903083305805922
1738773150205087700,4.554087646484375,0.00023329291434492916,0.005002215504646301,-0.0010932276491075754
1738773150215079000,4.564078857421875,0.0015337144723162055,0.005242432467639446,-0.0006588660762645304
1738773150225070600,4.574070556640625,0.0012740562669932842,0.0036064526066184044,-0.000041811628761934116
1738773150235061800,4.584061767578125,0.00039867521263659,0.003712712787091732,-0.00018642126815393567
1738773150245053000,4.594052978515625,0.0031273500062525272,0.003198190126568079,-0.0009038768475875258
1738773150255043800,4.6040439453125,-0.00002157160452043172,0.002879942301660776,0.00037230990710668266
1738773150265034800,4.61403466796875,0.0010218549286946654,0.0044046021066606045,-0.0015078817959874868
1738773150275026000,4.62402587890625,0.0014077469240874052,0.0035305526107549667,0.0012391688069328666
1738773150285016800,4.634016845703125,0.00020639497961383313,0.0037888791412115097,0.0014554174849763513
1738773150295007700,4.6440078125,0.0014868428697809577,0.0040975394658744335,0.00041278995922766626
1738773150305000000,4.654,0.0019797938875854015,0.0031156321056187153,0.0005432848702184856
1738773150314990800,4.663990966796875,0.00006684534309897572,0.001981125446036458,0.0005755090969614685
1738773150324981500,4.6739814453125,0.0009896307019516826,0.004686630796641111,-0.000597879639826715
1738773150334972400,4.683972412109375,0.0018724685069173574,0.003195527009665966,0.0007866977830417454
1738773150344963600,4.693963623046875,0.0024501082953065634,0.00307648372836411,0.00011265171633567661
1738773150354954500,4.70395458984375,0.0012032161466777325,0.0062333946116268635,0.0009092031978070736
1738773150364945400,4.7139453125,0.0008111988427117467,0.0033720945939421654,-0.00043302998528815806
1738773150374936300,4.723936279296875,0.0018668759148567915,0.004248008131980896,0.0004876247840002179
1738773150384928500,4.733928466796875,0.0012599414912983775,0.0035840822383761406,0.00138031633105129
1738773150394919400,4.74391943359375,0.00021438446128740907,0.0048916940577328205,0.0016367788193747401
1738773150404910300,4.753910400390625,0.0013675332302227616,0.003477555699646473,-0.0007590008899569511
1738773150414901500,4.763901611328125,0.0014325142838060856,0.0037979339249432087,-0.0012370382901281118
1738773150424892400,4.773892333984375,0.0011803129455074668,0.004337224178016186,-0.00043782367720268667
1738773150434883300,4.78388330078125,-0.00032091091270558536,0.0044229780323803425,-0.00011930961773032323
1738773150444874500,4.79387451171875,0.0015880429418757558,0.0031931300181895494,0.0005813680472783744
1738773150454865400,4.803865478515625,-0.0002892192860599607,0.004217382054775953,-0.000245543458731845
1738773150464857300,4.813857421875,0.0011800467036664486,0.005072789266705513,0.0005715143634006381
1738773150474848500,4.8238486328125,-0.0006527407676912844,0.004185423720628023,0.00029108350281603634
1738773150484839400,4.83383935546875,0.0006458165589720011,0.00549330236390233,-0.00045300371129997075
1738773150494830300,4.843830322265625,-0.0005640574963763356,0.0035771578550338745,-0.0006061354652047157
1738773150504821500,4.853821533203125,0.0015246596885845065,0.004054396413266659,-0.0014101437991485
1738773150514812400,4.8638125,0.0006655239267274737,0.005480252671986818,0.00018668759730644524
1738773150524803300,4.87380322265625,0.0014966964954510331,0.0031667647417634726,-0.00022983079543337226
1738773150534794200,4.883794189453125,0.0010636665392667055,0.0035388083197176456,-0.00041305628838017583
1738773150544786400,4.893786376953125,0.0026282735634595156,0.004803277086466551,0.0007291734800674021
1738773150554777300,4.90377734375,0.0004886900424025953,0.0029494508635252714,0.0005893575726076961
1738773150564768500,4.9137685546875,0.0010745854815468192,0.005352154839783907,-0.000251402409048751
1738773150574759400,4.923759521484375,-0.00040533312130719423,0.0038192393258213997,-0.0009012137306854129
1738773150584750300,4.933750244140625,0.0016562198288738728,0.004252269398421049,-0.00020213393145240843
1738773150594741200,4.9437412109375,0.0015227955300360918,0.00466532539576292,0.0013379721203818917
1738773150604732400,4.953732421875,0.001636246219277382,0.003222158644348383,-0.0001459412305848673
1738773150614723300,4.963723388671875,-0.0008519452530890703,0.0031443943735212088,0.0006034722900949419
1738773150624715300,4.97371533203125,0.0027869981713593006,0.002826146548613906,0.00032570460462011397
1738773150634706400,4.98370654296875,0.0018943065078929067,0.006225937977433205,0.00004261057620169595
1738773150644697300,4.993697265625,0.0014823154779151082,0.0033220271579921246,-0.000963797967415303
1738773150654688300,5.003688232421875,0.0011140003334730864,0.003835484618321061,0.00042504051816649735
1738773150664679400,5.013679443359375,0.0030312100425362587,0.005510080140084028,-0.0018719359068199992
1738773150674670300,5.02367041015625,0.001999501371756196,0.0029497172217816114,0.0020567593164741993
1738773150684661500,5.03366162109375,0.0019912454299628735,0.005066930316388607,0.0019435749854892492
1738773150694652700,5.043652587890625,0.0010953581659123302,0.0021230720449239016,-0.00027803401462733746
1738773150704644400,5.053644287109375,0.0012903015594929457,0.004009388852864504,-0.0001960086519829929
1738773150714635300,5.06363525390625,0.002180596347898245,0.004365986213088036,0.0014713965356349945
1738773150724626400,5.07362646484375,0.0024860608391463757,0.0044200485572218895,-0.0014689996605738997
1738773150734617300,5.083617431640625,0.0020269318483769894,0.003677292726933956,0.0011456918437033892
1738773150744608500,5.0936083984375,0.001686846255324781,0.0062911855056881905,0.0010921623324975371
1738773150754599400,5.103599365234375,0.00207726564258337,0.003090332029387355,-0.0006929545197635889
1738773150764590600,5.113590576171875,-0.00033662354690022767,0.0041436124593019485,0.00008229167724493891
1738773150774581500,5.12358154296875,0.0005528722540475428,0.004989432170987129,0.000895621080417186
1738773150784573400,5.133573486328125,0.00016298545233439654,0.0039175101555883884,0.001984587637707591
1738773150794564600,5.143564697265625,0.0012801815755665302,0.0043955473229289055,-0.00039760995423421264
1738773150804555500,5.153555419921875,0.001743571599945426,0.004490888677537441,0.00023036343918647617
1738773150814546400,5.16354638671875,0.001455151243135333,0.005318332463502884,-0.0013281183782964945
1738773150824537600,5.17353759765625,0.0003067961661145091,0.004471713677048683,0.0006045375484973192
1738773150834528500,5.183528564453125,0.0021201425697654486,0.002986735198646784,0.000886566296685487
1738773150844519400,5.19351953125,0.0014237258583307266,0.003468767274171114,0.0012370382901281118
1738773150854510600,5.203510498046875,0.0017957695527002215,0.0037734329234808683,0.001050350721925497
1738773150864502500,5.21350244140625,0.0028905950020998716,0.0032522522378712893,-0.001680720946751535
1738773150874493400,5.223493408203125,0.0016903083305805922,0.004570517223328352,-0.0005113269435241818
1738773150884484600,5.233484619140625,0.0011475561186671257,0.005268265027552843,0.0022591594606637955
1738773150894475500,5.2434755859375,0.0006964165950194001,0.004348675720393658,0.0026130937039852142
1738773150904466400,5.253466552734375,0.0017393104499205947,0.004671717062592506,-0.0004021373169962317
1738773150914457600,5.26345751953125,0.0016785904299467802,0.003563842037692666,0.001216798322275281
1738773150924448500,5.273448486328125,0.0019182749092578888,0.0035214978270232677,-0.00017070861940737814
1738773150934439400,5.283439453125,-0.000051399008953012526,0.004291417542845011,-0.0006170544074848294
1738773150944431600,5.293431640625,0.0016050871927291155,0.003421895671635866,0.00024234765442088246
1738773150954422500,5.303422607421875,-0.0007012102869339287,0.0025244103744626045,0.0015845808666199446
1738773150964413400,5.313413330078125,0.0029230855870991945,0.0038661109283566475,-0.0007337008719332516
1738773150974404400,5.323404296875,0.0018383801216259599,0.004266916774213314,0.000990695902146399
1738773150984395500,5.3333955078125,0.0003371562052052468,0.004150536376982927,0.0004487426485866308
1738773150994386400,5.343386474609375,0.0008450209861621261,0.005388640332967043,0.0008910936885513365
1738773151004377300,5.35337744140625,0.00236249016597867,0.004878112114965916,0.0007664577569812536
1738773151014368500,5.363368408203125,0.002133724745362997,0.0036301547661423683,-0.000574177538510412
1738773151024360400,5.3733603515625,0.003237072378396988,0.005342567339539528,-0.00004953479583491571
1738773151034351400,5.383351318359375,0.0017544905422255397,0.003261040663346648,-0.000553404854144901
1738773151044342500,5.393342529296875,0.002552906284108758,0.0028703550342470407,0.001145159243606031
1738773151054333400,5.40333349609375,0.0006474144756793976,0.00196381495334208,-0.0028122980147600174
1738773151064324400,5.413324462890625,0.00016405072528868914,0.00532658863812685,-0.0012117383303120732
1738773151074315500,5.4233154296875,0.000437291048001498,0.00512738386169076,0.0008394283941015601
1738773151084306400,5.433306396484375,0.001514273346401751,0.0043737092055380344,0.0011941614793613553
1738773151094297300,5.44329736328125,-0.0002580603177193552,0.0027840686962008476,0.0007667240570299327
1738773151104289500,5.45328955078125,0.0012434299569576979,0.002484995638951659,-0.0007235808880068362
1738773151114280400,5.463280517578125,0.0017899106023833156,0.004021373111754656,0.0006716492353007197
1738773151124271400,5.473271240234375,0.001787779969163239,0.0037526602391153574,-0.00015206649550236762
1738773151134262300,5.48326220703125,2.6631610694494157e-7,0.003963316325098276,0.00010892329009948298
1738773151144253400,5.49325341796875,0.00019148127466905862,0.0029731530230492353,0.00009187905379803851
1738773151154244400,5.503244384765625,0.0016996293561533093,0.0043622576631605625,0.001172323478385806
1738773151164235300,5.5132353515625,-0.00009400958515470847,0.0037412086967378855,0.0004982774262316525
1738773151174226400,5.523226318359375,0.00029587719473056495,0.004502872936427593,0.00040480049210600555
1738773151184218400,5.53321826171875,0.0008197209681384265,0.0052027516067028046,-0.0006032059900462627
1738773151194209300,5.543209228515625,0.0022897860035300255,0.0031076427549123764,-0.000809068325906992
1738773151204200400,5.553200439453125,0.003169428091496229,0.0036482643336057663,-0.0011941614793613553
1738773151214191400,5.56319140625,0.0013334447285160422,0.002368881832808256,0.001814944320358336
1738773151224182300,5.573182373046875,0.0009888317435979843,0.005118329077959061,0.0005395564367063344
1738773151234173400,5.58317333984375,0.001882854849100113,0.003275688039138913,0.0008362325606867671
1738773151244164400,5.593164306640625,0.0030810111202299595,0.004197141621261835,0.0006167881074361503
1738773151254155500,5.603155517578125,0.0006016080733388662,0.004323641769587994,0.00005219795639277436
1738773151264147500,5.6131474609375,0.0007888282998465002,0.0027571707032620907,0.0002663161139935255
1738773151274138400,5.623138427734375,0.0018250643042847514,0.0034136399626731873,0.0006482133758254349
1738773151284129300,5.63312939453125,0.00021252025908324867,0.003950532991439104,-0.0012381036067381501
1738773151294120400,5.643120361328125,-0.00010226538870483637,0.003316967049613595,0.0017121462151408195
1738773151304111400,5.653111328125,0.001969141187146306,0.005000617355108261,0.0015701997326686978
1738773151314102500,5.6631025390625,0.0016056197928264737,0.0037734329234808683,0.00027324032271280885
1738773151324093400,5.673093505859375,0.003355316584929824,0.005279982928186655,0.0003371562052052468
1738773151334085400,5.68308544921875,0.00032863407977856696,0.0037353497464209795,0.0010902981739491224
1738773151344076300,5.693076171875,0.0010133327450603247,0.005292499903589487,0.00058323226403445
1738773151354067200,5.703067138671875,0.002038117265328765,0.0035926043055951595,0.00026844663079828024
1738773151364058400,5.713058349609375,0.0010482202051207423,0.002841060282662511,0.0009041432058438659
1738773151374049500,5.723049560546875,0.0015867113834246993,0.004050401505082846,0.0002790992730297148
1738773151384040400,5.73304052734375,0.0013938985066488385,0.002572879893705249,-0.0008506136364303529
1738773151394031600,5.743031494140625,0.0001728391507640481,0.004870389122515917,0.00040080572944134474
1738773151404022500,5.7530224609375,0.0005475459038279951,0.003421895671635866,-0.0012002866715192795
1738773151414014500,5.763014404296875,0.002566754585132003,0.0041518681682646275,0.00014168016787152737
1738773151424005600,5.773005615234375,0.00101173494476825,0.004297542851418257,0.0004791026876773685
1738773151433996500,5.78299658203125,0.0011406318517401814,0.003579288488253951,0.0003249056462664157
1738773151443987500,5.792987548828125,0.00044607947347685695,0.0031790153589099646,0.0004665858286898583
1738773151453978600,5.802978515625,0.0030218889005482197,0.00341577036306262,0.0010641991393640637
1738773151463969500,5.812969482421875,0.0017118799732998013,0.004911135416477919,0.0006966829532757401
1738773151473960400,5.82296044921875,-0.0003182477375958115,0.002770220162346959,-0.00033928672201000154
1738773151483951400,5.832951416015625,0.0017060210229828954,0.0038304245099425316,0.0008114652009680867
1738773151493943600,5.842943603515625,0.0019092201255261898,0.00452950457111001,0.0007286408799700439
1738773151503934500,5.8529345703125,0.00148151651956141,0.003713245503604412,-0.0009440905996598303
1738773151513925600,5.862925537109375,0.0012918994762003422,0.003254915354773402,0.000013848437447450124
1738773151523916500,5.87291650390625,0.0006266417913138866,0.00213532242923975,-0.0012658004416152835
1738773151533907500,5.882907470703125,0.0004021373169962317,0.004853610880672932,0.0016783240716904402
1738773151543898400,5.8928984375,0.0013574132462963462,0.002935868687927723,-0.0006138586322776973
1738773151553889500,5.9028896484375,0.0003456783015280962,0.0054240599274635315,0.0008146609761752188
1738773151563880400,5.91288037109375,0.0011861718958243728,0.0046852994710206985,-0.0008977515972219408
1738773151573872400,5.922872314453125,0.0014045510906726122,0.0043686493299901485,-0.0016346483025699854
1738773151583863600,5.932863525390625,0.0018881811993196607,0.0036879454273730516,0.0003462109307292849
1738773151593854500,5.9428544921875,0.0003121224872302264,0.003742806613445282,0.0008364989189431071
1738773151603845400,5.952845458984375,0.0012013519881293178,0.004734301473945379,0.0002402171230642125
1738773151613836500,5.96283642578125,0.00199364242143929,0.004344680812209845,0.0003230414295103401
1738773151623827500,5.972827392578125,0.002067944500595331,0.0059449742548167706,-0.0007310376968234777
1738773151633818400,5.982818359375,0.002831739140674472,0.003266367129981518,0.001023186487145722
1738773151643810600,5.992810546875,0.0018519621808081865,0.004010720644146204,-0.0002772350562736392
1738773151653801500,6.002801513671875,0.002026133006438613,0.0026940538082271814,0.00017736652807798237
1738773151663792400,6.01279248046875,0.0026583673898130655,0.0020061591640114784,0.0010365023044869304
1738773151673783600,6.022783447265625,0.003997937310487032,0.005181446205824614,0.00039308256236836314
1738773151683774500,6.0327744140625,0.0007611314067617059,0.0043899547308683395,0.000999750685878098
1738773151693765400,6.042765380859375,0.0010673949727788568,0.003222158644348383,0.0005259743193164468
1738773151703756300,6.05275634765625,0.0016487629618495703,0.003938548732548952,-0.00040266994619742036
1738773151713747500,6.06274755859375,0.0012066783383488655,0.005245361942797899,0.00011584750609472394
1738773151723739400,6.072739501953125,0.00022503710351884365,0.0038037928752601147,0.0014146711910143495
1738773151733730600,6.08273046875,0.0010040117194876075,0.004904477391391993,-0.0011523497523739934
1738773151743721500,6.092721435546875,0.001969407545402646,0.004086620640009642,-0.0007478156476281583
1738773151753712400,6.10271240234375,0.0011518171522766352,0.002615490462630987,-0.001885784324258566
1738773151763703300,6.112703369140625,0.001904160133562982,0.005291967187076807,0.0013454289874061942
1738773151773694500,6.122694580078125,0.0018322548130527139,0.0018224010709673166,0.00022264027211349458
1738773151783685400,6.132685302734375,0.0014612764352932572,0.0041183121502399445,0.0007773766992613673
1738773151793677300,6.14267724609375,0.0007448861724697053,0.0047031426802277565,0.001071123406291008
1738773151803668500,6.15266845703125,0.0008556736283935606,0.0036096484400331974,-0.001469532260671258
1738773151813659400,6.162659423828125,0.0005600627628155053,0.0024943165481090546,0.0015725966077297926
1738773151823650300,6.172650390625,0.0014583469601348042,0.004861867055296898,0.0020844561513513327
1738773151833641500,6.182641357421875,0.003991545643657446,0.004198473412543535,0.0005313006113283336
1738773151843632400,6.19263232421875,0.001948634977452457,0.0038432078436017036,0.0013946974650025368
1738773151853623300,6.202623291015625,0.00041092574247159064,0.0037800907157361507,-0.00019121496006846428
1738773151863615500,6.212615478515625,0.0013813816476613283,0.00273693073540926,0.001100684516131878
1738773151873606400,6.2226064453125,0.0015840481501072645,0.0031523837242275476,0.00033688987605273724
1738773151883597300,6.232597412109375,0.0036669063847512007,0.003780623432248831,0.0003182477375958115
1738773151893588500,6.24258837890625,0.0028871328104287386,0.0026724820490926504,-0.0018109495285898447
1738773151903579400,6.252579345703125,0.002242914168164134,0.004399542231112719,-0.0008463526028208435
1738773151913570300,6.2625703125,-0.00005699164830730297,0.004054662771522999,0.0001984054979402572
1738773151923561200,6.272561279296875,0.0005195827106945217,0.003239735495299101,-0.0014197311829775572
1738773151933552400,6.282552490234375,0.0012905678013339639,0.006043511442840099,-0.0010817759903147817
1738773151943544300,6.29254443359375,0.0004122573300264776,0.0038213697262108326,-0.00014460964302998036
1738773151953535500,6.302535400390625,0.0012697952333837748,0.0037143107037991285,0.0012532835826277733
1738773151963526400,6.3125263671875,0.0014839133946225047,0.004200870171189308,0.0020871192682534456
1738773151973517300,6.322517333984375,0.0013587448047474027,0.0035124430432915688,0.0014913701452314854
1738773151983508200,6.33250830078125,0.0021616879384964705,0.0029814087320119143,-0.000050866376113845035
1738773151993499400,6.34249951171875,-0.001133174984715879,0.004828843753784895,0.0014293185668066144
1738773152003490600,6.352490478515625,0.002395513467490673,0.0034434671979397535,0.0004673847579397261
1738773152013482200,6.362482177734375,0.0023640880826860666,0.0030538467690348625,0.0005251753609627485
1738773152023473400,6.372473388671875,0.001924932817928493,0.00583791546523571,-0.00022663500567432493
1738773152033464300,6.38246435546875,-0.0005992112564854324,0.0041340249590575695,0.001070857048034668
1738773152043455500,6.39245556640625,0.0006348976166918874,0.0037523938808590174,-0.0000900148443179205
1738773152053446700,6.40244677734375,0.0005038700764998794,0.0041404166258871555,0.0006402239087037742
1738773152063437600,6.4124375,0.003061836352571845,0.002122006844729185,0.0004676510870922357
1738773152073428500,6.422428466796875,0.0024554345291107893,0.003492469433695078,0.0009118663729168475
1738773152083420400,6.43242041015625,0.0006756439688615501,0.004032558295875788,0.001365402713418007
1738773152093411300,6.442411376953125,0.0007238471880555153,0.003605653764680028,-0.0006508765509352088
1738773152103402500,6.452402587890625,0.0014642059104517102,0.004768389742821455,0.0007014766451902688
1738773152113393700,6.4623935546875,0.0024594292044639587,0.004609931726008654,0.00025060345069505274
1738773152123384600,6.472384521484375,0.002360093407332897,0.004353735595941544,-0.0008684568456374109
1738773152133375500,6.48237548828125,0.0013318468118086457,0.002168079372495413,0.0011707255616784096
1738773152143366400,6.492366455078125,0.0014721954939886928,0.005101018585264683,-0.0015840481501072645
1738773152153357600,6.502357666015625,-0.0004266384057700634,0.0032477248460054398,0.0009555422002449632
1738773152163349500,6.512349609375,0.0012338425731286407,0.0028328043408691883,0.0007909588166512549
1738773152173340700,6.522340576171875,0.004715925548225641,0.0037494644057005644,0.00042504051816649735
1738773152183331600,6.53233154296875,0.0007843009079806507,0.0027254789602011442,0.0011118697002530098
1738773152193322500,6.542322509765625,0.0028397287242114544,0.0043595945462584496,-0.0004082625964656472
1738773152203313400,6.5523134765625,0.0014138722326606512,0.004423776641488075,0.0006077333819121122
1738773152213304600,6.5623046875,0.0007430219557136297,0.0025955168530344963,0.0001584580895723775
1738773152223295500,6.57229541015625,0.0010301107540726662,0.0051926313899457455,-0.0003408846096135676
1738773152233287400,6.582287353515625,0.0008117315010167658,0.003864513011649251,-0.0005416869535110891
1738773152243278600,6.592278564453125,0.0016713999211788177,0.004526575095951557,-0.00006151902198325843
1738773152253269500,6.60226953125,0.0017899106023833156,0.00418249424546957,0.0006631271098740399
1738773152263260400,6.612260498046875,0.002310824813321233,0.0034533210564404726,-0.0002615224220789969
1738773152273251600,6.62225146484375,0.00025033715064637363,0.0034788872580975294,-0.00012303804396651685
1738773152283242500,6.632242431640625,0.002238120650872588,0.0035246936604380608,0.0009438242996111512
1738773152293233400,6.6422333984375,-0.00047857005847617984,0.0035233621019870043,0.00019414443522691727
1738773152303225600,6.6522255859375,0.001315335277467966,0.004804875236004591,0.000003462109361862531
1738773152313216500,6.662216552734375,0.002877279184758663,0.004825914278626442,0.00021917815320193768
1738773152323207400,6.67220751953125,0.001975000137463212,0.001208009896799922,-0.001537975505925715
1738773152333198300,6.6821982421875,0.002724680118262768,0.003891144646331668,-0.00003462109452812001
1738773152343189200,6.692189208984375,0.0008245146600529552,0.004906075540930033,-0.000330231967382133
1738773152353180400,6.702180419921875,0.0026530411560088396,0.0031185615807771683,0.00010359696898376569
1738773152363171300,6.71217138671875,0.00031878036679700017,0.004756938200443983,0.000051399008953012526
1738773152373163300,6.722163330078125,0.002255697501823306,0.0038570561446249485,-0.00003834952076431364
1738773152383154400,6.732154541015625,0.0024732777383178473,0.003966245800256729,-0.00033875409280881286
1738773152393145300,6.742145263671875,0.002177666872739792,0.005549495108425617,-0.00032676986302249134
1738773152403136300,6.75213623046875,0.0018953717080876231,0.003950532991439104,0.0002311623829882592
1738773152413127400,6.76212744140625,0.0016982977977022529,0.0034290861804038286,0.0006974819116294384
1738773152423118300,6.772118408203125,0.0012463594321161509,0.004219778813421726,0.0009299758239649236
1738773152433109200,6.782109130859375,0.00030120351584628224,0.004008590243756771,0.00108257494866848
1738773152443100200,6.79210009765625,0.001442900625988841,0.004406998865306377,-0.0010759170399978757
1738773152453092400,6.80209228515625,0.0019518306944519281,0.005434446502476931,-0.00035260253935121
1738773152463083300,6.812083251953125,0.0033212280832231045,0.0030365362763404846,0.00009108010999625549
1738773152473074200,6.82207421875,0.002029062481597066,0.0034884747583419085,0.0012159993639215827
1738773152483065300,6.8320654296875,0.0008349010022357106,0.005095425993204117,-0.00011584750609472394
1738773152493056300,6.84205615234375,0.0017600831342861056,0.0018279937794432044,0.001008539111353457
1738773152503047200,6.852047119140625,0.0007552724564447999,0.005532184615731239,0.0017504957504570484
1738773152513038300,6.862038330078125,0.0015792545164003968,0.0029848709236830473,0.0004439489566721022
1738773152523030300,6.8720302734375,0.0014950985787436366,0.00141041015740484,0.0005430185701698065
1738773152533021200,6.882021240234375,0.0013156015193089843,0.005030178464949131,0.000642354425508529
1738773152543012400,6.892012451171875,0.0009246495319530368,0.004008057527244091,0.0003478088474366814
1738773152553003300,6.902003173828125,0.001249555149115622,0.003040530951693654,0.0005118595436215401
1738773152562994200,6.911994140625,0.0018698053900152445,0.004078631289303303,0.0002623213513288647
1738773152572985300,6.9219853515625,0.000598145998083055,0.0044410875998437405,0.0000327568814100232
1738773152582976300,6.931976318359375,0.0018032263033092022,0.002615490462630987,0.0019622170366346836
1738773152592967200,6.94196728515625,0.002246909076347947,0.0046781087294220924,-0.0004348942020442337
1738773152602959400,6.95195947265625,0.000782436749432236,0.0032570459879934788,0.0007235808880068362
1738773152612950300,6.9619501953125,0.002377936616539955,0.004426706116646528,0.0007472829893231392
1738773152622941200,6.971941162109375,0.0009518137667328119,0.004292482975870371,0.00028096348978579044
1738773152632932400,6.981932373046875,0.0018796591321006417,0.0041641187854111195,-0.00034674355993047357
1738773152642923300,6.99192333984375,0.0014495585346594453,0.003102049930021167,0.0017845842521637678
1738773152652914200,7.0019140625,0.0028969866689294577,0.004291683901101351,0.0008021441171877086
1738773152662905300,7.0119052734375,0.0004396878939587623,0.00370126124471426,0.0008325041271746159
1738773152672897300,7.021897216796875,0.001913214917294681,0.0028644960839301348,0.0011598066193982959
1738773152682888200,7.03188818359375,0.0008562062866985798,0.0046940878964960575,0.0006410228670574725
1738773152692879000,7.041879150390625,0.0015992282424122095,0.0038048583082854748,0.0006649913266301155
1738773152702870300,7.051870361328125,0.00022796659322921187,0.004251736681908369,-0.00039840888348408043
1738773152712861200,7.061861083984375,0.0006719155353493989,0.0034317492973059416,0.0009861685102805495
1738773152722852400,7.071852294921875,0.0010128001449629664,0.004365986213088036,-0.000012783173588104546
1738773152732843500,7.081843505859375,0.0018969696247950196,0.003971305675804615,0.0020873856265097857
1738773152742835200,7.091835205078125,0.0011528824688866735,0.003543335711583495,0.0016069513512775302
1738773152752826000,7.101826171875,0.0004777711001224816,0.0038195056840777397,-0.00020666129421442747
1738773152762817300,7.1118173828125,0.000556334329303354,0.004122839774936438,-0.00039175100391730666
1738773152772808200,7.12180810546875,0.0012279836228117347,0.004711132030934095,-0.0007848335662856698
1738773152782799400,7.13179931640625,0.0005747101386077702,0.004599012900143862,0.0001347559446003288
1738773152792790500,7.14179052734375,-0.00043276368523947895,0.00475427508354187,0.0010186590952798724
1738773152802781400,7.151781494140625,0.0018607506062835455,0.005592904519289732,-0.0003832288784906268
1738773152812772400,7.1617724609375,0.0014860439114272594,0.002216548891738057,0.0008530105114914477
1738773152822764300,7.171764404296875,0.0010522148804739118,0.004277302883565426,-0.000431432097684592
1738773152832755200,7.181755126953125,0.0013728595804423094,0.0030538467690348625,0.0003914846747647971
1738773152842746400,7.191746337890625,0.0011643340112641454,0.0021608888637274504,-0.00027270769351162016
1738773152852737500,7.201737548828125,0.0025302693247795105,0.0034200313966721296,-0.00016351809608750045
1738773152862728400,7.211728515625,0.0017065536230802536,0.003291400847956538,-0.00012010856153210625
1738773152872719400,7.22171923828125,0.0014178669080138206,0.005139634478837252,-0.00023755396250635386
1738773152882710300,7.231710205078125,-0.00006844323797849938,0.003819771809503436,0.0008349010022357106
1738773152892702500,7.241702392578125,0.0015659386990591884,0.002237055217847228,-0.0004857605672441423
1738773152902693400,7.251693359375,0.0015339808305725455,0.003750795964151621,0.0006138586322776973
1738773152912684300,7.261684326171875,0.0020991035271435976,0.005107143893837929,0.00016831177345011383
1738773152922675500,7.271675537109375,0.002043709857389331,0.0029142971616238356,-0.0002788329729810357
1738773152932666400,7.281666259765625,-0.0004548678989522159,0.004163053352385759,0.00047084689140319824
1738773152942657300,7.2916572265625,0.001630387152545154,0.0032804817892611027,-0.00012676646292675287
1738773152952648400,7.3016484375,-0.0004439489566721022,0.0041558630764484406,0.0005001416429877281
1738773152962640400,7.311640380859375,0.0011281149927526712,0.004466121084988117,0.0010610034223645926
1738773152972631300,7.32163134765625,0.001088433898985386,0.0029228192288428545,0.0003563309437595308
1738773152982622500,7.33162255859375,0.002737196860834956,0.004591289907693863,0.00009347695595351979
1738773152992613400,7.34161328125,0.0019955066964030266,0.004191016778349876,0.0006673881434835494
1738773153002604300,7.351604248046875,0.0003480751474853605,0.003195527009665966,0.0011584750609472394
1738773153012595500,7.361595458984375,0.0019568908028304577,0.004373443312942982,-0.0004724447790067643
1738773153022586400,7.37158642578125,0.0018378474051132798,0.004510329570621252,-0.00027324032271280885
1738773153032577300,7.381577392578125,0.0011968245962634683,0.0026735474821180105,0.000707868195604533
1738773153042569500,7.391569580078125,0.003111104713752866,0.0043777041137218475,0.0008665926288813353
1738773153052560400,7.401560302734375,0.00046072687837295234,0.0037987329997122288,-0.00012676646292675287
1738773153062551300,7.41155126953125,0.00018322547839488834,0.0032410670537501574,-0.00007776429993100464
1738773153072542500,7.42154248046875,0.000892691605258733,0.003950799349695444,0.0011414308100938797
1738773153082533400,7.431533447265625,0.0010226538870483637,0.0043870252557098866,0.0012303803814575076
1738773153092524300,7.441524169921875,0.002151035238057375,0.003221093211323023,0.00253479671664536
1738773153102515200,7.45151513671875,0.0006737797521054745,0.003710316028445959,0.0013161342358216643
1738773153112507400,7.46150732421875,0.0005930859479121864,0.0034413367975503206,-0.00003968110104324296
1738773153122498300,7.471498291015625,0.002002164488658309,0.0037710361648350954,0.00036671728594228625
1738773153132489200,7.4814892578125,0.0027273432351648808,0.003920439630746841,-0.0012543488992378116
1738773153142480400,7.49148046875,0.0014426343841478229,0.00350472005084157,0.00005219795639277436
1738773153152471300,7.50147119140625,0.0009989517275243998,0.00449994346126914,-0.00016298545233439654
1738773153162462200,7.511462158203125,0.0010189254535362124,0.002620816696435213,-0.000258859246969223
1738773153172453400,7.521453369140625,0.00004660531703848392,0.004619785584509373,0.0006876281695440412
1738773153182444300,7.5314443359375,0.0006348976166918874,0.004567853640764952,0.0007850998663343489
1738773153192436200,7.541436279296875,0.0016144082183018327,0.00404454255476594,-0.0012737899087369442
1738773153202427400,7.551427490234375,0.0012945625931024551,0.0035838158801198006,0.0002822950773406774
1738773153212418300,7.561418212890625,0.0009978864109143615,0.004918059334158897,0.00021385183208622038
1738773153222409200,7.5714091796875,0.0018330537714064121,0.003376089269295335,0.0005347627447918057
1738773153232400400,7.581400390625,0.001050350721925497,0.003834951901808381,0.00006178533658385277
1738773153242391300,7.591391357421875,0.0019326560432091355,0.003820570884272456,0.0010988202411681414
1738773153252382200,7.60138232421875,0.00026738137239590287,0.0036155073903501034,0.001478587044402957
1738773153262373000,7.611373046875,0.00037204360705800354,0.002121740486472845,0.0000876179983606562
1738773153272365300,7.621365234375,0.0008170577930286527,0.003025883575901389,0.0007512777228839695
1738773153282356200,7.631356201171875,0.0014942996203899384,0.0034266894217580557,-0.0011427623685449362
1738773153292347400,7.641347412109375,0.0011638014111667871,0.0041185785084962845,-0.00009028115891851485
1738773153302338300,7.65133837890625,0.0010950918076559901,0.0021723404061049223,0.0005352954030968249
1738773153312329200,7.6613291015625,0.0014229270163923502,0.0033931334037333727,-0.00041199102997779846
1738773153322320100,7.671320068359375,0.0010093380697071552,0.004099936690181494,0.00031638352083973587
1738773153332311000,7.68131103515625,0.0020088222809135914,0.0035300198942422867,0.0012650014832615852
1738773153342302200,7.69130224609375,0.0028690234757959843,0.004262122791260481,0.0017771273851394653
1738773153352294100,7.701294189453125,0.0003760383406188339,0.002639725338667631,-0.0005363606614992023
1738773153362285000,7.71128515625,0.0021406488958746195,0.004142014309763908,-0.0010002832859754562
1738773153372276200,7.721276123046875,0.00041278995922766626,0.0039009982720017433,-0.0010458233300596476
1738773153382267100,7.73126708984375,0.001995772821828723,0.0033931334037333727,-0.0017158746486529708
1738773153392258000,7.741258056640625,-0.00047936898772604764,0.004230963997542858,0.0014735270524397492
1738773153402249200,7.751249267578125,0.0007414240390062332,0.003165965899825096,0.00015339808305725455
1738773153412240400,7.761240478515625,0.001743571599945426,0.004078631289303303,0.0005986785981804132
1738773153422232000,7.771232177734375,0.002082591876387596,0.0038131140172481537,-0.0001675128296483308
1738773153432223000,7.781222900390625,0.0014418354257941246,0.004318315535783768,0.0008506136364303529
1738773153442214100,7.791214111328125,0.0012665993999689817,0.0038155107758939266,-0.0001680454588495195
1738773153452205000,7.801205078125,-0.00033342777169309556,0.003011502558365464,0.0007691209320910275
1738773153462196200,7.8111962890625,0.0016077503096312284,0.005388107616454363,0.0008681904873810709
1738773153472187400,7.8211875,0.0011193265672773123,0.003739610780030489,-0.0002591255761217326
1738773153482178300,7.83117822265625,0.003614974906668067,0.004072505980730057,-0.001303351018577814
1738773153492169200,7.841169189453125,0.0024019049014896154,0.0039084553718566895,0.00025592977181077003
1738773153502161200,7.8511611328125,0.0013235911028459668,0.003967044875025749,-0.000045540054998127744
1738773153512152300,7.86115234375,0.0013571468880400062,0.005372927524149418,0.0002996056282427162
1738773153522143200,7.871143310546875,0.0012199940392747521,0.0034027209039777517,-0.0029316076543182135
1738773153532134400,7.881134521484375,0.0011789813870564103,0.0037614486645907164,0.000017310547264060006
1738773153542125300,7.891125244140625,0.0017694041598588228,0.0034141724463552237,0.0003304982965346426
1738773153552116200,7.9011162109375,0.0018791264155879617,0.004620051942765713,0.0014498248929157853
1738773153562107100,7.911107177734375,0.0018157431622967124,0.005152151454240084,0.00016245282313320786
1738773153572098300,7.921098388671875,0.0012937636347487569,0.004462925251573324,0.0017028251895681024
1738773153582090200,7.93109033203125,-0.000601075473241508,0.00205276464112103,-0.0003347593592479825
1738773153595203000,7.944203125,0.0013486248208209872,0.005348159931600094,-0.0005696501466445625
1738773153605194000,7.954194091796875,0.0013725932221859694,0.0029758161399513483,0.00018668759730644524
1738773153615185200,7.96418505859375,0.0012926984345540404,0.004485561978071928,0.0007291734800674021
1738773153625176000,7.974176025390625,0.002020540414378047,0.004935902543365955,-0.0006836334359832108
1738773153635167200,7.984167236328125,0.00016937704640440643,0.003462908323854208,0.00038535939529538155
1738773153645158400,7.994158447265625,0.002900448627769947,0.004248540848493576,-0.0010048106778413057
1738773153655150000,8.004150146484376,0.00007776429993100464,0.004125769250094891,-0.00021891183860134333
1738773153665141000,8.01414111328125,0.0013235911028459668,0.0028399948496371508,-0.0001280980504816398
1738773153675132200,8.024132080078125,0.0021057615522295237,0.004233094397932291,0.00019867181254085153
1738773153685123300,8.034123291015625,0.001782453735359013,0.005257878918200731,0.0013880395563319325
1738773153695114200,8.0441142578125,0.003293531248345971,0.002427471335977316,0.0006727144937030971
1738773153705105400,8.05410546875,0.001961151836439967,0.0033712955191731453,-0.000022636868379777297
1738773153715096300,8.064096435546874,0.001978995045647025,0.004455202259123325,0.0016458334866911173
1738773153725087200,8.074087158203126,0.001728924224153161,0.0032077773939818144,-0.0003230414295103401
1738773153735079200,8.0840791015625,0.0016218650853261352,0.004426972474902868,0.0000399474156438373
1738773153745070300,8.0940703125,0.001008805469609797,0.0037558560725301504,0.0006223807577043772
1738773153755061200,8.104061279296875,0.0011195929255336523,0.003961452282965183,0.0019201391842216253
1738773153765052200,8.11405224609375,0.001976065570488572,0.002272208919748664,0.000523843802511692
1738773153775043300,8.124043212890625,0.0006841660942882299,0.0038064562249928713,-0.00009933590627042577
1738773153785034200,8.1340341796875,0.0013305152533575892,0.004027764778584242,0.0009195895399898291
1738773153795025200,8.144025146484376,-0.00024714134633541107,0.003494866192340851,0.0009302421822212636
1738773153805016300,8.154016357421876,0.0023398532066494226,0.004194212146103382,0.00035499935620464385
1738773153815008300,8.16400830078125,0.0014791196445003152,0.00261895265430212,-0.00005352953667170368
1738773153824999200,8.173999267578125,0.0029401297215372324,0.003025617217645049,0.0011406318517401814
1738773153834990300,8.183990234375,0.001076982356607914,0.0035771578550338745,0.0001960086519829929
1738773153844981200,8.193981201171875,0.0029172266367822886,0.003233610186725855,0.00012250541476532817
1738773153854972200,8.20397216796875,0.0040916805155575275,0.00441019469872117,-0.00002609897819638718
1738773153864963300,8.21396337890625,0.0007608651067130268,0.004458664450794458,0.00021651499264407903
1738773153874954200,8.223954345703126,0.0011488876771181822,0.0049191247671842575,0.0010735202813521028
1738773153884945200,8.233945068359375,0.0024506407789885998,0.004097007215023041,0.0002407497668173164
1738773153894937300,8.243937255859375,-0.00021837920940015465,0.0038013961166143417,0.00028069718973711133
1738773153904928300,8.25392822265625,-0.00012223910016473383,0.004274373408406973,0.0005195827106945217
1738773153914919200,8.263919189453125,0.0011531487107276917,0.0033838124945759773,0.0009805759182199836
1738773153924910300,8.273910400390625,0.0016314524691551924,0.004988367203623056,-0.00016325176693499088
1738773153934901200,8.2839013671875,0.000984570593573153,0.003424292430281639,0.00004820321555598639
1738773153945517300,8.294517333984375,0.00010412959818495438,0.0023398532066494226,0.0013555489713326097
1738773153955508200,8.30450830078125,0.0008221178431995213,0.005320463329553604,0.0018322548130527139
1738773153965499100,8.3144990234375,0.0020543625578284264,0.0028644960839301348,0.000011984225238848012
1738773153975490000,8.324489990234374,0.0010229201288893819,0.004315386060625315,0.0012863067677244544
1738773153985482200,8.334482177734374,0.0012189288390800357,0.002513491315767169,0.00004394215648062527
1738773153995473200,8.34447314453125,0.0016421051695942879,0.002921487670391798,-0.00044528054422698915
1738773154005464000,8.354464111328125,0.0010921623324975371,0.0043832967057824135,0.00022956448083277792
1738773154015455200,8.364455322265625,0.0017931063193827868,0.004466653801500797,0.00019441076437942684
1738773154025446100,8.374446044921875,0.002079662401229143,0.004258926957845688,0.000601075473241508
1738773154035437000,8.38443701171875,-0.0002798982313834131,0.0030192257836461067,0.0005829659639857709
1738773154045428200,8.39442822265625,0.0021763353142887354,0.0027454528026282787,0.000556600687559694
1738773154055419100,8.404419189453124,0.002139050979167223,0.0035694348625838757,0.0015941682504490018
1738773154065411000,8.4144111328125,0.002074069809168577,0.003058107802644372,0.0007225155713967979
1738773154075402200,8.42440234375,0.0021734058391302824,0.003870105603709817,0.0014183996245265007
1738773154085393200,8.43439306640625,0.0010362359462305903,0.00384400668554008,-0.00034700988908298314
1738773154095384000,8.444384033203125,0.0014801849611103535,0.00376011710613966,-0.0011017497163265944
1738773154105375200,8.454375244140625,0.0016823188634589314,0.004028297495096922,0.0007731156656518579
1738773154115366100,8.4643662109375,0.0023545008152723312,0.003965180367231369,-0.0006937534781172872
1738773154125357000,8.474357177734374,0.0005022721597924829,0.005154015496373177,0.0007906925166025758
1738773154135349200,8.484349365234374,0.0001584580895723775,0.003945739474147558,0.00042024682625196874
1738773154145340200,8.494340087890626,0.0011526161106303334,0.0036645096261054277,-0.0010098706698045135
1738773154155331000,8.5043310546875,-0.00008495483780279756,0.003993942867964506,-0.0000500674286740832
1738773154165322200,8.514322265625,0.0019478360190987587,0.0037579864729195833,0.000999484327621758
1738773154175313200,8.524313232421875,-0.00038003307417966425,0.0034498588647693396,0.0008314388687722385
1738773154185304000,8.534303955078125,0.0017755294684320688,0.0035332157276570797,0.0006921555614098907
1738773154195295000,8.544294921875,0.0018186726374551654,0.003916977439075708,-0.000050866376113845035
1738773154205286100,8.5542861328125,0.0004415521107148379,0.0037649108562618494,-0.0004889564006589353
1738773154215278000,8.564278076171876,0.0015912387752905488,0.003366768127307296,0.0003371562052052468
1738773154225269000,8.57426904296875,0.0009475527331233025,0.004296211525797844,0.00043595946044661105
1738773154235260200,8.58426025390625,0.0017875137273222208,0.004596349783241749,0.00028043086058460176
1738773154245251000,8.5942509765625,0.0004849616379942745,0.003775030840188265,0.0006703176186420023
1738773154255242000,8.604241943359375,0.001916410750709474,0.004491687286645174,-0.00011984224693151191
1738773154265233200,8.614233154296874,0.0018277274211868644,0.004036020487546921,0.00003355582884978503
1738773154275224300,8.624224365234374,-0.00036671728594228625,0.0034874093253165483,0.0006479470757767558
1738773154285216000,8.634216064453126,0.0014018879737704992,0.004831240512430668,-0.00054142065346241
1738773154295207200,8.644207275390626,0.0015193333383649588,0.0054672034457325935,0.0003632551815826446
1738773154305198000,8.654197998046875,0.002907373011112213,0.0037172401789575815,0.000045806369598722085
1738773154315189200,8.664189208984375,0.0022748722694814205,0.004066913388669491,0.0005142564186826348
1738773154325180400,8.674180419921875,0.00023169501218944788,0.0030605047941207886,0.0010399643797427416
1738773154335171600,8.684171630859375,0.0005150553770363331,0.0028730181511491537,0.0014122743159532547
1738773154345162500,8.69416259765625,0.0018122810870409012,0.0059257997199893,-0.0007712514488957822
1738773154355153400,8.7041533203125,0.0002796319022309035,0.0041100564412772655,0.00012516857532318681
1738773154365145300,8.714145263671876,0.0026293389964848757,0.002746784361079335,-0.00032650353386998177
1738773154375136300,8.72413623046875,0.0016996293561533093,0.004731105640530586,0.0006149238906800747
1738773154385127400,8.73412744140625,0.0009584716754034162,0.0032615733798593283,0.0007890945998951793
1738773154395118600,8.74411865234375,0.0025220136158168316,0.0034171019215136766,0.0005715143634006381
1738773154405109500,8.754109619140625,-0.000037017940485384315,0.003991279285401106,0.000669518718495965
1738773154415100400,8.764100341796874,0.000027430558475316502,0.0033310819417238235,0.001413073274306953
1738773154425091600,8.774091552734374,0.00013262542779557407,0.003891411004588008,-0.0008905610884539783
1738773154435083300,8.784083251953126,0.0006846986943855882,0.004347876645624638,0.0010993528412654996
1738773154445074400,8.794074462890626,-0.0006183860241435468,0.003984621725976467,-0.00026844663079828024
1738773154455065600,8.804065673828125,0.0020666129421442747,0.0037819549906998873,-0.000021837920940015465
1738773154465056500,8.814056396484375,0.0014383733505383134,0.003376089269295335,0.0006631271098740399
1738773154475047400,8.82404736328125,0.0006061354652047157,0.0030567762441933155,0.00015579492901451886
1738773154485038600,8.83403857421875,0.0011012171162292361,0.003477289341390133,0.0016104135429486632
1738773154495029500,8.844029541015624,0.0007198524544946849,0.004382497631013393,0.001160072977654636
1738773154505020400,8.8540205078125,0.0026194851379841566,0.001871403306722641,-0.0003454120014794171
1738773154515012600,8.8640126953125,0.002639458980411291,0.002645584288984537,-0.000015978966985130683
1738773154525003500,8.87400341796875,0.0004934837343171239,0.0040978058241307735,-0.0002924150903709233
1738773154534994400,8.883994384765625,0.0021134845446795225,0.0034999263007193804,0.0004652542411349714
1738773154544985600,8.893985595703125,0.0013616742799058557,0.0030711572617292404,-0.000627973407972604
1738773154554976500,8.9039765625,0.0006743124104104936,0.002487925114110112,-0.00029774141148664057
1738773154564967400,8.913967529296874,0.0010396981379017234,0.0031140341889113188,0.0011574097443372011
1738773154574958300,8.923958251953126,0.0013704627053812146,0.0019600866362452507,-0.0005866943974979222
1738773154584949500,8.933949462890626,0.0038903458043932915,0.004338821861892939,0.00018988338706549257
1738773154594941400,8.94394140625,0.0010357033461332321,0.00256409146822989,0.0012863067677244544
1738773154604932600,8.9539326171875,0.0008807073463685811,0.0025100293569266796,0.00013502225920092314
1738773154614923500,8.963923583984375,0.0014652712270617485,0.0035033884923905134,-0.0000977380113909021
1738773154624914400,8.97391455078125,0.0009568737586960196,0.00401498144492507,0.0006617955514229834
1738773154634905300,8.9839052734375,0.0009020126308314502,0.003451723139733076,-0.00035127095179632306
1738773154644896500,8.993896484375,0.002463157754391432,0.004620051942765713,-0.00038535939529538155
1738773154654887400,9.003887451171876,0.0018887137994170189,0.004205131437629461,0.0008870989549905062
1738773154664879400,9.01387939453125,0.00017097493400797248,0.0035630431957542896,0.0006551376427523792
1738773154674870500,9.02387060546875,0.002222940558567643,0.0033755565527826548,0.00012836436508223414
1738773154684861400,9.033861328125,0.000788561999797821,0.00526666734367609,0.00011957593233091757
1738773154694852400,9.043852294921875,-0.00014753911818843335,0.0028940571937710047,-0.0005701828049495816
1738773154704843500,9.053843505859374,0.0020602215081453323,0.002772350562736392,0.0002932140196207911
1738773154714834400,9.06383447265625,0.0017267935909330845,0.0038490667939186096,0.0005368932615965605
1738773154724825300,9.073825439453126,0.0025837989524006844,0.003762780223041773,0.0014266553334891796
1738773154734816500,9.08381640625,0.0008287757518701255,0.004802478477358818,0.0011174624087288976
1738773154744808400,9.093808349609375,0.0019683423452079296,0.002817358123138547,-0.0005664543714374304
1738773154754799400,9.10379931640625,0.0007709851488471031,0.005268265027552843,0.000913197931367904
1738773154764790500,9.11379052734375,0.0021283982787281275,0.004252003040164709,0.0010439591715112329
1738773154774781400,9.123781494140625,0.0010399643797427416,0.003816842334344983,-0.0007273092633113265
1738773154784772400,9.1337724609375,0.0012154667638242245,0.005323392804712057,-0.0003296993381809443
1738773154794763300,9.14376318359375,-0.00088949577184394,0.003385676769539714,0.00022423815971706063
1738773154804754400,9.15375439453125,0.0021608888637274504,0.003425091505050659,-0.00009747169679030776
1738773154814746400,9.163746337890625,-0.00025486451340839267,0.002435727044939995,0.0005627259379252791
1738773154824737500,9.173737548828125,0.0016860472969710827,0.0033039175905287266,0.0010018812026828527
1738773154834728400,9.183728515625,0.0018516959389671683,0.003175287041813135,0.002516420790925622
1738773154844719400,9.19371923828125,0.001401355373673141,0.004011253360658884,-0.00023568976030219346
1738773154854710300,9.203710205078124,0.0012373046483844519,0.003145193215459585,0.0020783308427780867
1738773154864701400,9.213701416015626,0.0016538230702280998,0.0036911412607878447,0.0005826996639370918
1738773154874692400,9.2236923828125,0.0011321097845211625,0.0028008464723825455,-0.000010120012120751198
1738773154884683300,9.233683349609375,0.002001898130401969,0.0034501252230256796,-0.0006881608278490603
1738773154894675500,9.243675537109375,0.000538491178303957,0.0022056300658732653,0.0007099987124092877
1738773154904666400,9.253666259765625,0.0011659319279715419,0.0019971043802797794,-0.00024820660473778844
1738773154914657300,9.2636572265625,0.0008261125767603517,0.0044080642983317375,0.0009286442655138671
1738773154924648400,9.2736484375,0.00040293627534992993,0.003724963404238224,0.0006543386843986809
1738773154934639400,9.283639404296874,0.001945439144037664,0.004323375876992941,-0.0005752427969127893
1738773154944630300,9.29363037109375,0.0024913870729506016,0.003313771216198802,0.0003153182624373585
1738773154954621400,9.303621337890625,0.001677525113336742,0.004006992094218731,-0.0002247707889182493
1738773154964613400,9.31361328125,0.0006596649764105678,0.004343882203102112,-0.00044368262751959264
1738773154974604300,9.323604248046875,0.0006466155173256993,0.002882871776819229,-0.00044341632747091353
1738773154984595500,9.333595458984375,0.00299286050722003,0.004048004746437073,0.0009656621841713786
1738773154994586400,9.34358642578125,0.0009949569357559085,0.003352653468027711,0.0006151901907287538
1738773155004577300,9.353577392578124,-0.0001651159836910665,0.0036706349346786737,-0.0003707120195031166
1738773155014568400,9.363568359375,0.0007187871960923076,0.0026913906913250685,0.00004660531703848392
1738773155024559600,9.3735595703125,0.0014482269762083888,0.003629622282460332,-0.0006048039067536592
1738773155034550500,9.383550537109375,0.001865544356405735,0.0036557212006300688,-0.000050600061513250694
1738773155044542500,9.39354248046875,0.0021166803780943155,0.004978246986865997,0.0004926847759634256
1738773155054533400,9.403533447265625,0.002198705682530999,0.003498594742268324,-0.00045140579459257424
1738773155064524300,9.413524169921875,0.000586161739192903,0.004563060123473406,-0.0008024104172363877
1738773155074515500,9.423515380859374,0.0003499393642414361,0.0038453382439911366,0.00017710021347738802
1738773155084506600,9.433506591796874,0,0.0032056469935923815,-0.0010250506456941366
1738773155094497500,9.44349755859375,0.0015901734586805105,0.004188885912299156,-0.00040293627534992993
1738773155104488400,9.453488525390625,0.0013012205017730594,0.0036402747500687838,0.00007163903501350433
1738773155114479600,9.463479736328125,0.00088949577184394,0.002924417145550251,0.00007004113285802305
1738773155124471600,9.473471435546875,0.0015763250412419438,0.004473311826586723,0.0005901564727537334
1738773155134462500,9.48346240234375,0.0035143073182553053,0.003233343828469515,-0.0000756337758502923
1738773155144453600,9.49345361328125,0.0015164038632065058,0.0034258903469890356,0.000472977408207953
1738773155154444500,9.503444580078124,0.0007568703731521964,0.004738828632980585,0.00043302998528815806
1738773155164435500,9.513435546875,0.000472977408207953,0.0022687469609081745,0.0002812298189383
1738773155174426600,9.523426513671875,0.0015108112711459398,0.004522047471255064,0.00025513084256090224
1738773155184417500,9.53341748046875,0.0013275857781991363,0.004071973264217377,-0.0005094627267681062
1738773155194409500,9.543409423828125,0.00119602563790977,0.0037260286044329405,0.0004487426485866308
1738773155204400600,9.553400634765625,0.001058872789144516,0.005648298189043999,0.001115598133765161
1738773155214391600,9.5633916015625,0.0003920173039659858,0.002951315138489008,-0.0007731156656518579
1738773155224382500,9.573382568359374,0.001710814656689763,0.0036972665693610907,-0.0010785802733153105
1738773155234373400,9.583373291015626,0.00145222176797688,0.005321528296917677,0.0005030711181461811
1738773155244364500,9.593364501953126,-0.00001704423084447626,0.0023161512799561024,-0.0001334243715973571
1738773155254355500,9.60335546875,0.001421861699782312,0.004442152567207813,0.0009139968897216022
1738773155264346400,9.613346435546875,0.0011488876771181822,0.004853877238929272,0.0004487426485866308
1738773155274338600,9.623338623046875,-0.00003435477628954686,0.0025475798174738884,0.000176301269675605
1738773155284329500,9.63332958984375,0.0008282430935651064,0.004198473412543535,-0.00011345066013745964
1738773155294320400,9.6433203125,0.00029534456552937627,0.004720985423773527,0.00058323226403445
1738773155304311600,9.6533115234375,0.001532382913865149,0.004793956410139799,0.00027750138542614877
1738773155314302500,9.663302490234376,0.0004546015989035368,0.0032743564806878567,0.0007707187905907631
1738773155324293400,9.67329345703125,0.001970206620171666,0.004135622642934322,-0.0010599381057545543
1738773155334284500,9.683284423828125,0.0007448861724697053,0.0027973842807114124,0.0011598066193982959
1738773155344275500,9.693275390625,0.002304699504747987,0.004337756894528866,-0.0009070726810023189
1738773155354267600,9.703267578125,0.00041545313433744013,0.004230431281030178,-0.0003057308786083013
1738773155364258600,9.713258544921874,0.0037380128633230925,0.00299259414896369,-0.0014612764352932572
1738773155374249500,9.72324951171875,0.0005067995516583323,0.0036993969697505236,0.0009832390351220965
1738773155384240400,9.733240478515626,0.0013515542959794402,0.0037324202712625265,0.0018397116800770164
1738773155394231600,9.7432314453125,0.0026059031952172518,0.005149488337337971,0.0006548712844960392
1738773155404222500,9.753222412109375,0.0023350596893578768,0.002394980750977993,0.00010199906682828441
1738773155414213400,9.76321337890625,0.0021457087714225054,0.004996090196073055,0.0012570120161399245
1738773155424204500,9.77320458984375,0.0003507383225951344,0.004709267523139715,-0.00026551715563982725
1738773155434196500,9.783196533203125,0.001326786819845438,0.00529729388654232,0.0010037453612312675
1738773155444187400,9.7931875,0.0024114924017339945,0.005821669939905405,0.00013182646944187582
1738773155454178600,9.803178466796876,0.001564873498864472,0.0037643781397491693,-0.00041012681322172284
1738773155464169500,9.81316943359375,0.0005496764206327498,0.0036826191935688257,0.0014564828015863895
1738773155474160400,9.823160400390625,0.0010018812026828527,0.00458729499951005,-0.00029081720276735723
1738773155484151300,9.8331513671875,0.00016165387933142483,0.0038301581516861916,0.0001994707708945498
1738773155494142500,9.843142578125,0.002805107505992055,0.0062360577285289764,-0.000059388490626588464
1738773155504133400,9.85313330078125,0.0001102548703784123,0.003424026072025299,-0.0007898935582488775
1738773155514125600,9.86312548828125,0.0017923073610290885,0.004261856433004141,0.00042983421008102596
1738773155524116500,9.873116455078126,0.0024431839119642973,0.005020058713853359,0.0016857809387147427
1738773155534107400,9.883107421875,-0.0003147856332361698,0.004072772338986397,-0.0006021407316438854
1738773155544098300,9.893098388671875,0.0016732640797272325,0.004768922459334135,0.0005842975224368274
1738773155554089500,9.90308935546875,0.0008111988427117467,0.0036093820817768574,-0.00096113485051319
1738773155564080400,9.913080322265625,0.001755023142322898,0.0026378610637038946,-0.0006087986403144896
1738773155574071300,9.9230712890625,0.0033039175905287266,0.0041089910082519054,0.0012567456578835845
1738773155584062500,9.9330625,0.0009653958841226995,0.0024802018888294697,0.0005030711181461811
1738773155594054400,9.943054443359374,0.00029774141148664057,0.0026075011119246483,0.0005305017111822963
1738773155604045300,9.95304541015625,0.0020184097811579704,0.004323641769587994,0.0005219795857556164
1738773155614036500,9.963036376953125,0.000928111607208848,0.004461327567696571,0.0004743089957628399
1738773155624027400,9.97302734375,0.001976065570488572,0.001787779969163239,0.0008290420519188046
1738773155634018300,9.983018310546875,0.002883138135075569,0.0049556102603673935,0.00021358551748562604
1738773155644009500,9.993009521484375,-0.0000953411654336378,0.0029678267892450094,-0.0007352987886406481
1738773155654000600,10.003000732421874,0.0005052016349509358,0.0034000577870756388,-0.00096086849225685
1738773155663992300,10.012992431640624,0.0015957661671563983,0.003168895374983549,0.000958205375354737
1738773155673983500,10.0229833984375,0.00044288369826972485,0.002560629276558757,0.00015233281010296196
1738773155683974400,10.032974365234375,0.0018698053900152445,0.0041095237247645855,-0.00009241169027518481
1738773155693965300,10.04296533203125,0.00031664984999224544,0.003254649229347706,0.0016221314435824752
1738773155703956500,10.05295654296875,0.0014120079576969147,0.0032985913567245007,-0.0005123922019265592
1738773155713947600,10.06294775390625,0.0013025520602241158,0.0032029838766902685,-0.0002889529860112816
1738773155723938600,10.0729384765625,0.0006689860601909459,0.003924434073269367,0.0005499427788890898
1738773155733929500,10.082929443359374,0.003462908323854208,0.004063983913511038,0.000023968450477696024
1738773155743921400,10.09292138671875,0.0023497070651501417,0.0037651772145181894,-0.000675111310556531
1738773155753912600,10.10291259765625,0.0025065671652555466,0.004416053649038076,0.0002884203568100929
1738773155763903500,10.112903564453125,0.0010450243717059493,0.003227484878152609,-0.0006514092092402279
1738773155773894700,10.122894775390625,0.0012492889072746038,0.004560929723083973,0.0014700648607686162
1738773155783885600,10.132885498046875,0.0015579492319375277,0.0030146983917802572,0.0006045375484973192
1738773155793876500,10.14287646484375,0.0008913599886000156,0.0037116475868970156,0.00012650014832615852
1738773155803867600,10.15286767578125,0.0010106696281582117,0.003917243797332048,-0.0012668657582253218
1738773155813858600,10.162858642578126,0.0009012137306854129,0.003038134193047881,-0.00009347695595351979
1738773155823850500,10.1728505859375,0.0006844323943369091,0.005161472596228123,-0.00039707732503302395
1738773155833841700,10.182841552734375,0.0011321097845211625,0.0027507790364325047,-0.0006162554491311312
1738773155843832600,10.19283251953125,0.0004316983977332711,0.0033995250705629587,0.0002300971100339666
1738773155853823500,10.202823486328125,0.0008143946761265397,0.0035662390291690826,0.00026844663079828024
1738773155863814700,10.212814697265625,0.0020501012913882732,0.002653573639690876,-0.0001203748834086582
1738773155873805600,10.2228056640625,0.0011925635626539588,0.005591306835412979,0.0009712548344396055
1738773155883796500,10.23279638671875,-0.0010109359864145517,0.002918025478720665,0.0007723167072981596
1738773155893787400,10.242787353515626,0.001359543763101101,0.003266899613663554,-0.0017712684348225594
1738773155903779600,10.252779541015625,0.0024916534312069416,0.0040887510403990746,-0.00023196132679004222
1738773155913770500,10.2627705078125,0.0018530274974182248,0.004381699021905661,0.0002884203568100929
1738773155923761400,10.272761474609375,0.001439971150830388,0.0035926043055951595,-0.00021598236344289035
1738773155933752600,10.282752685546875,0.0013084110105410218,0.0052112736739218235,0.0005017395596951246
1738773155943743500,10.292743408203124,0.0010809770319610834,0.002728408435359597,0.00017710021347738802
1738773155953734400,10.302734375,0.00395799009129405,0.00412390474230051,0.0001608549355296418
1738773155963725600,10.3127255859375,0.0019262643763795495,0.0044173854403197765,0.000853809411637485
1738773155973716500,10.322716552734375,0.0009515474666841328,0.0026735474821180105,-0.000055393749789800495
1738773155983708400,10.33270849609375,0.00210682675242424,0.0033997914288192987,0.0009305084822699428
1738773155993699600,10.342699462890625,-0.00020772656716872007,0.004406199790537357,0.0013930995482951403
1738773156003690500,10.3526904296875,0.0007384945638477802,0.003469566348940134,-0.0005331648280844092
1738773156013681400,10.362681396484374,0.0005451490869745612,0.0032091091852635145,0.0004876247840002179
1738773156023672600,10.372672607421874,0.0022024342324584723,0.003547064261510968,0.0007030745036900043
1738773156033663500,10.38266357421875,0.0023350596893578768,0.002397643867880106,-0.0013765880139544606
1738773156043654400,10.392654296875,0.0006029396899975836,0.0036852823104709387,0.000245543458731845
1738773156053645300,10.402645263671875,0.0010093380697071552,0.004521514754742384,0.001213868847116828
1738773156063637500,10.412637451171875,0.002139050979167223,0.003201652318239212,0.00020346550445538014
1738773156073628400,10.42262841796875,0.00028389296494424343,0.00475347600877285,0.000538491178303957
1738773156083619600,10.43261962890625,0.002413356676697731,0.003082342678681016,0.00003861583536490798
1738773156093610500,10.442610595703124,0.0014021543320268393,0.00355798308737576,-0.00025353292585350573
1738773156103601400,10.452601318359376,-0.0004141215467825532,0.004883971065282822,-0.0002948119363281876
1738773156113592300,10.46259228515625,0.0024205471854656935,0.0033686324022710323,0.0007547398563474417
1738773156123583500,10.47258349609375,-0.0003539340978022665,0.0041643851436674595,0.000011717908819264267
1738773156133575400,10.482575439453125,0.0005155879771336913,0.004187288228422403,0.0006756439688615501
1738773156143566300,10.49256640625,0.0028660940006375313,0.003716174978762865,-0.00034434671397320926
1738773156153557500,10.5025576171875,0.0006801713607273996,0.005196892656385899,0.0014506238512694836
1738773156163548400,10.51254833984375,0.0012117383303120732,0.0031609057914465666,-0.0006548712844960392
1738773156173539300,10.522539306640626,0.0009744506096467376,0.0019076223252341151,-0.0004846953088417649
1738773156183530500,10.532530517578126,0.00033449303009547293,0.004737763665616512,0.0018636800814419985
1738773156193521400,10.542521484375,0.002004827605560422,0.0028461201582103968,0.000015180017726379447
1738773156203512300,10.55251220703125,0.00019893812714144588,0.0036456012167036533,0.0006021407316438854
1738773156213503500,10.56250341796875,0.001270327833481133,0.003823234001174569,0.0003121224872302264
1738773156223495400,10.572495361328125,-0.00010492854926269501,0.0044144559651613235,0.00004394215648062527
1738773156233486300,10.582486328125,0.00045087316539138556,0.004308462142944336,0.00043542683124542236
1738773156243477500,10.5924775390625,0.0005283711361698806,0.0023422501981258392,0.0011627360945567489
1738773156253468400,10.602468505859376,0.002920954953879118,0.004596882499754429,-0.00011451592581579462
1738773156263459300,10.612459228515625,0.0009603358921594918,0.004736964590847492,0.0017062872648239136
1738773156273450500,10.622450439453125,-0.0007701861904934049,0.0037476003635674715,0.0015715312911197543
1738773156283441700,10.632441650390625,0.0016982977977022529,0.005849633365869522,-0.000922252656891942
1738773156293433300,10.642433349609375,0.002083124592900276,0.004748948849737644,0.0011012171162292361
1738773156303424500,10.652424560546875,0.00205276464112103,0.0035774242132902145,0.0006522081675939262
1738773156313415400,10.66241552734375,0.0022825952619314194,0.002977147698402405,0.0010990865994244814
1738773156323406300,10.67240625,0.0009438242996111512,0.004372910596430302,-0.000050600061513250694
1738773156333397500,10.6823974609375,0.0002980077115353197,0.0032208270858973265,0.0005834985640831292
1738773156343388700,10.692388671875,0.0022623552940785885,0.0036719664931297302,-0.0007765777409076691
1738773156353379800,10.7023798828125,0.0009121326729655266,0.0037891454994678497,0.0006114617572166026
1738773156363370800,10.712370849609375,0.0005613943794742227,0.0032594427466392517,-0.001472461735829711
1738773156373362700,10.72236279296875,0.0008748483960516751,0.005058674607425928,-0.00005725796290789731
1738773156383353600,10.732353515625,0.0005427522119134665,0.002956907730549574,0.00019041601626668125
1738773156393344800,10.7423447265625,0.0013411679537966847,0.004526575095951557,0.0003909520455636084
1738773156403336000,10.7523359375,0.001785116852261126,0.003454386256635189,0.0004391552647575736
1738773156413326800,10.762326904296875,0.0016397082945331931,0.0052171326242387295,-0.0006101301987655461
1738773156423317800,10.77231787109375,0.0016791230300441384,0.003465837799012661,-0.0004551342281047255
1738773156433308700,10.78230859375,0.00088976213010028,0.004487426485866308,-0.0008969526388682425
1738773156443299800,10.7922998046875,0.0004146541759837419,0.004303668159991503,-0.0006828344776295125
1738773156453291800,10.802291748046875,0.0012178635224699974,0.003314836649224162,0.0005432848702184856
1738773156463282700,10.81228271484375,0.0014671353856101632,0.0036160401068627834,-0.0002234392159152776
1738773156473273900,10.82227392578125,0.002273540711030364,0.003599794814363122,0.0014468954177573323
1738773156483264800,10.8322646484375,0.0014719291357323527,0.0027630296535789967,0.0013933659065514803
1738773156493255700,10.842255615234375,0.0003046656202059239,0.003410177771002054,-0.00015686018741689622
1738773156503246800,10.852246826171875,0.0008135957177728415,0.004709267523139715,0.0006854976527392864
1738773156513237800,10.86223779296875,0.00042823629337362945,0.0008056062506511807,0.0011286477092653513
1738773156523229700,10.872229736328125,0.00005858954318682663,0.006069876719266176,-0.00022264027211349458
1738773156533220900,10.882220947265624,0.001466869143769145,0.00464694993570447,0.0011579424608498812
1738773156543211800,10.892211669921876,0.00195156445261091,0.0036972665693610907,-0.0004732437082566321
1738773156553202700,10.90220263671875,0.0017635452095419168,0.005024319514632225,0.0010010822443291545
1738773156563193900,10.91219384765625,0.0024895230308175087,0.0035537220537662506,-0.000922252656891942
1738773156573184800,10.922184814453125,0.0014436995843425393,0.003055977402254939,0.0017222663154825568
1738773156583175700,10.93217578125,-0.00016112125013023615,0.003959321416914463,-0.00025033715064637363
1738773156593168000,10.94216796875,0.0009635316673666239,0.0036096484400331974,0.0001246359315700829
1738773156603158800,10.95215869140625,0.0006527407676912844,0.003186205867677927,0.00013768543431069702
1738773156613149700,10.962149658203124,0.0009086705395020545,0.004529770463705063,0.0010865697404369712
1738773156623140600,10.972140625,0.002425074577331543,0.003953196108341217,0.0009779128013178706
1738773156633131800,10.9821318359375,0.0006258428329601884,0.0031047132797539234,-0.0004450142150744796
1738773156643122700,10.992122802734375,0.0018165421206504107,0.0040972731076180935,0.00140987744089216
1738773156653113600,11.002113525390625,0.0018008295446634293,0.002508431440219283,0.000675111310556531
1738773156663104800,11.012104736328125,0.0005347627447918057,0.0036450685001909733,0.00033662354690022767
1738773156673096700,11.0220966796875,-0.0010410296963527799,0.004326038993895054,0.0012447615154087543
1738773156683087600,11.032087646484374,-0.0006964165950194001,0.0034498588647693396,0.0018884475575760007
1738773156693078800,11.042078857421876,0.0012213257141411304,0.0024684839881956577,0.000013315805517777335
1738773156703069700,11.052069580078125,0.0011917646043002605,0.003605121048167348,-0.0009635316673666239
1738773156713060600,11.062060546875,0.0017422399250790477,0.0035350800026208162,0.00021997711155563593
1738773156723051800,11.0720517578125,0.0006191849242895842,0.003674895968288183,-0.0007137271459214389
1738773156733042700,11.082042724609375,0.0012650014832615852,0.002895655110478401,0.0005273058777675033
1738773156743034600,11.09203466796875,0.0010937602492049336,0.004362790379673243,-0.0009185242815874517
1738773156753025800,11.10202587890625,0.0028104339726269245,0.004296211525797844,-0.0004625910660251975
1738773156763016700,11.1120166015625,0.0017955031944438815,0.004173705819994211,0.0007590008899569511
1738773156773007600,11.122007568359376,0.0003755057114176452,0.0035198999103158712,0.0005720470217056572
1738773156782998800,11.131998779296875,0.0011174624087288976,0.004078098572790623,0.0006924218614585698
1738773156792989700,11.14198974609375,0.0014839133946225047,0.002954510971903801,-0.00023276027059182525
1738773156802980600,11.151980712890625,0.0010487528052181005,0.0046211169101297855,-0.0008317052270285785
1738773156812972800,11.161972900390625,0.0027166905347257853,0.003322559641674161,-0.0001613875647308305
1738773156822963700,11.171963623046874,0.0017473000334575772,0.0034823494497686625,0.0006892260862514377
1738773156832954600,11.18195458984375,0.0017172062071040273,0.003861050819978118,-0.00018642126815393567
1738773156842945500,11.191945556640626,0.001998968655243516,0.0030447919853031635,0.0016990967560559511
1738773156852936700,11.201936767578125,0.000874582096002996,0.004466920159757137,-0.0002966761530842632
1738773156862927600,11.211927734375,0.001960352761670947,0.004087952431291342,0.000609863898716867
1738773156872918500,11.22191845703125,0.0012767193838953972,0.0049281795509159565,0.0013933659065514803
1738773156882909700,11.23190966796875,0.0031902005430310965,0.0029907298739999533,0.0005150553770363331
1738773156892901600,11.241901611328124,0.0004498079069890082,0.005583849735558033,0.0008876316132955253
1738773156902892500,11.251892578125,0.0005776396137662232,0.0033337450586259365,-0.000568052229937166
1738773156912883700,11.2618837890625,0.0025561018846929073,0.0034053840208798647,0.0006876281695440412
1738773156922874600,11.27187451171875,0.0023086944129318,0.0041060615330934525,-0.0008689894457347691
1738773156932865500,11.281865478515625,0.0015246596885845065,0.003291134489700198,-0.0003115898580290377
1738773156942856700,11.291856689453125,0.0011438276851549745,0.004476773552596569,0.0013552826130762696
1738773156952847600,11.30184765625,-0.0002596582053229213,0.004454136826097965,0.00019893812714144588
1738773156962839600,11.311839599609375,0.0009840379934757948,0.004291950259357691,0.0015851134667173028
1738773156972830700,11.321830810546874,0.004060255363583565,0.0052203284576535225,-0.0007819040911272168
1738773156982821600,11.331821533203126,0.003055977402254939,0.0038663772866129875,0.00006711165769957006
1738773156992812500,11.3418125,0.0009139968897216022,0.004605937283486128,0.00005219795639277436
1738773157002803700,11.3518037109375,0.00077631144085899,0.002772350562736392,-0.00034168356796726584
1738773157012794600,11.361794677734375,0.000568318588193506,0.004968659486621618,-0.0002671150432433933
1738773157022785500,11.37178564453125,0.0014620753936469555,0.004543086513876915,0.0011837751371785998
1738773157032777700,11.38177783203125,0.0024743429385125637,0.003856523660942912,0.0007142598042264581
1738773157042768600,11.3917685546875,0.0005605954211205244,0.005557750817388296,0.000005326322025211994
1738773157052759600,11.401759521484376,0.0013526194961741567,0.0034107104875147343,-0.0002263686910737306
1738773157062750500,11.41175048828125,0.000051132694352418184,0.0043987431563436985,0.0016788567882031202
1738773157072741600,11.42174169921875,0.0007579356315545738,0.004706604406237602,0.0007648598402738571
1738773157082732800,11.43173291015625,0.00026019083452410996,0.004221909213811159,-0.00021997711155563593
1738773157092723700,11.4417236328125,0.0011946940794587135,0.002885801251977682,-0.00026764770154841244
1738773157102715600,11.451715576171875,0.0002822950773406774,0.0036709012929350138,0.0005547364708036184
1738773157112706600,11.46170654296875,0.0012620720081031322,0.003207511268556118,0.00027510453946888447
1738773157122697500,11.471697509765624,0.000505734293255955,0.002493784064427018,-0.0010042780777439475
1738773157132688600,11.481688720703126,0.0019683423452079296,0.004661330953240395,-0.00013129384024068713
1738773157142679800,11.4916796875,0.001389637473039329,0.002526008291170001,-0.0016905746888369322
1738773157152670700,11.501670654296875,0.001585646066814661,0.00515774404630065,0.00013981595111545175
1738773157162662000,11.511661865234375,-0.00012916330888401717,0.005805691238492727,0.0025933862198144197
1738773157172653600,11.521653564453125,0.0013781858142465353,0.002514823107048869,0.0007185208378359675
1738773157182644500,11.53164453125,0.001982190879061818,0.0030631679110229015,-0.0006351639167405665
1738773157192635600,11.5416357421875,0.0013821806060150266,0.0030029804911464453,-0.001478587044402957
1738773157202626800,11.551626708984376,0.0031515848822891712,0.002808036981150508,-0.0005398227367550135
1738773157212617700,11.56161767578125,0.0010639328975230455,0.005014732480049133,-0.000176301269675605
1738773157222609000,11.57160888671875,0.0012828446924686432,0.004086886998265982,0.00007962851668708026
1738773157232599800,11.581599853515625,0.0021110877860337496,0.0033838124945759773,0.0005984122981317341
1738773157242590700,11.5915908203125,-0.0010990865994244814,0.004652009811252356,0.0011760519118979573
1738773157252583000,11.6015830078125,0.0018498316640034318,0.004816326778382063,0.00022290658671408892
1738773157262573800,11.61157373046875,0.0010333064710721374,0.0033601103350520134,-0.000015446334145963192
1738773157272564700,11.621564697265624,0.002526541007682681,0.0038005972746759653,-0.0007307713967747986
1738773157282555600,11.6315556640625,0.0005281048361212015,0.004009122494608164,0.0015281217638403177
1738773157292546800,11.641546875,0.0016849819803610444,0.005148955620825291,-0.00008628641808172688
1738773157302537700,11.651537841796875,0.0016357135027647018,0.0036727653350681067,-0.00022663500567432493
1738773157312528600,11.661528564453125,0.0005270395777188241,0.0031366711482405663,-0.0013084110105410218
