time,seconds_elapsed,z,y,x
1738772211175285800,0.02428564453125,-0.07847147916853428,-0.01045651208460331,0.010011255960067501
1738772211185278000,0.03427783203125,0.0033481413841247557,-0.026729016971588134,0.00023059274383704177
1738772211195268900,0.044268798828125,-0.04366787681281566,-0.02175648925602436,-0.005078122964908834
1738772211205259800,0.054259765625,-0.05794482396841049,-0.03155950586795807,0.003412043783057015
1738772211215250700,0.064250732421875,-0.01411503459215164,-0.02840191861987114,-0.007774358045251574
1738772211225241900,0.074241943359375,-0.047502924931049344,-0.0229921685308218,0.013470038661413128
1738772211235232800,0.084232666015625,-0.036570027506351466,-0.02120703867971897,0.009828889697062549
1738772211245223700,0.0942236328125,-0.023432898035645484,-0.02057224790751934,-0.0036186403050203807
1738772211255215900,0.1042158203125,-0.03458148403763771,-0.03380173183679581,-0.009408259982062735
1738772211265206800,0.114206787109375,-0.01683949111998081,-0.01891220574080944,0.0003517337638302706
1738772211275197700,0.12419775390625,-0.02173603098988533,-0.018213117560744285,-0.0004542716896976344
1738772211285188900,0.13418896484375,-0.04775193125605583,-0.026317513561248777,-0.0030822250235127283
1738772211295179800,0.1441796875,-0.023668460357189176,-0.01987374424934387,-0.00010370582800242118
1738772211305170700,0.154170654296875,-0.03833294552564621,-0.02989887917935848,0.010716085469396784
1738772211315161900,0.164161865234375,-0.04826514147520065,-0.03955985697209835,-0.006415896065934794
1738772211325153800,0.17415380859375,-0.010413841986656189,-0.0227916775226593,-0.011489861162245506
1738772211335144700,0.184144775390625,-0.04755845451056957,-0.021554244682192802,-0.01361001110439538
1738772211345135900,0.194135986328125,-0.030519056904315948,-0.02632043617069721,-0.0002348727683769539
1738772211355126800,0.204126708984375,-0.024681436792016027,-0.022431027516722678,-0.0071633694153919346
1738772211365117700,0.21411767578125,-0.045943420529365536,-0.01957271547615528,-0.025449363841034935
1738772211375108900,0.22410888671875,-0.04208206892609596,-0.023429390904307363,-0.013025461815245215
1738772211385099800,0.234099853515625,-0.0409650475949049,-0.018422376397252083,0.004628163265791954
1738772211395091700,0.244091796875,-0.0462456183463335,-0.021663550275564193,0.01026559262238443
1738772211405083000,0.254082763671875,-0.018276830446720124,-0.024641104781627652,0.00023210313926683737
1738772211415073800,0.26407373046875,-0.034007483541965484,-0.013994623082876205,0.006570546629885211
1738772211425064700,0.274064697265625,-0.030920038920640942,-0.030240239962935445,-0.0072768956677988165
1738772211435055600,0.2840556640625,-0.02026595843732357,-0.026385902622342108,-0.0075195350424561175
1738772211445046800,0.294046875,-0.04522095147371292,-0.02522913380265236,-0.00253961175501463
1738772211455038000,0.304037841796875,-0.021789807003736495,-0.011688684228062629,-0.005633234955376247
1738772211465030000,0.31402978515625,0.006982113972306251,-0.027000819650292395,-0.000042700922343647104
1738772211475020800,0.324020751953125,-0.05859539683163166,-0.02516249830722809,0.015234618914831662
1738772211485011700,0.33401171875,-0.030952187624573704,-0.027958851027488706,-0.008678982159710722
1738772211495002600,0.344002685546875,-0.015659341424703595,-0.02335515662431717,-0.014630501842108788
1738772211504993800,0.353993896484375,-0.05511106184720993,-0.027581249886751175,-0.01789350624302751
1738772211514985000,0.36398486328125,0.012228197932243346,-0.013068740409612655,-0.00009735600231797434
1738772211524976600,0.3739765625,-0.06061141282916069,-0.013857260438799857,0.006089373233530204
1738772211534967800,0.3839677734375,-0.032203648990392686,-0.026249709022045133,0.0029002012538025153
1738772211544958700,0.393958740234375,-0.00018470891714096068,-0.03612169921696186,-0.023681810745818075
1738772211554950000,0.403949951171875,-0.061679918843507764,-0.02325929503440857,0.011059482946433127
1738772211564941000,0.413941162109375,-0.019354688811302184,-0.013806991556286811,0.01267190027886536
1738772211574932000,0.423931884765625,-0.03132745067775249,-0.02487842066884041,0.01666070162861724
1738772211584923000,0.4339228515625,-0.04527648105323315,-0.02109948665201664,0.010560382309387205
1738772211594914800,0.443914794921875,-0.004863806644082069,-0.03383037340939045,-0.0044911408317217134
1738772211604905700,0.45390576171875,-0.040889644271135325,-0.020257190608978272,-0.02394732296434231
1738772211614897000,0.46389697265625,-0.026289456510543822,-0.019583236870169638,0.00775323305883212
1738772211624888000,0.47388818359375,-0.02037058785557747,-0.011575286981463432,0.003567391891684383
1738772211634879000,0.48387890625,-0.05840308912992477,-0.01828033757805824,0.0045751019212824755
1738772211644870000,0.493869873046875,-0.02073357594907284,-0.022573650857806205,-0.005621477160567883
1738772211654861800,0.50386181640625,-0.018802315625548363,-0.030937574577331543,-0.01402694189181202
1738772211664852700,0.513852783203125,-0.04820084406733512,-0.0265168355256319,-0.00503117055913317
1738772211674844000,0.523843994140625,-0.027303601989150047,-0.020170681369304656,-0.0027470508104830513
1738772211684835000,0.5338349609375,-0.044589667832851405,-0.016489362508058547,-0.013275873504404444
1738772211694826000,0.543825927734375,-0.03007014409303665,-0.02577157011628151,-0.018171517183521065
1738772211704817000,0.55381689453125,-0.03575228138267994,-0.0269745161652565,0.0058184496209491045
1738772211714807800,0.563807861328125,-0.06193710847496986,-0.01949438954293728,0.004668262380739907
1738772211724799700,0.5737998046875,-0.008259878823161124,-0.017797522497177122,-0.011362203636497724
1738772211734791000,0.583791015625,-0.015358312651515006,-0.030890228304266926,-0.015655699579336213
1738772211744781800,0.59378173828125,-0.03391571360528469,-0.03387888872623444,-0.022649488006415777
1738772211754773000,0.60377294921875,-0.025846973440051078,-0.02189502094388008,-0.003637244540790561
1738772211764764000,0.613763916015625,-0.0395838223695755,-0.02821487161517143,0.003389869625511346
1738772211774754800,0.6237548828125,-0.03617956688404083,-0.024130817171931267,0.023665889374190008
1738772211784746000,0.63374609375,-0.038191491228342055,-0.02958908257782459,0.003974566186778247
1738772211794738000,0.643738037109375,0.002681201907992363,-0.01674538309574127,-0.0027052460789273028
1738772211804728800,0.653728759765625,-0.035302199527621266,-0.019915245303511617,-0.008461142724525415
1738772211814720000,0.663719970703125,-0.041437925803661346,-0.01946633249223232,0.002466289648832753
1738772211824711000,0.6737109375,-0.03926642698347568,-0.02042787100076675,-0.005434173285897122
1738772211834701800,0.683701904296875,-0.035081834775209424,-0.03568506136536598,-0.015260102699248818
1738772211844693000,0.69369287109375,-0.027453824114799498,-0.024757424637675284,0.005541233264899347
1738772211854684000,0.703683837890625,-0.028176293170452116,-0.020448329266905783,0.0002431462647335138
1738772211864675800,0.71367578125,-0.04177168780267238,-0.02421381928026676,-0.004193467351177241
1738772211874667000,0.7236669921875,-0.015310381856560706,-0.020593875217437742,0.0024873073206865227
1738772211884658000,0.733657958984375,-0.04179740676581859,-0.025980244430899618,-0.0015392459233000409
1738772211894648800,0.74364892578125,-0.03326397169828415,-0.01610883875787258,-0.012830794334737583
1738772211904639700,0.7536396484375,-0.024266426250338553,-0.02346387769579887,0.0050739011642290275
1738772211914631000,0.763630859375,-0.03145955262482166,-0.027491233515739438,0.014600111270422348
1738772211924622800,0.773622802734375,-0.031045126605033873,-0.028199089524149894,0.002489353147300426
1738772211934614000,0.783614013671875,-0.025790274816751477,-0.031661212676763535,-0.0054916790517279875
1738772211944605000,0.79360498046875,-0.032817396974563595,-0.027029461222887036,-0.001022861932957312
1738772211954595800,0.803595947265625,-0.0455704955637455,-0.021751813080906866,-0.0015707244820194319
1738772211964586800,0.813586669921875,-0.034653380230069156,-0.010222703328728676,-0.010359721196221652
1738772211974578000,0.823577880859375,-0.02608604289293289,-0.018946692532300947,-0.01348050753978896
1738772211984568800,0.83356884765625,-0.020728315252065657,-0.02759060223698616,-0.005855640967824729
1738772211994561000,0.84356103515625,-0.02458031450510025,-0.020453005442023275,-0.0022815727401815818
1738772212004552000,0.853552001953125,-0.047187867632508276,-0.019690204375982283,-0.0016135018945322372
1738772212014542800,0.86354296875,-0.037329321441054344,-0.019220833298563954,0.009839400816278066
1738772212024533800,0.87353369140625,-0.029119711500406265,-0.03281505888700485,-0.0007679430320393294
1738772212034525000,0.88352490234375,-0.04457914643883705,-0.011062661284208297,-0.004054628561000573
1738772212044515800,0.893515869140625,-0.030493337941169738,-0.026947628158330916,-0.011975758682779268
1738772212054507800,0.9035078125,-0.03709434364140034,-0.03081833211183548,-0.013638900413806549
1738772212064499000,0.9134990234375,-0.0374707757383585,-0.02384440144598484,-0.017995493896334664
1738772212074489300,0.9234892578125,-0.030298107630014417,-0.014554595053195953,0.002814017382758902
1738772212084480500,0.93348046875,-0.03479366548359394,-0.00886135184764862,-0.00929257145532174
1738772212094471400,0.943471435546875,-0.027139351338148116,-0.027293665117025374,-0.0018440078734012785
1738772212104462300,0.95346240234375,-0.04074059118926525,-0.03359656465351581,0.005194735081901308
1738772212114453500,0.96345361328125,-0.0507376690685749,-0.02599894913136959,-0.00485549775675172
1738772212124445400,0.973445556640625,-0.022756606209278104,-0.0343769013762474,-0.004825925744039705
1738772212134436400,0.983436279296875,-0.03370294763743877,-0.021930092257261277,0.0007550687090901192
1738772212144427500,0.993427490234375,-0.028532851523160933,-0.01272387249469757,0.009657182967034168
1738772212154418400,1.00341845703125,-0.028855507606267927,-0.016436755537986753,-0.012940689016575925
1738772212164409300,1.013409423828125,-0.02915770542323589,-0.030350130078196525,-0.009213771739712683
1738772212174400500,1.023400390625,-0.026586393630504607,-0.03397358127236366,-0.010293586882652016
1738772212184391400,1.033391357421875,-0.03999941743314266,-0.01518295608460903,0.0009102090384520124
1738772212194383400,1.04338330078125,-0.03326923239529132,-0.03044190001487732,0.001954327246925095
1738772212204374500,1.05337451171875,-0.028669629645347593,-0.01513327172398567,-0.0036264697017380967
1738772212214365400,1.063365478515625,-0.04701601819694042,-0.01924246060848236,-0.0030856179904192684
1738772212224356400,1.0733564453125,-0.03415361401438713,-0.032253333351016045,-0.009904983715643174
1738772212234347500,1.083347412109375,-0.03293313230872154,-0.03467500753998756,-0.014993712556245736
1738772212244338400,1.09333837890625,-0.03665887483358383,-0.03738660458624363,0.0034853236483992074
1738772212254330400,1.103330322265625,-0.021555413725972174,-0.03064005293548107,0.0069075862897268955
1738772212264321500,1.113321533203125,-0.03486205454468727,-0.01853226651251316,-0.013357848132855723
1738772212274312400,1.1233125,-0.03767126674652099,-0.015130933636426924,-0.013967875498201464
1738772212284303400,1.133303466796875,-0.02420388240814209,-0.02979483428299427,-0.007655603061878354
1738772212294294300,1.143294189453125,-0.03899579334855079,-0.025482231780886648,-0.007513919294066727
1738772212304285400,1.153285400390625,-0.03348667453825473,-0.021110592567920684,-0.011995678092801245
1738772212314276400,1.1632763671875,-0.020869185027480124,-0.014582067582011223,-0.002291502762440359
1738772212324268500,1.1732685546875,-0.03407002738416195,-0.02486906831860542,-0.0030786642348917667
1738772212334259500,1.183259521484375,-0.037567806372046465,-0.027197803527116773,-0.011827843820292037
1738772212344250400,1.19325048828125,-0.03664659987390041,-0.020042086553573608,0.00432091138943797
1738772212354241300,1.2032412109375,-0.030632454150915145,-0.014838088169693946,0.014684783604391849
1738772212364232400,1.213232421875,-0.028511808735132215,-0.02713876681625843,0.001743642496666871
1738772212374223400,1.223223388671875,-0.034708325287699696,-0.027067455145716665,-0.01219216078777099
1738772212384215300,1.23321533203125,-0.02870236287117004,-0.0197591779589653,-0.009192139863217015
1738772212394206500,1.24320654296875,-0.03364624901413917,-0.033219548034667964,-0.00037173080566572025
1738772212404197400,1.253197265625,-0.029154782813787458,-0.021401099947094916,-0.0021345403687504584
1738772212414188300,1.263188232421875,-0.022566636595129964,-0.018413024047017095,-0.004501970469701336
1738772212424179500,1.273179443359375,-0.040938744109869,-0.017853052076697348,0.002226887977455044
1738772212434170400,1.28317041015625,-0.043936172360181804,-0.015154899033904075,0.003307827640045434
1738772212444161500,1.29316162109375,-0.03064005293548107,-0.02665069103837013,-0.01913156470457907
1738772212454153500,1.303153564453125,-0.032144027757644654,-0.0124263508528471,0.0008831349435029551
1738772212464144400,1.313144287109375,-0.023144728744029997,-0.03804010005891323,0.004011554320965661
1738772212474135300,1.32313525390625,-0.04905424602627754,-0.020355974808335304,-0.005982669447554508
1738772212484126500,1.33312646484375,-0.03290273717045784,-0.026330957564711568,-0.004732571205048589
1738772212494117400,1.343117431640625,-0.022055179941654204,-0.029858547168970108,0.005600902446708642
1738772212504108500,1.353108642578125,-0.03552899402081966,-0.03733341309428215,-0.016864418923616176
1738772212514100500,1.3631005859375,-0.03259644770026207,-0.029807109242677685,0.0034409091179375536
1738772212524091400,1.37309130859375,-0.0316933613806963,-0.028616438153386114,-0.004839330931595759
1738772212534082300,1.383082275390625,-0.03187982386350632,-0.024981296521425247,-0.004713927011727355
1738772212544073500,1.393073486328125,-0.03428454691767693,-0.014644026902318,-0.0025799140826507938
1738772212554064600,1.403064697265625,-0.034708909809589385,-0.02006020673215389,-0.0061849939364881715
1738772212564055600,1.4130556640625,-0.029422493839263913,-0.037300095346570014,0.002482797825639136
1738772212574046500,1.42304638671875,-0.033521161329746245,-0.02107026055753231,0.005807064002187689
1738772212584038400,1.433038330078125,-0.031124037060141562,-0.012694061878323554,-0.0015037693261867387
1738772212594029300,1.443029296875,-0.026497546303272244,-0.019115034836530684,0.004799598284473177
1738772212604020500,1.4530205078125,-0.021880407896637914,-0.030910102048516273,-0.005766575586528051
1738772212614011600,1.46301171875,-0.03582943827211857,-0.013963643422722816,-0.012341549513069911
1738772212624002600,1.47300244140625,-0.03101999216377735,-0.02206803942322731,-0.005392060310376109
1738772212633993500,1.482993408203125,-0.030237317353487014,-0.013429974937438964,0.001240461622836301
1738772212643985400,1.4929853515625,-0.042965866023302074,-0.029280455020070074,0.0006859843866084702
1738772212653976300,1.502976318359375,-0.029634090763330456,-0.022114801174402236,-0.0063075757116079325
1738772212663967500,1.512967529296875,-0.040135611033439635,-0.040189387047290796,-0.0031980037401546724
1738772212673958700,1.522958740234375,-0.02754384048581123,-0.028393735313415526,-0.003186266494943993
1738772212683949600,1.532949462890625,-0.0362462023794651,-0.03091068657040596,-0.001993097487889463
1738772212693940500,1.5429404296875,-0.02834872712790966,-0.028626959547400473,0.008759178106317994
1738772212703931600,1.552931640625,-0.028626375025510787,-0.023864275190234183,-0.0009918811311596073
1738772212713923300,1.56292333984375,-0.03656359776556491,-0.03777180451154709,0.011775929828319931
1738772212723914500,1.57291455078125,-0.03385550785064697,-0.02731470790505409,0.004403608678741147
1738772212733905700,1.58290576171875,-0.045586277654767034,-0.025898995888233182,-0.010129019996174611
1738772212743896600,1.592896484375,-0.0314841025441885,-0.016513912427425382,-0.016939653284027006
1738772212753887500,1.602887451171875,-0.026417466804385184,-0.01514203955233097,0.008368425223062513
1738772212763878700,1.612878662109375,-0.03921148192584514,-0.030617256581783294,-0.0007866842651274054
1738772212773870600,1.62287060546875,-0.032035306686162945,-0.02821487161517143,-0.00891430131101515
1738772212783861500,1.632861572265625,-0.03053542351722717,-0.021785130828619003,0.003772330746101215
1738772212793852700,1.642852783203125,-0.019737550649046896,-0.024655717828869817,-0.00029923182503553106
1738772212803843600,1.652843505859375,-0.037356209447979925,-0.016770517536997796,-0.0016549515747057738
1738772212813834500,1.66283447265625,-0.022253917384147642,-0.02304185289144516,-0.008526988202083157
1738772212823825400,1.672825439453125,-0.0379804788261652,-0.03349953401982784,-0.001398093020095257
1738772212833817600,1.682817626953125,-0.04788870937824249,-0.015056699356436729,-0.007651826502481708
1738772212843808500,1.69280859375,-0.013922142368555069,-0.023733926808834075,-0.005113840448972768
1738772212853799700,1.702799560546875,-0.026202947270870205,-0.022974048352241514,-0.0018570762758841736
1738772212863790600,1.71279052734375,-0.02875438531935215,-0.012191373053193092,0.014711822308367118
1738772212873781500,1.722781494140625,-0.021098902130126954,-0.022693477845191955,0.0017511316833784803
1738772212883772400,1.7327724609375,-0.031387656432390214,-0.015553542962670325,-0.011179611327918245
1738772212893764600,1.7427646484375,-0.020056115078926084,-0.03331307153701782,0.001858898340212181
1738772212903755500,1.752755615234375,-0.028626375025510787,-0.02308919916450977,-0.01325918608944048
1738772212913746400,1.762746337890625,-0.036115853998064995,-0.03145955262482166,-0.0008040989075205288
1738772212923737600,1.772737548828125,-0.03490764725208282,-0.025787352207303046,-0.016324738539365353
1738772212933728500,1.782728515625,-0.04327683166861534,-0.022806875091791152,-0.013989271054323762
1738772212943719400,1.792719482421875,-0.04914484691917896,-0.029951486149430273,-0.004122558681078954
1738772212953710600,1.802710693359375,-0.028973581027984616,-0.025726561930775643,-0.004107510667352471
1738772212963702500,1.81270263671875,-0.050962709996104236,-0.01361526837646961,0.01517646583667374
1738772212973693400,1.822693359375,-0.041540801656246185,-0.01869651716351509,-0.006513603694702033
1738772212983684600,1.8326845703125,-0.03791325880885124,-0.028165771776437757,0.0024030539701809174
1738772212993675500,1.842675537109375,-0.033906361255049706,-0.02426175007522106,0.0020769455546629616
1738772213003666400,1.85266650390625,-0.04284779260158539,-0.021612112349271774,0.0006238880689837969
1738772213013657600,1.86265771484375,-0.032467268362641334,-0.014493804776668548,0.006510894572740653
1738772213023649500,1.8726494140625,-0.033633974054455756,-0.03158814744055271,-0.010080337999260518
1738772213033640400,1.882640380859375,-0.032256255960464476,-0.020551789641380307,-0.002863053289410891
1738772213043631600,1.892631591796875,-0.030920038920640942,-0.01769698473215103,-0.0073789358367444945
1738772213053622500,1.90262255859375,-0.04800327566862106,-0.02036123550534248,-0.005298697779874783
1738772213063613400,1.912613525390625,-0.03016074498593807,-0.021300562182068824,0.0021374584116216283
1738772213073604600,1.9226044921875,-0.04408931709527969,-0.01844283466339111,-0.003220272654178552
1738772213083596800,1.9325966796875,-0.02807809349298477,-0.03535246841013431,-0.00019952860200428402
1738772213093587700,1.942587646484375,-0.026077275064587593,-0.013420622587203978,-0.006272554630576632
1738772213103578600,1.95257861328125,-0.044187516772747036,-0.021945289826393127,-0.0020178460533672475
1738772213113569500,1.962569580078125,-0.018583119916915893,-0.016128712502121924,-0.0056799841484637
1738772213123560700,1.972560791015625,-0.046263738524913785,-0.023314240092039105,-0.000753101655934006
1738772213133551600,1.982551513671875,-0.04042144223749637,-0.0270616099268198,-0.002479420841753017
1738772213143542500,1.99254248046875,-0.02929974424242973,-0.022929624688625333,-0.007439673597633372
1738772213153534700,2.00253466796875,-0.043345805251598354,-0.02818915265202522,-0.010678002498310524
1738772213163525600,2.012525634765625,-0.037433366337418554,-0.022118308305740356,0.005328700192493852
1738772213173516500,2.0225166015625,-0.033411855736374854,-0.021048633247613906,-0.0022619855486555023
1738772213183507700,2.0325078125,-0.04184241495132446,-0.03715045774281025,-0.0069733495688939
1738772213193498600,2.04249853515625,-0.02743979558944702,-0.034950317350029944,-0.00432774070573505
1738772213203489500,2.052489501953125,-0.0414922863394022,-0.023892916762828825,-0.009509401676931883
1738772213213481700,2.062481689453125,-0.038194413837790486,-0.029285715717077252,-0.0026558802370680494
1738772213223472600,2.07247265625,-0.03712532330155372,-0.014497896429896354,-0.009820986093464308
1738772213233463600,2.082463623046875,-0.042945407757163045,-0.008679565539956092,-0.011045941903203493
1738772213243454700,2.092454833984375,-0.019969021317362785,-0.023290274694561956,0.0006309948048496153
1738772213253445600,2.102445556640625,-0.03249707897901535,-0.02363864974081516,-0.007250760004477342
1738772213263436500,2.1124365234375,-0.046996144452691076,-0.02006546742916107,0.0030147241616970857
1738772213273428700,2.1224287109375,-0.024238953721523283,-0.034895372292399404,-0.006335171538009308
1738772213283419600,2.132419677734375,-0.040513796696066855,-0.027454408636689184,0.004232407697144663
1738772213293410600,2.14241064453125,-0.023028993409872054,-0.023687749579548834,-0.00232653183498187
1738772213303401700,2.152401611328125,-0.0279722950309515,-0.02023965495228767,-0.003865912472311174
1738772213313392600,2.162392578125,-0.036296471261978144,-0.04349836546480655,0.010177133454219438
1738772213323383600,2.172383544921875,-0.023873043018579482,-0.03257891204357147,-0.006424823724484304
1738772213333375700,2.182375732421875,-0.03733516665995121,-0.02674830619394779,-0.01799251534631476
1738772213343366700,2.19236669921875,-0.01903495533764362,-0.020665771409869194,-0.00997485348941409
1738772213353357600,2.202357666015625,-0.033817513927817344,-0.013520575830340385,0.001516333121882053
1738772213363348500,2.212348388671875,-0.03664309274256229,-0.016085457882285117,0.0012382673824613449
1738772213373339600,2.222339599609375,-0.0357756622582674,-0.03176116591989994,-0.010873627818399107
1738772213383330600,2.23233056640625,-0.03249123376011848,-0.022325229054689404,-0.006491055077820783
1738772213393321500,2.242321533203125,-0.02234042662382126,-0.029778467670083044,-0.008443197217525449
1738772213403313700,2.252313720703125,-0.04185702799856662,-0.026411621585488317,-0.010634884875791612
1738772213413304600,2.2623046875,-0.025251345634460447,-0.03388941012024879,-0.000774493787123356
1738772213423295500,2.27229541015625,-0.0361982715845108,-0.021740707165002822,-0.0008827787504764273
1738772213433286700,2.28228662109375,-0.03770283092856407,-0.025322072783112524,-0.00271460870396113
1738772213443277600,2.292277587890625,-0.041019992652535434,-0.030530162820219992,0.0022939789889613164
1738772213453268500,2.3022685546875,-0.02712298472523689,-0.021230419555306433,-0.010196462634130148
1738772213463260700,2.3122607421875,-0.03237023772895336,-0.021667641928792,0.006000520198076264
1738772213473251600,2.32225146484375,-0.03250760037302971,-0.03305471286177635,0.007274473098560701
1738772213483242500,2.332242431640625,-0.0436316364556551,-0.02581190212666988,-0.0004077748000039719
1738772213493233700,2.342233642578125,-0.054610126587748525,-0.023503040662407874,-0.004231381358904764
1738772213503224600,2.352224609375,-0.020237316864728926,-0.016718495088815687,-0.01216210928444634
1738772213513215500,2.362215576171875,-0.03320551950931549,-0.017973463585972786,0.007427826754568377
1738772213523206400,2.372206298828125,-0.0312619842261076,-0.03577916938960552,0.0010527250649698544
1738772213533198600,2.382198486328125,-0.019838672935962677,-0.02144844622015953,-0.006063505856622941
1738772213543189500,2.392189453125,-0.024038462713360784,-0.035353052932024,0.00007473546184482984
1738772213553180700,2.4021806640625,-0.028382044875621792,-0.028763737669587133,0.013389787915878696
1738772213563171600,2.412171630859375,-0.029155951857566833,-0.019007482808828354,0.004719241366017377
1738772213573162500,2.42216259765625,-0.034064182165265085,-0.024129648128151892,0.004693468745588325
1738772213583153400,2.4321533203125,-0.03253331933617592,-0.02761106050312519,0.005536955523648066
1738772213593145600,2.4421455078125,-0.026019991919398307,-0.020521394503116606,-0.011656594889634287
1738772213603136500,2.452136474609375,-0.04041384345293045,-0.01734510255455971,-0.0044019293199526145
1738772213613127700,2.462127685546875,-0.03342763782739639,-0.0157943659812212,0.00023254952219431288
1738772213623118600,2.47211865234375,-0.03946516442596912,-0.02261690547764301,0.005410705645341659
1738772213633109500,2.482109619140625,-0.039327801781892775,-0.02379997778236866,-0.0016234593162545933
1738772213643100400,2.492100341796875,-0.019089315873384475,-0.022497078490257262,-0.0034699799487949348
1738772213653091600,2.502091552734375,-0.031177813073992727,-0.022833178576827047,-0.004172752215067157
1738772213663083500,2.51208349609375,-0.028180384823679922,-0.019846856242418286,-0.0006114041883905884
1738772213673074400,2.522074462890625,-0.0350479325056076,-0.024952654948830602,-0.01464188517758157
1738772213683065600,2.532065673828125,-0.040158991909027095,-0.03674655311703682,-0.013181201507872902
1738772213693056500,2.542056396484375,-0.027424013498425482,-0.028984102421998975,0.000634605825820472
1738772213703047400,2.55204736328125,-0.029167642295360563,-0.03323474560379982,0.0021020035057503265
1738772213713038600,2.56203857421875,-0.021819033098220825,-0.025921207720041275,-0.0033087592218071222
1738772213723030500,2.572030517578125,-0.026897943797707557,-0.015606734454631805,0.002805806676839711
1738772213733021400,2.582021484375,-0.03253507290184498,-0.010276479342579841,-0.020434140911349093
1738772213743012600,2.5920126953125,-0.026981530427932738,-0.024064181676506993,-0.0248845353157958
1738772213753003500,2.60200341796875,-0.03982522991001606,-0.027384850531816482,-0.014855411480541807
1738772213762994400,2.611994384765625,-0.027977555727958677,-0.02023380973339081,0.0002851736169308424
1738772213772985600,2.621985595703125,-0.0346995574593544,-0.02563479199409485,-0.00004665786154218949
1738772213782977500,2.6319775390625,-0.05147182856202125,-0.018586627048254013,0.015002771503891562
1738772213792968400,2.641968505859375,-0.03425648986697197,-0.026076690542697904,-0.001625812245189445
1738772213802959600,2.651959716796875,-0.03680325174033642,-0.028018472260236738,-0.010797937941906274
1738772213812950500,2.661950439453125,-0.02397299626171589,-0.03410743678510189,-0.0025844886514241805
1738772213822941400,2.67194140625,-0.02671791105568409,-0.020131518402695656,0.004312778315332252
1738772213832932400,2.681932373046875,-0.040321488994359965,-0.025983167040348053,-0.009265578417119103
1738772213842923500,2.691923583984375,-0.03658931672871112,-0.02372808158993721,-0.0010733911103743593
1738772213852915500,2.70191552734375,-0.02584288178682327,-0.027287819898128507,-0.005556833834474673
1738772213862906600,2.71190673828125,-0.030894319957494733,-0.029724107134342193,-0.010639951493265108
1738772213872897500,2.7218974609375,-0.04132745116651058,-0.025881460231542586,-0.00026445962246507404
1738772213882888400,2.731888427734375,-0.04085749556720256,-0.025308044257760048,-0.010726286061358404
1738772213892879400,2.74187939453125,-0.04280395345985889,-0.028299627289175986,0.0006035941996262408
1738772213902870500,2.75187060546875,-0.04158522531986236,-0.02802548652291298,-0.007476530442724469
1738772213912861700,2.76186181640625,-0.03855331027805805,-0.0189443544447422,-0.012907497991382843
1738772213922853600,2.771853515625,-0.03627192134261131,-0.026170214045047758,-0.001803920174896484
1738772213932844500,2.781844482421875,-0.035839375144243235,-0.02076397108733654,0.003189177687949268
1738772213942835500,2.79183544921875,-0.022079729861021042,-0.021054478466510772,-0.011002756923669949
1738772213952826600,2.80182666015625,-0.020864508852362632,-0.02451835518479347,-0.00044546390380128284
1738772213962817800,2.81181787109375,-0.039732875451445576,-0.03183306211233139,-0.009112238460843218
1738772213972808700,2.82180859375,-0.04690437451601028,-0.028106150543689725,-0.003393703267123783
1738772213982800400,2.83180029296875,-0.03071545625925064,-0.03143091105222702,-0.00651886210842058
1738772213992791600,2.84179150390625,-0.02261515191197395,-0.022176175972819328,-0.006461104039195925
1738772214002782500,2.851782470703125,-0.036735447201132775,-0.011189502534270286,-0.006760117810167139
1738772214012773600,2.861773681640625,-0.03584054418802261,-0.020014614024758338,0.005652529885957483
1738772214022764800,2.871764892578125,-0.03324585151970386,-0.032494740891456604,-0.0053096598485950375
1738772214032755700,2.881755615234375,-0.042914428097009655,-0.025528993532061575,0.014212147424230352
1738772214042746600,2.89174658203125,-0.030668109986186024,-0.032384266254305835,0.009861742795538156
1738772214052738600,2.901738525390625,-0.04635317037403583,-0.029572715964913367,0.006009190986654721
1738772214062729500,2.9117294921875,-0.03540449085831642,-0.012243980023264885,-0.005089872768206987
1738772214072720600,2.921720703125,-0.019314941322803498,-0.02759878554344177,0.0038072285295464095
1738772214082711800,2.9317119140625,-0.018655016109347344,-0.02318155362308025,-0.002294224442489212
1738772214092702700,2.94170263671875,-0.031605098575353624,-0.027302432945370672,-0.01708082217025221
1738772214102693600,2.951693603515625,-0.04448679198026657,-0.0317757789671421,-0.0034013340177305507
1738772214112685600,2.961685546875,-0.020439561438560485,-0.019602526092529295,-0.003342471978452522
1738772214122676700,2.9716767578125,-0.03512392035126686,-0.025416180807352064,-0.010027269804885145
1738772214132667600,2.981667724609375,-0.04095686428844929,-0.017189035210013387,0.019343448181368874
1738772214142658600,2.991658447265625,-0.02821837874650955,-0.01601473073363304,0.00001790440780459903
1738772214152649700,3.001649658203125,-0.04025952967405319,-0.011318681871891022,-0.005856583966029574
1738772214162640600,3.011640625,-0.032764205482602116,-0.015823592075705526,-0.0026187528222741093
1738772214172631600,3.021631591796875,-0.024099837511777876,-0.030171850901842115,-0.01628115969254286
1738772214182623700,3.031623779296875,-0.035761049211025235,-0.024945640686154364,0.004127387836534762
1738772214192614700,3.04161474609375,-0.03161503544747829,-0.02968319060206413,0.00632726679276675
1738772214202605600,3.05160546875,-0.031048633736371994,-0.02021802764236927,0.00552080924808979
1738772214212596700,3.0615966796875,-0.037142858958244325,-0.025802549776434897,0.00024394998233183285
1738772214222587600,3.071587646484375,-0.03744330320954323,-0.02385609188377857,-0.002314647317654453
1738772214232578600,3.08157861328125,-0.03828676829636097,-0.03170096016526222,-0.0033690894156752616
1738772214242570800,3.09157080078125,-0.03157236534953117,-0.02763794851005077,0.00016738332300446926
1738772214252561700,3.101561767578125,-0.022900398594141006,-0.024337737920880315,-0.008661511576746125
1738772214262552600,3.111552490234375,-0.017111293798685073,-0.023833295530080793,-0.016585915934422518
1738772214272543700,3.121543701171875,-0.02414893735051155,-0.019638766449689864,0.005606270458281506
1738772214282534700,3.13153466796875,-0.030057284611463547,-0.02060088948011398,0.007151649294845993
1738772214292525600,3.141525634765625,-0.0463806429028511,-0.030611411362886427,-0.0017088097869476769
1738772214302516700,3.151516845703125,-0.028077508971095084,-0.017348609685897826,-0.0022892434483394023
1738772214312508700,3.1615087890625,-0.03892915785312653,-0.01606090796291828,-0.002253188037557993
1738772214322499600,3.17149951171875,-0.029921675533056257,-0.022529227194190024,-0.0012075400257017463
1738772214332490800,3.18149072265625,-0.04049275390803814,-0.03097147684693336,-0.0036250837455387226
1738772214342481700,3.191481689453125,-0.043912206962704654,-0.03189560595452785,0.002531343966879649
1738772214352472600,3.20147265625,-0.026651275560259816,-0.018489596414566038,-0.00863051707521663
1738772214362463500,3.21146337890625,-0.0197679457873106,-0.017142273458838463,-0.006461978538741823
1738772214372455700,3.22145556640625,-0.023766075512766837,-0.02392623451054096,-0.007460654736869037
1738772214382446600,3.231446533203125,-0.023023732712864873,-0.020178280153870583,-0.008358467801340157
1738772214392437800,3.241437744140625,-0.03919336174726486,-0.028996377381682394,0.006888995753688504
1738772214402428700,3.2514287109375,-0.037842531660199165,-0.02690729614794254,0.006934135228290688
1738772214412419600,3.261419677734375,-0.03589198211431503,-0.030803719064593314,-0.006316775081504602
1738772214422410500,3.271410400390625,-0.02469312722980976,-0.028829788643121718,-0.00807694630457554
1738772214432401700,3.281401611328125,-0.023490765702724455,-0.019558686950802803,-0.013181884211173747
1738772214442393600,3.2913935546875,-0.03545417521893978,-0.020166005194187164,0.0032500901204184627
1738772214452384500,3.301384521484375,-0.040082419541478155,-0.024517186141014096,0.016612873581651363
1738772214462375700,3.311375732421875,-0.031247371178865432,-0.03410159156620502,0.003839959472080227
1738772214472366600,3.32136669921875,-0.026288287466764447,-0.01557166314125061,0.0016274253886076622
1738772214482357500,3.331357421875,-0.03451017236709594,-0.02560673494338989,-0.007823749003285774
1738772214492348700,3.3413486328125,-0.04005027083754539,-0.029791911673545834,-0.001550467145279981
1738772214502339600,3.351339599609375,-0.03742109137773514,-0.03256079186499119,-0.013348680728999897
1738772214512331500,3.36133154296875,-0.0386380659520626,-0.027898645272850988,-0.009028312762256246
1738772214522322700,3.37132275390625,-0.024666823744773865,-0.027064532536268233,-0.0006162984175723977
1738772214532313600,3.381313720703125,-0.03169862207770347,-0.021828969970345495,-0.005393188254960114
1738772214542304500,3.391304443359375,-0.029767946276068685,-0.01777063449025154,0.0015949924152402672
1738772214552295700,3.401295654296875,-0.022905659291148184,-0.043185061731934545,0.004320224119559861
1738772214562286600,3.41128662109375,-0.038650340911746024,-0.022196634238958356,-0.014044538055651356
1738772214572277500,3.421277587890625,-0.02652268074452877,-0.006793313401937485,-0.008605374642449896
1738772214582269700,3.431269775390625,-0.04525485374331474,-0.022771803778409958,-0.003365833446086617
1738772214592260600,3.441260498046875,-0.03405132268369197,-0.020355390286445618,-0.004445831252116477
1738772214602251500,3.45125146484375,-0.01309504389464855,-0.02215864031612873,-0.007712599654344376
1738772214612242700,3.46124267578125,-0.048825697967410084,-0.024292729735374448,-0.007578297758678672
1738772214622233600,3.471233642578125,-0.02683598447740078,-0.026528525963425635,-0.00043554187305271623
1738772214632224500,3.481224609375,-0.029651041898131367,-0.02401741992533207,0.0022955441833182703
1738772214642216700,3.491216796875,-0.037003742748498915,-0.02055120511949062,-0.008590725062589627
1738772214652207600,3.50120751953125,-0.02638882523179054,-0.027573651102185247,0.010687687067041405
1738772214662198500,3.511198486328125,-0.036066169637441636,-0.02418985388278961,-0.012884942524635698
1738772214672189400,3.521189453125,-0.019337153154611587,-0.0204126734316349,-0.008494847489660605
1738772214682180600,3.5311806640625,-0.03353577437698841,-0.01953472155332565,-0.016505092083441558
1738772214692171500,3.541171630859375,-0.04533317967653274,-0.01986205381155014,0.00581830691540963
1738772214702162400,3.551162353515625,-0.02095394070148468,-0.038702363359928126,0.0020485711268382147
1738772214712154600,3.561154541015625,-0.04594692766070366,-0.0231359609156847,0.001664904429850867
1738772214722145500,3.5711455078125,-0.02990530892014503,-0.028557985964417457,-0.013292876013199565
1738772214732136400,3.581136474609375,-0.02020750624835491,-0.014758008670806884,-0.00635032800794579
1738772214742127600,3.591127685546875,-0.039866730964183805,-0.027860066828131674,0.0019587328523397443
1738772214752118500,3.601118408203125,-0.030319150418043134,-0.024384499672055242,0.007805680198699701
1738772214762109400,3.611109375,-0.024349428358674048,-0.0251139829903841,-0.010131024723593144
1738772214772101600,3.6211015625,-0.037513445836305614,-0.018982932889461516,0.0063503782402956855
1738772214782092500,3.631092529296875,-0.029590251621603964,-0.02840191861987114,0.002682769385637948
1738772214792083500,3.64108349609375,-0.025828268739581106,-0.02588204475343227,0.0019637572289735545
1738772214802074600,3.65107470703125,-0.022205402067303655,-0.028912206229567528,0.0014799557674035895
1738772214812065500,3.6610654296875,-0.022789339435100555,-0.021596914780139923,-0.003770402508851839
1738772214822056400,3.671056396484375,-0.019516016852855683,-0.013194997137784957,-0.000823816246498609
1738772214832047600,3.681047607421875,-0.02138824046552181,-0.02372983515560627,-0.015716673660598462
1738772214842039600,3.69103955078125,-0.027846038302779198,-0.028041268613934515,-0.011064535864174831
1738772214852030500,3.701030517578125,-0.026264906591176983,-0.02063362270593643,-0.013826092407334362
1738772214862021600,3.711021728515625,-0.025815993779897687,-0.022727964636683463,-0.013411215438041836
1738772214872012500,3.721012451171875,-0.041000703430175776,-0.034466333225369454,0.0009573030081228353
1738772214882003500,3.73100341796875,-0.03418751628398895,-0.01717500668466091,-0.008539899057650473
1738772214891994400,3.740994384765625,-0.029409049835801122,-0.01596679993867874,-0.009400149740843335
1738772214901985500,3.750985595703125,-0.03526069847345352,-0.02642331202328205,-0.014876330970984416
1738772214911977500,3.7609775390625,-0.03454115202724933,-0.022649054181575774,-0.01530004426728119
1738772214921968600,3.77096875,-0.03540332181453704,-0.01939852795302868,-0.0030577047868981023
1738772214931959600,3.78095947265625,-0.030410335832834243,-0.030087095227837563,0.0012276272574381437
1738772214941950500,3.790950439453125,-0.023716391152143478,-0.03482932131886482,-0.005184268486814108
1738772214951941400,3.80094140625,-0.03879880947172642,-0.003142389678955078,-0.0009655285554181318
1738772214961932500,3.8109326171875,-0.02415069091618061,-0.01748831041753292,0.006882810324785532
1738772214971924500,3.820924560546875,-0.040157238343358034,-0.025275311031937597,-0.008236776508786715
1738772214981915400,3.830915283203125,-0.0391261417299509,-0.02405775193572044,-0.008764683115208755
1738772214991906600,3.840906494140625,-0.029407296270132062,-0.025546529188752172,0.0031218366563378367
1738772215001897500,3.8508974609375,-0.0511994413614273,-0.021121113961935042,-0.017309683039662193
1738772215011888400,3.860888427734375,-0.04072364005446434,-0.02172083342075348,-0.008741672132379608
1738772215021879600,3.870879638671875,-0.02875555436313152,-0.02052080998122692,0.0060624007449252525
1738772215031870700,3.88087060546875,-0.0429910004645586,-0.01346504625082016,-0.010799071594711858
1738772215041862400,3.8908623046875,-0.03598141396343708,-0.020919453909993172,-0.005834132388915168
1738772215051853600,3.900853515625,-0.022541502153873443,-0.028967151287198064,0.00048422843654407185
1738772215061844500,3.910844482421875,-0.036925416815280915,-0.034033787027001376,-0.0003670957297435961
1738772215071835400,3.92083544921875,-0.03251110750436783,-0.020504443368315695,-0.003147606993478257
1738772215081826800,3.930826904296875,-0.04238602030873299,-0.022151041531562804,-0.007168788800959009
1738772215091817700,3.940817626953125,-0.04499824863374233,-0.03239654121398926,-0.0011229498901229817
1738772215103058000,3.952057861328125,-0.019267010527849196,-0.030443653580546376,0.002149419419118203
1738772215113049900,3.9620498046875,-0.045137949365377426,-0.015797873112559317,0.0028709785842511337
1738772215123041000,3.972041015625,-0.022291326785087585,-0.02771335183382034,-0.001565261713968357
1738772215133032200,3.9820322265625,-0.03334638928472996,-0.022497663012146948,-0.010455045071657513
1738772215143023000,3.992023193359375,-0.04829261400401592,-0.02072247003316879,0.0019337091505818534
1738772215153014000,4.002013916015625,-0.020752280649542806,-0.018635726886987686,-0.004452179936156608
1738772215163005000,4.0120048828125,-0.03036123599410057,-0.029970190849900245,-0.014238850484776775
1738772215172996000,4.02199609375,-0.02900397616624832,-0.01786123538315296,-0.01011273900658707
1738772215182988000,4.031988037109375,-0.03436754902601242,-0.013549801924824714,0.0037139927215641363
1738772215192979000,4.04197900390625,-0.04026479037106037,-0.0224561619579792,-0.0002196329584054183
1738772215202970000,4.05197021484375,-0.023516484665870665,-0.03127192109823227,-0.007257416932482738
1738772215212961000,4.0619609375,-0.041971594288945195,-0.022234628161787985,-0.0014266763688297942
1738772215222952000,4.071951904296875,-0.04898001174628734,-0.026304069557785987,-0.0015511738231114576
1738772215232943000,4.081943115234375,-0.023873043018579482,-0.02716390125751495,-0.011905560115445404
1738772215242935000,4.09193505859375,-0.038112580773234365,-0.03132569711208343,-0.0045009429898171215
1738772215252926000,4.101926025390625,-0.032735563910007474,-0.02487958971261978,-0.014883721976284868
1738772215262917000,4.111917236328125,-0.037220015847682954,-0.02787818700671196,-0.0012597006128460633
1738772215272908000,4.121907958984375,-0.03843172972500324,-0.020827683973312378,0.0028826838634209706
1738772215282899000,4.13189892578125,-0.0218505972802639,-0.021692191848158834,0.0033326903699547983
1738772215292890000,4.14189013671875,-0.03512742748260498,-0.03221475490629673,-0.0066569314303284045
1738772215302881000,4.151881103515625,-0.01712882945537567,-0.015354805520176887,-0.01124286641452345
1738772215312873000,4.161873046875,-0.02897299650609493,-0.014281038808822632,-0.0018968351808260194
1738772215322864000,4.171864013671875,-0.036734862679243085,-0.023282091388106343,-0.005971359177317935
1738772215332855000,4.18185498046875,-0.028655016598105428,-0.030911855614185333,-0.003939496015041368
1738772215342846000,4.191845947265625,-0.040783845809102055,-0.0306038125783205,-0.000353827539505437
1738772215352836900,4.2018369140625,-0.036737200766801835,-0.02133329540789127,-0.007695413340814411
1738772215362828000,4.211828125,-0.03242226017713547,-0.030881460475921628,-0.004296255297149764
1738772215372819000,4.22181884765625,-0.02690729614794254,-0.02965922520458698,-0.012669390944659244
1738772215382811100,4.23181103515625,-0.03884849383234978,-0.024755671072006224,-0.01262759306296939
1738772215392802000,4.241802001953125,-0.02910334488749504,-0.028667876079678533,-0.004711861777160084
1738772215402793000,4.25179296875,-0.04435644359886646,-0.018952537751197814,-0.006636466314323479
1738772215412783900,4.261783935546875,-0.04483049085140228,-0.01593055958151817,-0.012567214920039987
1738772215422775000,4.271775146484375,-0.032411738783121105,-0.02879880898296833,-0.008599482616136083
1738772215432766000,4.281765869140625,-0.02954991961121559,-0.028820436292886734,-0.0009659338391502388
1738772215442758100,4.291758056640625,-0.03289396934211254,-0.02085457198023796,-0.009396230475907213
1738772215452749000,4.3017490234375,-0.02864507972598076,-0.022869418933987615,-0.002654750009195413
1738772215462740000,4.311739990234375,-0.030396307307481763,-0.026362521746754644,-0.006136254857358289
1738772215472731000,4.32173095703125,-0.03596212474107742,-0.02109071882367134,-0.006400814944523154
1738772215482722000,4.33172216796875,-0.009398527464270591,-0.026270167288184165,-0.007771925201214617
1738772215492713000,4.341712890625,-0.034472762966156006,-0.021108839002251623,0.006340175365045433
1738772215502703900,4.351703857421875,-0.03626549160182476,-0.038919220981001854,-0.014267085631994995
1738772215512696000,4.361696044921875,-0.018732757520675658,-0.02323649868071079,0.0004950443747919052
1738772215522687000,4.37168701171875,-0.025633622950315474,-0.022916765207052228,-0.009626901993202045
1738772215532678000,4.381677978515625,-0.029535306563973424,-0.026643676775693893,0.005472767713636858
1738772215542669000,4.3916689453125,-0.0359849210947752,-0.017947744622826577,-0.0037014334924460853
1738772215552660000,4.401659912109375,-0.04218085312545299,-0.017577742266654966,-0.013040314607793698
1738772215562651000,4.41165087890625,-0.029461072283983227,-0.00919862097799778,-0.0009135871639824472
1738772215572643000,4.42164306640625,-0.031474750193953516,-0.033086277043819425,-0.0050811083647946354
1738772215582634000,4.431634033203125,-0.04058101671338081,-0.02622808171212673,-0.010643683528533437
1738772215592625000,4.441625,-0.02457856093943119,-0.023973580783605574,-0.010358759931707755
1738772215602616000,4.451615966796875,-0.040000586476922034,-0.011991466566920279,0.004979086462158011
1738772215612607000,4.46160693359375,-0.041428573453426355,-0.021173720932006836,-0.001163287608732935
1738772215622598000,4.471597900390625,-0.015231471401453017,-0.019689619854092597,-0.019318631117232143
1738772215632588800,4.4815888671875,-0.035431378865242,-0.027172084563970564,-0.012872540842433226
1738772215642581000,4.4915810546875,-0.043378538477420805,-0.023712299498915672,-0.010770522495306795
1738772215652572000,4.501572021484375,-0.024502573093771934,-0.02837561513483524,-0.005469032253435579
1738772215662562800,4.511562744140625,-0.03181552645564079,-0.022712767067551612,0.009531760780856711
1738772215672554000,4.521553955078125,-0.03775251528918743,-0.019027941074967383,-0.011579965439869555
1738772215682545000,4.531544921875,-0.024219664499163625,-0.03242284469902515,0.004803447909106034
1738772215692535800,4.541535888671875,-0.051419806113839145,-0.029619477716088295,0.00044976904451614244
1738772215702528000,4.551528076171875,-0.017281974190473556,-0.026800328642129896,-0.0015733536888787056
1738772215712519000,4.561518798828125,-0.03148760967552662,-0.03369534885287285,-0.004558094845910091
1738772215722509800,4.571509765625,-0.03971709336042404,-0.02142564986646175,-0.00014414401131216436
1738772215732501000,4.5815009765625,-0.0283469735622406,-0.0175327340811491,0.010916317324299598
1738772215742492000,4.591491943359375,-0.04422434165179729,-0.024247137027978895,0.00024225806545582598
1738772215752482800,4.60148291015625,-0.03146422879993915,-0.028935002583265302,-0.013257174512156052
1738772215762475000,4.61147509765625,-0.03812953190803527,-0.025573417195677756,-0.010832090231613255
1738772215772466000,4.6214658203125,-0.037951252731680866,-0.03398585623204708,0.0032143988941737913
1738772215782456800,4.631456787109375,-0.03778466399312019,-0.03011632132232189,0.01066308805696899
1738772215792448000,4.641447998046875,-0.027916180929541585,-0.020829437538981435,0.014787071510154055
1738772215802439000,4.65143896484375,-0.031955227187275885,-0.018885317733883855,-0.006182801979401847
1738772215812429800,4.661429931640625,-0.010551204630732535,-0.017545593562722204,0.0005444809985987376
1738772215822421000,4.6714208984375,-0.049665655922889705,-0.014783143112063407,0.007035355696617626
1738772215832413000,4.681412841796875,-0.0366951151907444,-0.026548399707674978,-0.002534434398042504
1738772215842403800,4.69140380859375,-0.016937106275558472,-0.03239128051698208,-0.012796823566476814
1738772215852395000,4.70139501953125,-0.041937107497453684,-0.020557634860277174,-0.0019996162769326475
1738772215862386000,4.711385986328125,-0.039673254218697544,-0.022525135540962218,0.0035259022539597933
1738772215872376800,4.721376953125,-0.03258943343758583,-0.022284312522411344,0.016758180928521323
1738772215882367700,4.73136767578125,-0.034657471883296966,-0.024262334597110746,-0.008869255451246862
1738772215892360000,4.74135986328125,-0.040354222220182416,-0.03577098608314991,-0.0012979205812502187
1738772215902350800,4.751350830078125,-0.03944412163794041,-0.03399053240716457,0.00295077723863651
1738772215912342000,4.761342041015625,-0.03145604549348354,-0.024005729487538336,-0.005417028071562527
1738772215922333000,4.7713330078125,-0.0280418531358242,-0.023224223721027372,-0.014428756166843231
1738772215932323800,4.78132373046875,-0.023839725270867345,-0.03521101411283016,-0.01810638066708343
1738772215942314800,4.791314697265625,-0.02315583465993404,-0.0264560452491045,0.0003253754798672162
1738772215952307000,4.801306884765625,-0.038739188238978386,-0.020595628783106803,0.004624833089322783
1738772215962297900,4.8112978515625,-0.04242401423156261,-0.016921324184536932,-0.010236412193672731
1738772215972288800,4.821288818359375,-0.04080138146579265,-0.019885434687137604,-0.0006391998025472276
1738772215982280000,4.831280029296875,-0.022764789515733717,-0.03027881840765476,0.00016685930826351977
1738772215992270800,4.841270751953125,-0.030064298874139785,-0.022685879060626028,-0.003885166303697042
1738772216002261800,4.85126171875,-0.033459202009439463,-0.030820670199394225,-0.005002374864555895
1738772216012253000,4.8612529296875,-0.021335633495450017,-0.04010170876383781,0.0036596378940448628
1738772216022244900,4.871244873046875,-0.03913023338317871,-0.013031331008672714,-0.0006146692911337595
1738772216032235800,4.88123583984375,-0.03372457494735718,-0.028466216027736663,-0.01897199251198326
1738772216042227000,4.89122705078125,-0.026876316487789154,-0.03695522743165493,-0.008743109462573192
1738772216052217900,4.9012177734375,-0.045128597015142435,-0.025886136406660078,-0.005155334653274621
1738772216062208800,4.911208740234375,-0.020382862815260885,-0.02939209870100021,0.009341163262334884
1738772216072200000,4.921199951171875,-0.031301147192716594,-0.0313444018125534,-0.008227484665700467
1738772216082191600,4.931191650390625,-0.03758066585361957,-0.02775777549743652,-0.014696173789730527
1738772216092182500,4.9411826171875,-0.02687690100967884,-0.028275077369809148,-0.005319024756917497
1738772216102173400,4.95117333984375,-0.05772855086922645,-0.021958733829855918,-0.0008182564386806916
1738772216112164600,4.96116455078125,-0.02677577872276306,-0.02223229007422924,0.0053737643185711925
1738772216122155800,4.97115576171875,-0.0385772756755352,-0.027642040163278578,-0.007789304452633951
1738772216132146700,4.981146728515625,-0.03767185126841068,-0.017026538124680517,-0.01258424939487595
1738772216142138400,4.991138427734375,-0.03331540962457657,-0.030813071414828298,-0.0031169858096400274
1738772216152129500,5.001129638671875,-0.04015256216824054,-0.0163519998639822,-0.006394660340016707
1738772216162120700,5.01112060546875,-0.027305355554819104,-0.013933248284459113,-0.00042948773324606005
1738772216172111600,5.021111572265625,-0.037513445836305614,-0.01990647747516632,-0.005395924776385072
1738772216182102800,5.031102783203125,-0.03280161488354206,-0.018645663759112356,-0.014576425575802568
1738772216192093700,5.04109375,-0.010832359659671782,-0.014123217898607253,-0.011885098424373427
1738772216202084600,5.051084716796875,-0.03652911097407341,-0.0122258598446846,-0.004000036271463614
1738772216212076500,5.06107666015625,-0.026920155629515646,-0.02977203792929649,-0.0022996849272516554
1738772216222067700,5.071067626953125,-0.03041559652984142,-0.031952889099717136,-0.002154277115681907
1738772216232058600,5.08105859375,-0.021329788276553154,-0.017687632381916046,-0.007986558899161172
1738772216242049800,5.0910498046875,-0.02251812127828598,-0.021739538121223447,-0.00030159617041354065
1738772216252040700,5.101040771484375,-0.039454058510065074,-0.022754852643609047,-0.0062578045860165726
1738772216262031600,5.111031494140625,-0.013099720069766044,-0.023224223721027372,-0.0048979680669435765
1738772216272023600,5.1210234375,-0.04267945029735565,-0.031362521991133686,-0.004139055441442178
1738772216282014700,5.1310146484375,-0.022279636347293852,-0.02573357619345188,-0.0024712272604985627
1738772216292005600,5.141005615234375,-0.008940846824645996,-0.030846389162540434,-0.0026116255368106066
1738772216301996800,5.150996826171875,-0.02762625807225704,-0.02383563361763954,-0.020277918303175827
1738772216311987700,5.16098779296875,-0.03355506359934807,-0.02435118192434311,-0.006134016092855017
1738772216321978600,5.170978515625,-0.035896658289432525,-0.029651041898131367,-0.013503341567749157
1738772216331969500,5.180969482421875,-0.03855155671238899,-0.031191257077455518,0.006472256762516918
1738772216341961700,5.190961669921875,-0.01928688427209854,-0.0274058933198452,-0.005783403423742856
1738772216351952600,5.20095263671875,-0.03131868284940719,-0.018081600135564802,-0.002069418693688931
1738772216361943600,5.210943603515625,-0.031637247279286386,-0.015665771165490148,-0.009429994606546824
1738772216371934700,5.220934814453125,-0.02222001511454582,-0.020591537129878996,-0.008359751009551109
1738772216381925600,5.230925537109375,-0.028020225825905798,-0.02527180390059948,-0.004639965584728634
1738772216391916500,5.24091650390625,-0.03441723338663578,-0.01828384470939636,-0.014735759164736373
1738772216401908700,5.25090869140625,-0.04169569995701313,-0.02552840901017189,-0.010366270809661364
1738772216411899600,5.260899658203125,-0.042426936841011044,-0.026446692898869514,-0.006122515168017708
1738772216421890600,5.270890625,-0.030747604963183402,-0.023463293173909185,-0.00361533981130342
1738772216431881700,5.2808818359375,-0.030919454398751257,-0.04004617918431758,-0.008438479943212587
1738772216441872600,5.29087255859375,-0.020268881046772002,-0.02481412326097488,-0.006383765628311084
1738772216451863600,5.300863525390625,-0.021147417446970938,-0.010471125131845473,-0.0038520300774311177
1738772216461855700,5.310855712890625,-0.04341887048780918,-0.01154839897453785,-0.005230323560157558
1738772216471846700,5.3208466796875,-0.034407296514511104,-0.021013561934232712,-0.0021311599599313923
1738772216481837600,5.330837646484375,-0.04233341333866119,-0.018625790014863013,-0.007051251952070742
1738772216491828700,5.340828857421875,-0.04382394415736198,-0.02416939561665058,-0.01722917999073397
1738772216501819600,5.350819580078125,-0.026585224586725232,-0.030638883891701697,0.0023644869419047606
1738772216511810600,5.360810546875,-0.04595569548904895,-0.014848025041818617,-0.0010814100200484972
1738772216521801500,5.370801513671875,-0.030394553741812703,-0.022328736186027525,-0.0072484493163821745
1738772216531793700,5.380793701171875,-0.01800502776801586,-0.019449965879321098,-0.015999406441982136
1738772216541784600,5.39078466796875,-0.03001870616674423,-0.02882745055556297,-0.006141402531578205
1738772216551775700,5.400775634765625,-0.0255541279733181,-0.018474398845434187,0.003237278587906621
1738772216561766700,5.4107666015625,-0.03917874870002269,-0.020709026029706,-0.004079840634070569
1738772216571757600,5.420757568359375,-0.01886193685829639,-0.019172902503609656,-0.009429112115490716
1738772216581748500,5.43074853515625,-0.03140343852341175,-0.024743396112322805,0.007787693592504365
1738772216591740700,5.44074072265625,-0.02963701337277889,-0.023537527453899382,-0.0017961535686161368
1738772216601731600,5.450731689453125,-0.018396657434105873,-0.02041618056297302,-0.007475267784111201
1738772216611722800,5.46072265625,-0.0356102425634861,-0.027293080595135688,-0.012074228929949459
1738772216621713700,5.470713623046875,-0.036947628647089004,-0.032092589831352235,-0.0022085520280990746
1738772216631704600,5.48070458984375,-0.02415419804751873,-0.027813889598846436,-0.010398930970247602
1738772216641695500,5.490695556640625,-0.02058569191098213,-0.020904256340861318,-0.01190293090858613
1738772216651687700,5.500687744140625,-0.030005846685171124,-0.024952654948830602,-0.01039163472142536
1738772216661678600,5.5106787109375,-0.038058220237493515,-0.022591186514496802,-0.0010804978462401777
1738772216671669500,5.52066943359375,-0.029672084686160085,-0.02214987248778343,-0.0038369421061535828
1738772216681660700,5.53066064453125,-0.02769815426468849,-0.028168694385886192,-0.004392682000994682
1738772216691651600,5.540651611328125,-0.024527707535028455,-0.020271219134330748,0.00024260855026077478
1738772216701642500,5.550642578125,-0.037299510824680325,-0.02245440839231014,-0.002589555268897675
1738772216711633700,5.560633544921875,-0.02788812387883663,-0.025727146452665328,0.004184976942400681
1738772216721625600,5.57062548828125,-0.025061376020312307,-0.024211481192708013,0.0030302379663044118
1738772216731616500,5.580616455078125,-0.04293079470992088,-0.02997428250312805,-0.00670706217387924
1738772216741607700,5.590607666015625,-0.026139818906784056,-0.03689502167701721,-0.0034393541983794417
1738772216751598600,5.6005986328125,-0.022370237240195275,-0.02540682845711708,0.0022736565784958656
1738772216761589500,5.610589599609375,-0.029300913286209106,-0.015475217029452324,-0.010180526421125978
1738772216771580700,5.62058056640625,-0.021188918501138687,-0.019102759876847265,-0.0017820085955434477
1738772216781572600,5.630572509765625,-0.03480594044327736,-0.021048633247613906,0.003964806269522524
1738772216791563500,5.6405634765625,-0.022222937723994255,-0.023308394873142242,0.005336090056149987
1738772216801554700,5.6505546875,-0.013793547552824019,-0.026509236741065978,-0.015204263734119011
1738772216811545600,5.660545654296875,-0.0357189636349678,-0.030931729358434676,-0.008492982042848598
1738772216821536500,5.67053662109375,-0.011412789896130562,-0.026668811216950417,-0.003868248276581289
1738772216831527400,5.68052734375,-0.019910569128394125,-0.018925065222382544,-0.01507544173116912
1738772216841518600,5.6905185546875,-0.029517186385393142,-0.03116027741730213,-0.0016700509624264668
1738772216851510500,5.700510498046875,-0.03565992692410946,-0.016935352709889412,-0.019909002792392855
1738772216861501700,5.710501708984375,-0.04238368222117424,-0.025626024165749547,-0.009300596073217456
1738772216871492600,5.72049267578125,-0.031152094110846518,-0.027581249886751175,-0.00574767566488008
1738772216881483500,5.7304833984375,-0.025304537126421927,-0.04300795159935951,-0.016053321736439828
1738772216891474400,5.740474365234375,-0.042349195429682726,-0.024020927056670187,-0.01917420397812966
1738772216901465600,5.750465576171875,-0.015988427248597146,-0.023151743006706235,0.0024037754893884993
1738772216911457500,5.76045751953125,-0.034684359890222546,-0.015379939961433409,0.005012884842127096
1738772216921448700,5.77044873046875,-0.03737316058278083,-0.02122106720507145,-0.00758631666835281
1738772216931439600,5.780439697265625,-0.01805821925997734,-0.024078210201859473,-0.004889260745747015
1738772216941430500,5.790430419921875,-0.038544542449712754,-0.02633972539305687,-0.008625328301801346
1738772216951421400,5.80042138671875,-0.03514671670496464,-0.018806407278776166,-0.001974211265973281
1738772216961412600,5.81041259765625,-0.02063011557459831,-0.019856208592653274,0.013535110104124759
1738772216971404500,5.820404541015625,-0.03575111233890056,-0.030621932756900786,-0.007030614447774132
1738772216981395500,5.8303955078125,-0.035956279522180556,-0.030406244179606436,-0.008255654739192686
1738772216991386600,5.84038671875,-0.04103869735300541,-0.022183190235495566,0.0025781057180545757
1738772217001377500,5.85037744140625,-0.03281038271188736,-0.032954759618639945,-0.0010066117677662986
1738772217011368400,5.860368408203125,-0.02770516852736473,-0.020555296772718428,-0.009538356060069053
1738772217021359600,5.870359619140625,-0.04074059118926525,-0.032655484411120414,-0.005529011962498771
1738772217031350500,5.8803505859375,-0.034115620091557504,-0.031207623690366743,0.013227560258604353
1738772217041342500,5.890342529296875,-0.03976619319915771,-0.029154198291897773,-0.0053404694037453735
1738772217051333600,5.900333740234375,-0.039945056897401805,-0.032711013990640636,-0.0031216562765359413
1738772217061324500,5.910324462890625,-0.04533142611086368,-0.02148936275243759,-0.007879033129278104
1738772217071315500,5.9203154296875,-0.03817512461543083,-0.017268530187010765,-0.006101249759347411
1738772217081306400,5.930306396484375,-0.024666823744773865,-0.02629530172944069,0.00908121541820583
1738772217091297300,5.94029736328125,-0.031359014859795566,-0.02559504450559616,-0.0005862195147841703
1738772217101289500,5.95028955078125,-0.025074235501885412,-0.020956863310933112,0.007995322160929208
1738772217111280400,5.9602802734375,-0.00706102442741394,-0.023566753548383713,-0.002355591249396093
1738772217121271300,5.970271240234375,-0.0296715001642704,-0.02250233918726444,-0.0066624067564669525
1738772217131262500,5.980262451171875,-0.04436696499288082,-0.019622984358668327,-0.010919596126774558
1738772217141253400,5.99025341796875,-0.02609656428694725,-0.019788988575339315,-0.000104283500026213
1738772217151244300,6.000244384765625,-0.01934182932972908,-0.016222820526361464,-0.008636978782044025
1738772217161236500,6.010236572265625,-0.03506955981552601,-0.028474399334192275,0.00020987189950537867
1738772217171227400,6.020227294921875,-0.03566460309922695,-0.0287783507168293,-0.005918828697415301
1738772217181218300,6.03021826171875,-0.027684125739336013,-0.03302607128918171,-0.006551373855245765
1738772217191209500,6.04020947265625,-0.026062662017345428,-0.03180032888650894,0.0003941024676780216
1738772217201200400,6.050200439453125,-0.03322773134112358,-0.02643383341729641,0.0018212571854761335
1738772217211191300,6.06019140625,-0.028602994149923323,-0.029410218879580497,-0.01283861231501214
1738772217221182500,6.070182373046875,-0.036816695743799206,-0.02299509114027023,-0.015525697116163792
1738772217231174400,6.08017431640625,-0.020818916144967076,-0.02597147660255432,-0.010094127920950996
1738772217241165300,6.090165283203125,-0.026632570859789848,-0.013876549661159514,-0.005485161404329119
1738772217251156500,6.100156494140625,-0.0338671982884407,-0.01710837118923664,-0.0035637626044044734
1738772217261147400,6.1101474609375,-0.019192776247859,-0.030737083569169044,-0.001579905585607048
1738772217271138300,6.12013818359375,-0.03998363534212112,-0.027005495825409887,-0.011304606539121595
1738772217281129500,6.13012939453125,-0.02271685872077942,-0.025428455767035483,-0.0006192587012832519
1738772217291120600,6.14012060546875,-0.025111060380935666,-0.04203822978436947,0.0034466390307585242
1738772217301112300,6.1501123046875,-0.040378187617659565,-0.02721884631514549,0.005551234069105703
1738772217311103500,6.160103515625,-0.034973698225617404,-0.027389526706933974,-0.011929893122392241
1738772217321094400,6.170094482421875,-0.03897942673563957,-0.02129413244128227,0.0064997852319036604
1738772217331085600,6.18008544921875,-0.04701601819694042,-0.02059796687066555,-0.005100483210477977
1738772217341076500,6.190076416015625,-0.03350245662927628,-0.02244797865152359,-0.006594233466149307
1738772217351067600,6.200067626953125,-0.02496492990851402,-0.027843700215220448,-0.00451712123141624
1738772217361059300,6.210059326171875,-0.02020049198567867,-0.023625790259242056,-0.019430185749905647
1738772217371050200,6.22005029296875,-0.04220481852293014,-0.02286883441209793,-0.005912847622844856
1738772217381041400,6.23004150390625,-0.03173135530352592,-0.019426000481843946,-0.003020075048605213
1738772217391032600,6.240032470703125,-0.02603811209797859,-0.024223171630501746,-0.002189631556853419
1738772217401023500,6.2500234375,-0.04255319356918335,-0.025953940945863722,-0.0023826653443451504
1738772217411014700,6.2600146484375,-0.026186580657958983,-0.031257308050990106,-0.0037878833666152786
1738772217421006300,6.27000634765625,-0.037998014482855794,-0.010918284377455711,-0.01166365481808316
1738772217430997200,6.279997314453125,-0.020851064848899842,-0.026558921101689337,0.009111593431804794
1738772217440988400,6.289988525390625,-0.016708558216691018,-0.03742635207474231,-0.009958921842987183
1738772217450979600,6.2999794921875,-0.0400759898006916,-0.016299392893910407,-0.003418023715983145
1738772217460970500,6.309970458984375,-0.02183189257979393,-0.022570143726468084,-0.002922709913132712
1738772217470961700,6.319961669921875,-0.021002456018328664,-0.022341011145710944,0.00927054685318144
1738772217480952600,6.32995263671875,-0.035309798312187196,-0.0206131644397974,-0.006730617721047019
1738772217490944500,6.339944580078125,-0.045236733564734455,-0.028484920728206634,-0.004817949075205251
1738772217500935700,6.349935791015625,-0.03479483452737331,-0.030839959421753882,0.01284527951781638
1738772217510926600,6.359926513671875,-0.03221826203763485,-0.03147650375962257,0.0011309128592256457
1738772217520917500,6.36991748046875,-0.029493805509805678,-0.024930443117022513,-0.011377725432615261
1738772217530908700,6.37990869140625,-0.03669219258129597,-0.00919862097799778,-0.0047741202082776
1738772217540899600,6.389899658203125,-0.03761632168889045,-0.017398878568410873,0.00032551932705100626
1738772217550891500,6.3998916015625,-0.038162265133857724,-0.02209843456149101,-0.00929259314656374
1738772217560882700,6.409882568359375,-0.020119243443012236,-0.02519289344549179,-0.01170197068460984
1738772217570873600,6.41987353515625,-0.02650046891272068,-0.02540507489144802,0.0035980747243156653
1738772217580864500,6.429864501953125,-0.02767711147665977,-0.025129180559515952,-0.001552153353934409
1738772217590855400,6.43985546875,-0.03217559193968773,-0.026615035203099248,-0.008639783802127932
1738772217600846600,6.4498466796875,-0.039164135652780534,-0.012302432212233544,-0.005433011091983644
1738772217610838500,6.459838623046875,-0.0169663323700428,-0.02852291465103626,0.0006693597620818763
1738772217620829700,6.46982958984375,-0.03077741557955742,-0.015752280405163764,0.004230774004128761
1738772217630820600,6.479820556640625,-0.030054946523904797,-0.025748189240694046,-0.0034574675270938313
1738772217640811500,6.4898115234375,-0.03591185585856437,-0.03215747176110744,-0.00018735524866497142
1738772217650802400,6.499802490234375,-0.041592239582538604,-0.03710194242596626,-0.0019349238601338583
1738772217660793600,6.509793701171875,-0.018052374041080475,-0.020846973195672035,-0.004139160472719231
1738772217670784500,6.519784423828125,-0.04034486986994743,-0.014265841239690779,-0.009693217828217894
1738772217680776400,6.5297763671875,-0.015098200410604477,-0.045640638190507885,-0.0010588739612547215
1738772217690767600,6.539767578125,-0.03724222767949104,-0.017961188626289367,-0.009719855815038318
1738772217700758500,6.549758544921875,-0.03555705107152462,-0.025638299125432966,-0.002699760477989912
1738772217710749400,6.55974951171875,-0.029745149922370907,-0.034139000967144964,-0.002045174734998727
1738772217720740600,6.56974072265625,-0.055308630245923994,-0.015762217277288437,-0.008035881358536426
1738772217730731500,6.5797314453125,-0.03178688488304615,-0.012504092264175414,-0.008010878206376219
1738772217740723500,6.589723388671875,-0.024512509965896604,-0.031740123131871224,-0.006670905156753724
1738772217750714600,6.599714599609375,-0.04081599451303482,-0.0353401934504509,-0.000004898795759072527
1738772217760705500,6.60970556640625,-0.029696050083637234,-0.02746376098692417,-0.005395358520804438
1738772217770696400,6.619696533203125,-0.04475684109330177,-0.028572599011659622,-0.0032361380852351427
1738772217780687600,6.6296875,-0.029612463453412053,-0.03204991973340511,-0.004268343235272914
1738772217790678500,6.639678466796875,-0.028607670325040815,-0.03337327729165554,0.001319632372847991
1738772217800669400,6.64966943359375,-0.03558803073167801,-0.012484803041815757,-0.018818471034261163
1738772217810661600,6.65966162109375,-0.033468554359674454,-0.02328793660700321,-0.014719997623312518
1738772217820652500,6.669652587890625,-0.01414075355529785,-0.02601122409105301,-0.007221741689258487
1738772217830643500,6.6796435546875,-0.02658054841160774,-0.020151976668834684,-0.002748686786787584
1738772217840634400,6.68963427734375,-0.032685879549384116,-0.01794189940392971,-0.013681264551077037
1738772217850625500,6.69962548828125,-0.02806289592385292,-0.02720072613656521,-0.0074425162919797
1738772217860616400,6.709616455078125,-0.05931494327783584,-0.02797521764039993,-0.0027892688172811175
1738772217870608600,6.719608642578125,-0.02653261761665344,-0.02544482237994671,-0.0011461001535586547
1738772217880599600,6.729599609375,-0.03355973977446556,-0.031137481063604353,0.014194883478886913
1738772217890590500,6.739590576171875,-0.026817864298820493,-0.01902677203118801,0.005113287893123925
1738772217900581400,6.749581298828125,-0.026021745485067367,-0.024769699597358703,-0.015499603693682001
1738772217910572500,6.759572509765625,-0.04801321254074573,-0.03091068657040596,0.0031900910034019033
1738772217920563500,6.7695634765625,-0.01087386071383953,-0.02705459566414356,0.0008313579488487448
1738772217930555600,6.7795556640625,-0.03181201932430267,-0.024673253485560417,-0.015753346700954716
1738772217940546600,6.789546630859375,-0.03958265332579612,-0.030073066702485083,-0.004325585281266831
1738772217950537500,6.799537353515625,-0.018850830942392347,-0.017150456765294073,-0.003470106671313988
1738772217960528400,6.8095283203125,-0.03948094651699066,-0.009392682245373726,-0.0013100665351259522
1738772217970519600,6.81951953125,-0.04382803581058979,-0.022102526214718816,0.016558526745642302
1738772217980510500,6.829510498046875,-0.018762568137049674,-0.022790508478879926,0.007310552483872743
1738772217990501400,6.83950146484375,-0.03067220163941383,-0.03393500282764435,-0.016701943529525306
1738772218000493600,6.84949365234375,-0.018982932889461516,-0.02811959454715252,-0.01005439070725115
1738772218010484500,6.859484375,-0.03064706719815731,-0.02423778467774391,0.0003806790138129145
1738772218020475400,6.869475341796875,-0.03710369599163532,-0.037080899637937544,-0.0010787785299005918
1738772218030466600,6.879466552734375,-0.024782559078931808,-0.015592705929279327,-0.008377999052294763
1738772218040457500,6.88945751953125,-0.0305646496117115,-0.015955694022774695,0.008856166499166283
1738772218050448400,6.899448486328125,-0.03802607153356075,-0.031242695003747937,0.002066677605686709
1738772218060440600,6.909440673828125,-0.03625146307647228,-0.012363222488760947,-0.014872882063506404
1738772218070431500,6.919431396484375,-0.03800912039875984,-0.018543372428417203,-0.002180627408134751
1738772218080423000,6.9294228515625,-0.025941081464290618,-0.030152561679482458,-0.0038029153973213395
1738772218090414000,6.9394140625,-0.025618425381183623,-0.022698738542199132,-0.0018370438430749345
1738772218100405000,6.949405029296875,-0.024738719937205313,-0.03255377760231495,-0.007786154655966674
1738772218110396000,6.95939599609375,-0.025929391026496884,-0.026126374903321266,0.0011027108196925838
1738772218120388000,6.96938818359375,-0.043350481426715846,-0.021290040788054465,-0.006108448968402808
1738772218130379000,6.97937890625,-0.027139351338148116,-0.02104980229139328,-0.0179084172594361
1738772218140370000,6.989369873046875,-0.029456396108865735,-0.01126432133615017,-0.014464784178161062
1738772218150361000,6.999361083984375,-0.033793548530340195,-0.018599486529827118,-0.012952460511116077
1738772218160352000,7.00935205078125,-0.02968845129907131,-0.02376198385953903,-0.00219628163499292
1738772218170343000,7.019343017578125,-0.034164135408401484,-0.027968203377723693,-0.014793520658893975
1738772218180333800,7.029333740234375,-0.035087679994106294,-0.0265910698056221,-0.014022303390956949
1738772218190326000,7.039325927734375,-0.030776246535778044,-0.019376316121220587,-0.004709720052423654
1738772218200317000,7.04931689453125,-0.028542788395285606,-0.026695114701986312,0.0000947473450563848
1738772218210308000,7.05930810546875,-0.022878186762332914,-0.031159692895412445,-0.009695148348755902
1738772218220299000,7.069299072265625,-0.023976503393054006,-0.01987725138068199,-0.005988999865285586
1738772218230290000,7.0792900390625,-0.03487432950437069,-0.03367489058673381,-0.004227924459916539
1738772218240280800,7.08928076171875,-0.028653847554326057,-0.037215924194455144,0.005143555167224258
1738772218250273000,7.09927294921875,-0.03434767528176307,-0.022841946405172345,0.010668855644052382
1738772218260264000,7.109263916015625,-0.02924304561913013,-0.021065584382414817,-0.010165059423935599
1738772218270254800,7.1192548828125,-0.034007483541965484,-0.023638065218925475,-0.004258162051264662
1738772218280246000,7.12924609375,-0.03955985697209835,-0.01763327184617519,-0.002552368488599313
1738772218290237000,7.13923681640625,-0.024900632500648497,-0.026755904978513715,-0.008832373489980817
1738772218300227800,7.149227783203125,-0.028681320083141327,-0.02596153973042965,-0.007585064284538384
1738772218310219000,7.159218994140625,-0.0337888723552227,-0.03162438779771328,0.0007606285169080365
1738772218320211000,7.1692109375,-0.026617373290657994,-0.022931378254294393,-0.008334229550871533
1738772218330201900,7.179201904296875,-0.025116905599832533,-0.017998598027229307,-0.01596494362502126
1738772218340193000,7.189193115234375,-0.03361293126642704,-0.037490649482607837,-0.005002841797081055
1738772218350184000,7.199183837890625,-0.03315758871436119,-0.029567455267906186,-0.007222390143229859
1738772218360174800,7.2091748046875,-0.027637363988161086,-0.014285714983940124,-0.006450330341787776
1738772218370166000,7.219166015625,-0.03081950115561485,-0.020823007798194883,-0.006560964809142751
1738772218380158000,7.229157958984375,-0.028879473003745076,-0.025007015484571456,0.010476109550928231
1738772218390148900,7.23914892578125,-0.021904373294115067,-0.02598667417168617,-0.010331335351953748
1738772218400140000,7.24914013671875,-0.026705051574110985,-0.014300328031182289,-0.006265499268705025
1738772218410131000,7.259130859375,-0.02312368595600128,-0.020872107636928556,-0.003127389614289859
1738772218420121900,7.269121826171875,-0.023730419677495954,-0.025053192713856694,-0.008249024069006555
1738772218430113000,7.279113037109375,-0.01953355250954628,-0.03089665804505348,-0.011290398775611539
1738772218440105000,7.28910498046875,-0.02757657371163368,-0.012984569257497787,0.0035539535964431703
1738772218450095900,7.299095947265625,-0.025090017592906952,-0.028778935238718984,-0.008980107972666155
1738772218460087000,7.309087158203125,-0.03197042475640774,-0.031176644030213353,-0.0011795126577490008
1738772218470078000,7.319077880859375,-0.02974456540048122,-0.03609305764436722,0.012377399427874478
1738772218480068900,7.32906884765625,-0.03602700667083263,-0.023226561808586118,0.0013002780767623334
1738772218490059800,7.339059814453125,-0.04355623313188552,-0.028856676650047302,-0.009200544648669892
1738772218500051000,7.349051025390625,-0.019264087918400764,-0.023829788398742675,-0.0005714489206264261
1738772218510043000,7.35904296875,-0.028376784178614615,-0.0263905787974596,-0.006073474694788456
1738772218520034000,7.369033935546875,-0.025061376020312307,-0.022977555483579635,-0.0005125503487302921
1738772218530025000,7.37902490234375,-0.011755904245376586,-0.027153379863500592,-0.013336361245188163
1738772218540015900,7.389015869140625,-0.035083588340878484,-0.01968903533220291,-0.014924240074696718
1738772218550006800,7.3990068359375,-0.04464753549993038,-0.022846038058400152,-0.006431570842390647
1738772218559998000,7.408998046875,-0.029797172370553016,-0.02588204475343227,0.000976734936021967
1738772218569990000,7.418989990234375,-0.03267302006781101,-0.010729483807086944,-0.003096406529203523
1738772218579980800,7.428980712890625,-0.04168927021622657,-0.02101005480289459,-0.019263599294633605
1738772218589972000,7.438971923828125,-0.03628419630229473,-0.0267173265337944,0.00008048364097485319
1738772218599963000,7.448962890625,-0.03155249160528183,-0.023509470403194427,-0.006211251755751436
1738772218609953800,7.458953857421875,-0.02737491365969181,-0.013320084822177886,-0.012919126780383521
1738772218619945000,7.468945068359375,-0.04022387383878231,-0.031000118419528006,0.004324306639633142
1738772218629937000,7.47893701171875,-0.02859831797480583,-0.03019815438687801,-0.01075348802047083
1738772218639927800,7.488927734375,-0.027113047853112218,-0.025246669459342955,0.003033674315694952
1738772218649919000,7.4989189453125,-0.029004560688138007,-0.01977320648431778,0.005164837700559291
1738772218659910000,7.508909912109375,-0.027893969097733496,-0.028525252738595006,0.01333439419203205
1738772218669900800,7.51890087890625,-0.03328735257387161,-0.024029694885015485,0.009013773921894607
1738772218679892000,7.52889208984375,-0.02550561265647411,-0.022684125494956967,-0.010262527307396522
1738772218689884000,7.5388837890625,-0.026695699223875997,-0.02269230880141258,-0.0004513878961559385
1738772218699874800,7.548874755859375,-0.04273731796443462,-0.03777005094587803,-0.004733888662589015
1738772218709866000,7.558865966796875,-0.031681086421012875,-0.040892566880583764,-0.009281024864711798
1738772218719857000,7.56885693359375,-0.03377893548309803,-0.034604280391335486,0.0006045257813879288
1738772218729847800,7.578847900390625,-0.027981062859296798,-0.02423427754640579,0.0005167253419931512
1738772218739839000,7.5888388671875,-0.03396130631268024,-0.026035774010419843,-0.018810050265787866
1738772218749830000,7.598829833984375,-0.03131576023995876,-0.028224808487296103,-0.003990336861356627
1738772218759821800,7.60882177734375,-0.027865327525138855,-0.03047930941581726,0.0006486297845956869
1738772218769813000,7.61881298828125,-0.04116787669062614,-0.03348959714770317,0.014425819857663008
1738772218779804000,7.628803955078125,-0.043535774865746495,-0.027984569990634915,0.004219497983221663
1738772218789794800,7.638794921875,-0.029925182664394378,-0.018698855251073836,-0.006560167941410327
1738772218799785700,7.64878564453125,-0.037326983353495595,-0.028792963764071464,0.0048383605339273345
1738772218809777000,7.65877685546875,-0.03194119866192341,-0.02714578107893467,0.009117085882608079
1738772218819768800,7.668768798828125,-0.03360883961319923,-0.012456745991110801,-0.0038698214624484535
1738772218829760000,7.678760009765625,-0.030203999605774877,-0.023336451923847198,0.003608212525839917
1738772218839751000,7.6887509765625,-0.023476737177371976,-0.025873276925086973,-0.005101942231913563
1738772218849741800,7.698741943359375,-0.034844518887996674,-0.021838322320580483,-0.0015085265580506528
1738772218859733000,7.70873291015625,-0.024066519764065743,-0.020646482187509536,-0.00026428495088475754
1738772218869724200,7.71872412109375,-0.03896306012272834,-0.028655601119995114,-0.00014585191120859234
1738772218879715800,7.7287158203125,-0.033629297879338264,-0.021709142982959746,-0.0031753752081713172
1738772218889706800,7.738706787109375,-0.022294833916425703,-0.03333703693449497,-0.010485328328778269
1738772218899698000,7.748697998046875,-0.03019990795254707,-0.03127250562012195,-0.007949460025475127
1738772218909688800,7.758688720703125,-0.025915362501144408,-0.0279155964076519,-0.0027989853520528412
1738772218919680000,7.768679931640625,-0.017699907341599465,-0.028496611166000364,-0.0141323145205155
1738772218929671200,7.778671142578125,-0.04406652074158191,-0.028462124374508856,0.0008649131585785652
1738772218939662000,7.788662109375,-0.032574235868453975,-0.019447627791762352,-0.014108813772274879
1738772218949653800,7.79865380859375,-0.02649871534705162,-0.02431611061096191,-0.0121193798209948
1738772218959645000,7.80864501953125,-0.03339548912346363,-0.02684416778385639,-0.00897393966842792
1738772218969635800,7.8186357421875,-0.03636310675740242,-0.022234628161787985,-0.012787385592918143
1738772218979627000,7.828626953125,-0.03502572067379951,-0.02716273221373558,-0.01216982680002111
1738772218989618200,7.8386181640625,-0.03008943331539631,-0.021772855868935584,0.007924984312988817
1738772218999609000,7.848609130859375,-0.023836218139529228,-0.020240823996067046,0.0041104515431099565
1738772219009600800,7.858600830078125,-0.030123335584998127,-0.0172451493114233,-0.008176507963711627
1738772219019592000,7.868592041015625,-0.03520458437204361,-0.018299626800417898,-0.010267877052660333
1738772219029583000,7.8785830078125,-0.03253624194562435,-0.027398879057168958,-0.0068777733900642485
1738772219039574000,7.888573974609375,-0.02862052980661392,-0.025033903491497037,-0.006790970747801475
1738772219049565200,7.898565185546875,-0.032170915764570235,-0.022836685708165168,-0.0013238279157085342
1738772219059556000,7.90855615234375,-0.03294073109328747,-0.02356032380759716,-0.006741256704425905
1738772219069547800,7.9185478515625,-0.040835868257284164,-0.02659457693696022,-0.006183235804241849
1738772219079539000,7.9285390625,-0.02549567578434944,-0.03264496301710605,0.0007134968729747925
1738772219089530400,7.9385302734375,-0.011330372309684754,-0.028395488879084586,0.006279975318629294
1738772219099521300,7.948521240234375,-0.03619710254073143,-0.024624153646826744,-0.0037296149823814627
1738772219109512400,7.958512451171875,-0.031217560562491416,-0.017190788775682447,-0.004635201502998825
1738772219119503600,7.968503662109375,-0.03512508939504623,-0.021659458622336387,-0.0096874936236185
1738772219129494500,7.97849462890625,-0.030671617117524145,-0.014584405669569969,0.007144648731901543
1738772219139486500,7.988486572265625,-0.015997195076942444,-0.017289572975039483,0.004795279444026528
1738772219149477400,7.998477294921875,-0.030694413471221923,-0.025332009655237197,-0.011197184658871264
1738772219159468300,8.00846826171875,-0.039275194811820985,-0.015246084448695182,-0.009679617419483838
1738772219169459500,8.01845947265625,-0.021767595171928403,-0.00985913071334362,0.0011171914361941162
1738772219179450600,8.02845068359375,-0.03253331933617592,-0.027675357910990715,-0.006366690054279752
1738772219189441500,8.038441650390626,-0.030288170757889747,-0.010168927314877509,-0.015513770357996691
1738772219199433500,8.04843359375,-0.042108956933021545,-0.02513327221274376,-0.004591902359033701
1738772219209424400,8.05842431640625,-0.031178397595882413,-0.022298341047763823,-0.00023418549849884583
1738772219219415600,8.06841552734375,-0.016316928550601004,-0.023401333853602407,-0.010784165144880535
1738772219229406500,8.078406494140625,-0.029622984847426412,-0.02670738966166973,-0.0012527616986946668
1738772219239397600,8.088397705078124,-0.04652735789716243,-0.027760698106884956,-0.005523359681491274
1738772219249388500,8.098388427734376,-0.032088498178124425,-0.02350654779374599,-0.005643731233215658
1738772219259379500,8.10837939453125,-0.03446282609403133,-0.02367956627309322,-0.002711908715154277
1738772219269371400,8.118371337890625,-0.022652561312913894,-0.03758417298495769,0.004236042692646151
1738772219279362600,8.128362548828125,-0.02789338457584381,-0.029648119288682936,0.0032703862730646504
1738772219289353500,8.138353515625,-0.038380291798710824,-0.030382278782129287,0.0042130865087441636
1738772219299344600,8.1483447265625,-0.04030044620633125,-0.036247955945134164,0.0037051015956327316
1738772219309335600,8.15833544921875,-0.03737257606089115,-0.025273557466268536,-0.005210906473634531
1738772219319326500,8.168326416015624,-0.02181318787932396,-0.022277298259735106,-0.01662204441044014
1738772219329318400,8.178318359375,-0.03420154480934143,-0.022763035950064656,-0.0065649457228719255
1738772219339309600,8.1883095703125,-0.027319384080171583,-0.021714988201856612,-0.00031840802460792475
1738772219349300500,8.198300537109375,-0.021628478962182996,-0.025611411118507385,0.0007354438433016184
1738772219359291600,8.208291748046875,-0.021758827343583104,-0.0329652810126543,-0.01078970896967803
1738772219369282600,8.218282470703125,-0.03717617670595646,-0.01545183615386486,-0.004831560900382464
1738772219379273500,8.2282734375,-0.03868716579079628,-0.03309270678460598,-0.01022705870179343
1738772219389265700,8.238265625,-0.03002572042942047,-0.018407763350009917,-0.00939529204427963
1738772219399256600,8.248256591796874,-0.03002747399508953,-0.02304360645711422,-0.00987864712292212
1738772219409247500,8.25824755859375,-0.03699029874503612,-0.027016017219424246,0.00212861180981854
1738772219419238700,8.26823876953125,-0.028470892202854155,-0.027304186511039732,0.0016835828725015743
1738772219429229600,8.2782294921875,-0.021050386813282966,-0.025286416947841645,0.012338138279854319
1738772219439220500,8.288220458984375,-0.03426876482665538,-0.027023616003990173,-0.004034153170196805
1738772219449211400,8.29821142578125,-0.027687048348784445,-0.029415479576587675,-0.0006277787928120232
1738772219459202600,8.30820263671875,-0.04022679644823074,-0.017629180192947385,0.003590897206502268
1738772219469194500,8.318194580078124,-0.03470072650313377,-0.025996026521921158,-0.005567586982285138
1738772219479185700,8.328185546875,-0.02888239561319351,-0.014603110370039939,-0.00022041955133900046
1738772219489176600,8.338176513671876,-0.014237199667096138,-0.026850597524642944,-0.0071178543398098554
1738772219499167500,8.34816748046875,-0.015619009414315222,-0.020225626426935196,-0.006863566768198506
1738772219509158400,8.358158447265625,-0.040590369063615794,-0.025184710139036177,-0.009868006997898918
1738772219519149600,8.368149658203125,-0.03201426389813423,-0.011622633254528045,-0.01164199668376823
1738772219529140500,8.378140380859374,-0.041731940314173696,-0.031384733822941775,-0.005641192216257331
1738772219539132400,8.38813232421875,-0.02829845824539661,-0.035385201635956764,-0.010421252399910009
1738772219549123600,8.39812353515625,-0.018882395124435424,-0.020109891092777252,-0.005743021181004587
1738772219559114500,8.408114501953126,-0.04187514817714691,-0.026155016475915907,-0.0018146356484445277
1738772219569105400,8.41810546875,-0.031062077739834784,-0.027248656931519507,0.003129370367177762
1738772219579096600,8.4280966796875,-0.03137655051648617,-0.017355039426684378,-0.011971837134554516
1738772219589087500,8.43808740234375,-0.016239771661162375,-0.014689035087823868,0.004455825206456938
1738772219599079400,8.448079345703125,-0.018884148690104484,-0.025820669955015182,-0.003276593393209623
1738772219609070600,8.458070556640624,-0.04387070590853691,-0.021185411369800566,-0.004795510056178318
1738772219619061500,8.4680615234375,-0.0314753347158432,-0.013525252005457877,0.004675062014284776
1738772219629052400,8.478052490234376,-0.028140052813291547,-0.024499065962433814,0.0004575756083475426
1738772219639043600,8.488043701171875,-0.03925882819890976,-0.03895955299139023,-0.005505909648124361
1738772219649034500,8.498034423828125,-0.027988077121973036,-0.030936405533552168,0.005277627592382487
1738772219659026400,8.5080263671875,-0.02119184111058712,-0.03250526228547096,-0.00009846111401566303
1738772219669017600,8.518017578125,-0.03281155175566673,-0.025683307310938833,-0.006453471005300525
1738772219679008500,8.528008544921875,-0.018130699974298475,-0.02585164961516857,-0.0019391433775250333
1738772219688999400,8.53799951171875,-0.02485737788081169,-0.02900222260057926,-0.007844396782381228
1738772219698990600,8.547990478515626,-0.026220482927560806,-0.014169395127892493,-0.00023936057218234053
1738772219708981500,8.5579814453125,-0.032390111473202705,-0.024154782569408416,-0.013371894924517255
1738772219718973400,8.567973388671875,-0.020462357792258263,-0.02889233248531818,-0.011904332847805926
1738772219728964600,8.577964599609375,-0.02886076830327511,-0.025278818163275717,-0.004286485105095198
1738772219738955500,8.58795556640625,-0.02793079397678375,-0.02963058363199234,-0.008536299453122774
1738772219748946400,8.597946533203125,-0.03426350412964821,-0.028227731096744535,-0.007969645438622682
1738772219758937300,8.607937255859374,-0.030415012007951735,-0.023389058893918988,-0.0040929809601453595
1738772219768928500,8.617928466796876,-0.02848901238143444,-0.014538228440284727,0.0055620808317500625
1738772219778920400,8.62792041015625,-0.020571078863739965,-0.022753099077939987,-0.0037314085056015752
1738772219788911600,8.63791162109375,-0.03298515475690365,-0.03009235592484474,-0.013345337994443252
1738772219798902500,8.647902587890625,-0.03136427555680275,-0.025873276925086973,-0.003065296721598133
1738772219808893400,8.6578935546875,-0.02490180154442787,-0.01842471448481083,-0.005349789787939516
1738772219818884400,8.66788427734375,-0.035520226192474365,-0.03982932156324386,-0.005920208945393096
1738772219828875500,8.67787548828125,-0.03746317695379257,-0.028609423890709876,-0.003793266219564248
1738772219838867500,8.687867431640624,-0.028732758009433746,-0.027771804022789,0.003181952221074607
1738772219848858400,8.6978583984375,-0.026772856113314626,-0.030184125861525534,-0.005503100061463192
1738772219858849500,8.707849609375,-0.028435236367583272,-0.027770634979009626,-0.0029681816062307916
1738772219868840400,8.71784033203125,-0.014821137034893034,-0.028216040658950805,0.0029303977459552697
1738772219878831400,8.727831298828125,-0.040105800417065615,-0.009665069445967674,-0.009803504094056552
1738772219888822500,8.737822509765625,-0.02908230209946632,-0.02367313653230667,0.0027164193518459797
1738772219898814500,8.747814453125,-0.03588204524219036,-0.036165538358688354,-0.0014556147689465432
1738772219908805400,8.757805419921874,-0.036385903111100196,-0.02308276942372322,-0.0036549206197320017
1738772219918796500,8.767796630859374,-0.022476035702228545,-0.025319734695553778,-0.00577077227103291
1738772219928787500,8.777787353515626,-0.03232289145588874,-0.021912556600570676,0.0034992071849235798
1738772219938778400,8.7877783203125,-0.037412323549389837,-0.019516016852855683,-0.007001615540508646
1738772219948769500,8.79776953125,-0.02385141570866108,-0.015709025785326958,0.007705781754490454
1738772219958761500,8.807761474609375,-0.017072715353965758,-0.029978374156355857,-0.009759720892901532
1738772219968752400,8.81775244140625,-0.030087679749727248,-0.02923310874700546,-0.002627735279750777
1738772219978743600,8.82774365234375,-0.0410346056997776,-0.0329477453559637,0.002400006921502063
1738772219988734500,8.837734375,-0.019207389295101164,-0.023347557839751242,-0.0017411719783674924
1738772219998725400,8.847725341796876,-0.022685879060626028,-0.031684593552350995,0.005764972717908676
1738772220008716500,8.857716552734376,-0.03644201721251011,-0.027656653210520743,0.0076397787300171325
1738772220018708500,8.86770849609375,-0.03750584705173969,-0.035867432194948194,0.0037027395335433536
1738772220028699400,8.877699462890625,-0.03037760260701179,-0.024281623819470403,0.002322250668797642
1738772220038690600,8.887690673828125,-0.04309153822958469,-0.023389058893918988,-0.004960790470353095
1738772220048681500,8.897681396484375,-0.03550385957956314,-0.028276246413588522,-0.009733214195177423
1738772220058672400,8.90767236328125,-0.027913258320093153,-0.03376490695774555,-0.008043006360711296
1738772220068663300,8.917663330078126,-0.041600422888994217,-0.03353285176753998,-0.006807859092165017
1738772220078654500,8.927654541015626,-0.027248656931519507,-0.025885551884770392,-0.008827990717452485
1738772220088645600,8.937645751953125,-0.018662614893913267,-0.01832008506655693,-0.00802133909324184
1738772220098636500,8.947636474609375,-0.01818973668515682,-0.025232640933990476,-0.006573021714761853
1738772220108627500,8.95762744140625,-0.021745383340120314,-0.02602291452884674,0.008893372687418013
1738772220118618600,8.96761865234375,-0.033955461093783376,-0.022501754665374754,-0.00200273981578066
1738772220128609500,8.977609619140624,-0.02569090609550476,-0.024637597650289535,0.0038660563194949644
1738772220138601500,8.9876015625,-0.03143208009600639,-0.03774140937328339,0.020712912186956964
1738772220148592600,8.997592529296876,-0.038266310030221934,-0.024031448450684546,-0.009866055927763226
1738772220158583600,9.00758349609375,-0.024181670576333997,-0.026148586735129355,-0.006026639878377318
1738772220168574500,9.017574462890625,-0.031499884635210036,-0.0330482831209898,-0.0030644313552067614
1738772220178565600,9.027565673828125,-0.020443068569898606,-0.016868717214465142,-0.004043627676373581
1738772220188556500,9.037556640625,-0.029720600003004072,-0.02868891886770725,-0.006607903515186626
1738772220198548500,9.047548583984375,-0.02198386827111244,-0.025046178451180456,-0.012532840009691426
1738772220208539600,9.05753955078125,-0.021100071173906325,-0.02098959653675556,-0.014178760036214953
1738772220218530600,9.067530517578126,-0.022999767315387724,-0.02879880898296833,-0.002025940311566228
1738772220228521500,9.077521484375,-0.02466390113532543,-0.03356558499336242,-0.005182933904608944
1738772220238512600,9.0875126953125,-0.04687339485585689,-0.02466214756965637,0.00004052152334479615
1738772220248503800,9.09750390625,-0.027916765451431274,-0.017723872739076614,0.01392095049188938
1738772220258495500,9.10749560546875,-0.028982933378219604,-0.030571079352498053,0.0036062991299666463
1738772220268486700,9.117486572265625,-0.03694119890630245,-0.02964052050411701,0.0042053861178341315
1738772220278477600,9.1274775390625,-0.029207389783859252,-0.030033903735876083,-0.005147326018399326
1738772220288468500,9.137468505859376,-0.026399346625804898,-0.022960019826889038,-0.012171500450588063
1738772220298459600,9.147459716796876,-0.042298926547169685,-0.027554946401715276,0.005460266708378913
1738772220308450800,9.157450927734375,-0.031869886991381643,-0.021066753426194188,-0.0018623860635969321
1738772220318442500,9.1674423828125,-0.030681553989648818,-0.026293548163771628,-0.00001935886266292073
1738772220328433400,9.177433349609375,-0.032657237976789474,-0.04077390893697738,-0.013713828813540748
1738772220338424600,9.187424560546875,-0.029407296270132062,-0.029651626420021057,-0.008050432756985536
1738772220348415500,9.19741552734375,-0.04411152892708778,-0.025713702449202538,0.005458445785695221
1738772220358406700,9.20740673828125,-0.022921441382169724,-0.022951836520433425,0.00031865576142445207
1738772220368397800,9.217397705078126,-0.0203735104650259,-0.03313245427310466,0.0037828612732701003
1738772220378388700,9.227388671875,-0.03609948738515377,-0.017851883032917976,0.00102520230380469
1738772220388380400,9.23738037109375,-0.027762451672554013,-0.03725567168295383,-0.0024630074214248452
1738772220398371600,9.24737158203125,-0.03901332900524139,-0.022857728496193885,0.0007539761554799042
1738772220408362800,9.25736279296875,-0.03391162195205688,-0.0189835174113512,-0.004775164812826551
1738772220418353700,9.267353759765625,-0.030211598390340804,-0.0289613060683012,-0.004035686398512916
1738772220428344800,9.2773447265625,-0.03871288475394249,-0.02764846990406513,0.0010523414724797476
1738772220438335700,9.287335693359376,-0.026744214540719985,-0.02091127060353756,0.002701968418096658
1738772220448327400,9.297327392578126,-0.03347907575368881,-0.024052491238713263,0.008075682504317956
1738772220458318600,9.307318603515625,-0.02184533658325672,-0.02580371882021427,-0.01407430300625274
1738772220468309800,9.317309814453125,-0.029936873102188108,-0.009779051214456557,0.0009045852985524106
1738772220478300700,9.32730078125,-0.031273674663901324,-0.02729775677025318,-0.006024167076789308
1738772220488291800,9.337291748046875,-0.017220014870166778,-0.03311959479153156,-0.003800417479558382
1738772220498282800,9.34728271484375,-0.026535540226101873,-0.029333646512031554,0.01613365125543205
1738772220508274400,9.3572744140625,-0.048614101043343544,-0.026246201890707015,-0.005295600498846033
1738772220518265600,9.367265625,-0.033217794468998904,-0.02263444113433361,0.004387440711940871
1738772220528256800,9.3772568359375,-0.04037584953010082,-0.02341127072572708,0.0007142606330220587
1738772220538247700,9.38724755859375,-0.031684593552350995,-0.018937340182065963,0.0002651617337192874
1738772220548238600,9.397238525390625,-0.01910685153007507,-0.016253215664625165,-0.0004926355052855797
1738772220558229800,9.407229736328125,-0.03454173654913902,-0.022362053933739662,0.0016087423793796915
1738772220568221700,9.4172216796875,-0.021808511704206467,-0.02118131971657276,0.006677624875196488
1738772220578212900,9.427212890625,-0.02959609684050083,-0.018929741397500036,-0.0012362489553110207
1738772220588203800,9.437203857421874,-0.030307459980249404,-0.030644729110598564,-0.003908772083214717
1738772220598194700,9.447194580078126,-0.03583294540345668,-0.03185410490036011,0.007613559726660605
1738772220608185600,9.457185546875,-0.04155366113781929,-0.019244798696041107,-0.006625124078046065
1738772220618176800,9.4671767578125,-0.025996026521921158,-0.02746902168393135,-0.006304298050777288
1738772220628168700,9.477168701171875,-0.03798515500128269,-0.03044014644920826,0.0018722658535058143
1738772220638159600,9.48715966796875,-0.023812837263941764,-0.017221183913946152,-0.006818607673398218
1738772220648150800,9.49715087890625,-0.052717444708943365,-0.018839140504598617,-0.015011158023035386
1738772220658141700,9.5071416015625,-0.036546062108874316,-0.0303729264318943,0.0014882452467805706
1738772220668132600,9.517132568359376,-0.027439211067557333,-0.020921791997551918,-0.0027646880735177543
1738772220678123800,9.527123779296875,-0.03044832975566387,-0.022549100938439367,-0.011861578268179436
1738772220688115700,9.53711572265625,-0.03029927667379379,-0.015066051706671715,-0.006048304862558143
1738772220698106600,9.547106689453125,-0.038839141482114786,-0.014754501539468765,0.0006915190782514401
1738772220708097800,9.557097900390625,-0.039028526574373244,-0.023386720806360242,-0.003320004418317694
1738772220718088700,9.567088623046875,-0.01900280663371086,-0.023656185397505757,-0.0001332618576940149
1738772220728079600,9.57707958984375,-0.04681085101366043,-0.014707155266404152,-0.007894053743541008
1738772220738070800,9.58707080078125,-0.042618660020828245,-0.04074643640816211,0.013515098220913204
1738772220748062700,9.597062744140626,-0.026424481067061422,-0.024026187753677368,0.00039074146681232377
1738772220758053600,9.6070537109375,-0.030160160464048385,-0.017896891218423843,-0.0015224066696420777
1738772220768044800,9.617044921875,-0.035278818652033805,-0.018609423401951788,-0.0008213080539368092
1738772220778035700,9.62703564453125,-0.03361936100721359,-0.021616788524389266,0.000754049220716115
1738772220788026600,9.637026611328125,-0.029272856235504147,-0.023720482805371285,-0.00045341317317215723
1738772220798017800,9.647017822265624,-0.03613338965475559,-0.01671440343558788,0.0033414490651455706
1738772220808008700,9.6570087890625,-0.042245735055208206,-0.03469721937179565,-0.0014482397466665134
1738772220818000600,9.667000732421876,-0.03417641036808491,-0.026305238601565358,-0.00560025399273727
1738772220827991800,9.67699169921875,-0.022463760742545125,-0.02949497455358505,0.0036237308970245067
1738772220837982700,9.686982666015625,-0.032956513184309005,-0.026630817294120788,0.002281601281289477
1738772220847973600,9.6969736328125,-0.034629999354481696,-0.024353520011901855,-0.01754862691166927
1738772220857964500,9.706964599609375,-0.041677579778432845,-0.032416999480128286,0.0013737771378131583
1738772220867955700,9.716955810546875,-0.03504208728671074,-0.015718378135561942,0.0007105285977537278
1738772220877947600,9.72694775390625,-0.019433599266409873,-0.018466215538978575,0.0010638241310080047
1738772220887938800,9.736938720703124,-0.028279753544926643,-0.02293371634185314,-0.0028438085911795495
1738772220897929700,9.7469296875,-0.02682370951771736,-0.03560615091025829,0.0033284034955489913
1738772220907920600,9.756920654296875,-0.04494505714178085,-0.03184650611579418,0.008308633885311428
1738772220917911600,9.76691162109375,-0.019488544324040413,-0.018998714980483052,-0.0008307848434022161
1738772220927902700,9.77690283203125,-0.030257191097736356,-0.029180501776933668,-0.005806589078152319
1738772220937894700,9.786894775390625,-0.038815760606527326,-0.028248773884773253,-0.0035057179824565534
1738772220947885600,9.796885498046874,-0.04188099339604377,-0.034597850650548934,-0.00023140901952283457
1738772220957876700,9.806876708984374,-0.05391279197335243,-0.025997780087590214,0.0039714004070905504
1738772220967867600,9.81686767578125,-0.04271919778585434,-0.030900749698281285,0.01015971196196042
1738772220977858600,9.826858642578125,-0.0388297891318798,-0.02431611061096191,-0.0007277708518551662
1738772220987849700,9.836849609375,-0.037007249879837036,-0.03108136696219444,0.004980676772689912
1738772220997841700,9.846841552734375,-0.03585223462581634,-0.02474748776555061,-0.005010710009705508
1738772221007832600,9.85683251953125,-0.03407762616872787,-0.019335984110832212,0.004720901316852541
1738772221017823700,9.86682373046875,-0.027058687317371367,-0.02859656440913677,-0.0017391969337011686
1738772221027814700,9.876814697265624,-0.03434709075987339,-0.023709376889467237,0.005475568167143501
1738772221037805600,9.8868056640625,-0.04235971682369709,-0.022442717954516408,0.005356793775816914
1738772221047796700,9.896796630859376,-0.043398412221670145,-0.02245265482664108,0.0015147325365513096
1738772221057788700,9.90678857421875,-0.02366612226963043,-0.016443769800662995,-0.0009888203827489632
1738772221067779600,9.916779541015625,-0.021710896548628806,-0.01840074908733368,-0.002653122024401091
1738772221077770800,9.926770751953125,-0.03485270219445229,-0.025166005438566206,-0.0015590260527154896
1738772221087762200,9.93676220703125,-0.02871171522140503,-0.024125556474924086,0.0002522680028167087
1738772221097753000,9.946753173828125,-0.029171149426698684,-0.020970307314395902,0.004130600423639407
1738772221107744000,9.956743896484374,-0.03900689926445484,-0.022065116813778877,-0.006401487373025156
1738772221117736200,9.966736083984374,-0.03182780141532421,-0.025802549776434897,0.007514493541157572
1738772221127727000,9.97672705078125,-0.035333763709664345,-0.012110124510526656,0.0006706680864677764
1738772221137718000,9.986718017578125,-0.024260581031441686,-0.01749707824587822,0.01651843333891593
1738772221147709000,9.996708984375,-0.03394260161221027,-0.01111351468861103,0.008500129877909785
1738772221157700000,10.0067001953125,-0.03397708840370178,-0.0151145670235157,-0.006528482745069777
1738772221167691000,10.01669091796875,-0.02798924616575241,-0.02065408097207546,-0.013848419545218347
1738772221177683200,10.02668310546875,-0.03744564129710197,-0.02585632579028606,-0.002075062983186217
1738772221187674000,10.036674072265624,-0.019953239226341245,-0.01715980911552906,-0.0036520048601494633
1738772221197665000,10.0466650390625,-0.032820904105901716,-0.024342998617887496,-0.002595524927024962
1738772221207656000,10.056656005859375,-0.026846505871415138,-0.014604279413819312,-0.004232759323593928
1738772221217647000,10.066647216796875,-0.031471243062615395,-0.020156652843952176,-0.0019717304728750604
1738772221227638000,10.076637939453125,-0.03815291278362274,-0.01842296091914177,0.00032552161033963783
1738772221237630000,10.0866298828125,-0.03092413057386875,-0.028951369196176528,-0.00045961001851828765
1738772221247621000,10.09662109375,-0.03510696921646595,-0.024769115075469014,0.00017548328942502847
1738772221257612000,10.106612060546874,-0.03228782014250755,-0.015913023924827574,-0.010469511988427256
1738772221267603000,10.11660302734375,-0.026637831556797026,-0.03367781319618225,0.0037103817005932796
1738772221277594000,10.126593994140626,-0.0387689988553524,-0.012117723295092583,-0.0011575588375562801
1738772221287585000,10.1365849609375,-0.03307926278114319,-0.031873394122719764,-0.009743347430124413
1738772221297576000,10.146575927734375,-0.03369067267775536,-0.02736965296268463,-0.011781375471706268
1738772221307568000,10.156568115234375,-0.03861994577348232,-0.03231821528077125,0.000822617519967025
1738772221317559000,10.16655908203125,-0.023638065218925475,-0.021565935119986532,-0.003082541258988203
1738772221327550000,10.176550048828124,-0.029177579167485236,-0.027697569742798803,0.007761669810325838
1738772221337541000,10.186541015625,-0.038919805502891536,-0.03351414706707,-0.010661235168244456
1738772221347532000,10.196531982421876,-0.031332711374759674,-0.022987492355704305,0.011278662672045175
1738772221357523000,10.20652294921875,-0.04243862727880478,-0.031927754658460615,0.009819048723060404
1738772221367515100,10.21651513671875,-0.040219782185554505,-0.02725976284742355,-0.01399267543767346
1738772221377506000,10.226506103515625,-0.01714285798072815,-0.03253448837995529,0.005712103169644251
1738772221387497000,10.2364970703125,-0.023441081342101096,-0.026832477346062658,0.0012333731532795354
1738772221397488000,10.246488037109375,-0.020037410378456116,-0.0302291340470314,-0.010878599679394392
1738772221407479000,10.25647900390625,-0.016458967369794845,-0.03141162182986736,0.006898248780868016
1738772221417470000,10.266469970703126,-0.023919220247864723,-0.0248527017056942,0.008112522224744316
1738772221427462100,10.276462158203126,-0.03305588190555572,-0.027236966493725773,-0.010938908182020531
1738772221437453000,10.286453125,-0.024693711751699446,-0.019435352832078933,-0.0045451097834622485
1738772221447444000,10.29644384765625,-0.0392091438382864,-0.03275251504480839,-0.004125806659157388
1738772221457435000,10.306434814453125,-0.03290624430179596,-0.02259820077717304,0.004971411187422927
1738772221467426000,10.316426025390625,-0.03153027977347374,-0.021136311531066893,0.011855021804873831
1738772221477417000,10.3264169921875,-0.03545359069705009,-0.017954758885502815,0.001302426651364658
1738772221487409200,10.3364091796875,-0.021834815189242362,-0.022446809607744214,0.009076310914225177
1738772221497400000,10.346400146484376,-0.0427601143181324,-0.017985154023766516,0.003145876260695513
1738772221507391000,10.356390869140625,-0.035839959666132924,-0.02581073308289051,0.0017339659194462
1738772221517382000,10.3663818359375,-0.029386838003993034,-0.02089373494684696,0.007760315820167307
1738772221527373000,10.376373046875,-0.027038813573122024,-0.020241993039846418,0.006798834393848665
1738772221537364000,10.386364013671875,-0.021239771905541417,-0.026632570859789848,-0.006189420091500505
1738772221547356000,10.39635595703125,-0.030691490861773488,-0.030943419796228406,-0.0006255879773700144
1738772221557347000,10.40634716796875,-0.028600656062364577,-0.018818682238459585,-0.00003158929821802303
1738772221567338000,10.416337890625,-0.032361469900608064,-0.022087328645586966,0.0004422387586091645
1738772221577329000,10.426328857421876,-0.02507131289243698,-0.028173370561003684,-0.004926973824074957
1738772221587320000,10.436320068359375,-0.03540624442398548,-0.020530162331461904,-0.00809074079284328
1738772221597311000,10.44631103515625,-0.027478374034166333,-0.018581366351246832,-0.00047047162253875284
1738772221607303000,10.456302978515625,-0.03478255956768989,-0.01966156280338764,0.00044579155571991574
1738772221617294000,10.466294189453125,-0.03212532305717468,-0.026203531792759895,0.0038500641659193206
1738772221627285000,10.476284912109374,-0.027315876948833463,-0.02966974659860134,-0.0009086027448996901
1738772221637276000,10.48627587890625,-0.01401098969578743,-0.016785130584239957,-0.0037537367851298766
1738772221647267000,10.49626708984375,-0.010714286237955093,-0.020083587607741354,-0.006134169073193333
1738772221657258000,10.506258056640625,-0.04617372215390205,-0.03310731983184814,-0.014775531769410008
1738772221667250000,10.51625,-0.02787935605049133,-0.024324293917417524,0.004308098715281812
1738772221677241000,10.526240966796875,-0.03847790695428848,-0.023605331993103027,0.0005016670534678269
1738772221687232000,10.53623193359375,-0.03471884668171406,-0.005371171644330024,-0.007804028239374747
1738772221697223000,10.546222900390624,-0.02606558462679386,-0.015067220750451088,0.015808028038748305
1738772221707214000,10.556214111328124,-0.029564532658457755,-0.031010639813542365,0.010152441970957443
1738772221717205000,10.566205078125,-0.032572482302784915,-0.020069559082388878,-0.015678340669407043
1738772221727196000,10.57619580078125,-0.01856441521644592,-0.010126257216930388,0.005964930578175699
1738772221737188000,10.58618798828125,-0.025358897662162778,-0.02636485983431339,0.003992815371166216
1738772221747179000,10.596178955078125,-0.026868717703223226,-0.02305705046057701,-0.011954350568569498
1738772221757170000,10.606169921875,-0.03625146307647228,-0.019069442129135132,-0.004779153718065936
1738772221767160800,10.616160888671875,-0.04748889640569687,-0.01740589283108711,0.001844388040958438
1738772221777152000,10.626152099609374,-0.02730944720804691,-0.027257424759864805,-0.004185276053211419
1738772221787143000,10.636142822265626,-0.03733808926939964,-0.01827566140294075,-0.00974424362091231
1738772221797135000,10.646135009765626,-0.03403846320211887,-0.013047113099694252,-0.009472859925671945
1738772221807126000,10.6561259765625,-0.036758828076720235,-0.0164566292822361,-0.007032032370014349
1738772221817117000,10.666116943359375,-0.027272622328996656,-0.016799743631482122,-0.0025352129994658753
1738772221827107800,10.67610791015625,-0.024925182420015332,-0.02811784098148346,-0.0019268044857599306
1738772221837099000,10.68609912109375,-0.03139876234829426,-0.023432898035645484,0.0005569694457692093
1738772221847090000,10.69608984375,-0.036786300605535505,-0.02747252881526947,-0.002892528262356063
1738772221857081900,10.706081787109374,-0.04741992282271385,-0.02701192556619644,0.01136370033219573
1738772221867073000,10.716072998046876,-0.017924363747239113,-0.020597382348775863,0.0008764894319407176
1738772221877064000,10.72606396484375,-0.028844401690363883,-0.022248072165250776,0.0075899573720758775
1738772221887054800,10.736054931640625,-0.030209844824671744,-0.02207622272968292,0.016016128106275573
1738772221897046000,10.7460458984375,-0.025967969471216202,-0.02288578554689884,-0.0030673299901245628
1738772221907037000,10.756036865234375,-0.030253683966398236,-0.029383330872654913,-0.0013446697743376716
1738772221917028900,10.76602880859375,-0.030565818655490875,-0.03355740168690681,0.006701857417443534
1738772221927020000,10.77602001953125,-0.03205342686474323,-0.02339256602525711,0.007278880987263983
1738772221937011000,10.786010986328124,-0.04609247361123561,-0.01758767913877964,-0.003908198977768188
1738772221947001900,10.796001953125,-0.03671381989121437,-0.01618424208164215,-0.0024194274329580366
1738772221956993000,10.805992919921875,-0.03750175539851188,-0.021226327902078627,0.004694491658895276
1738772221966984000,10.81598388671875,-0.03166998050510883,-0.027655484166741368,0.0022428698562318456
1738772221976976000,10.825975830078125,-0.036705636584758755,-0.02442424716055393,0.005699167197901988
1738772221986967000,10.835967041015625,-0.03989712610244751,-0.02691080327928066,-0.005862060433812439
1738772221996958000,10.8459580078125,-0.036925416815280915,-0.02808335418999195,0.00147967606454622
1738772222006948900,10.855948974609374,-0.032283728489279746,-0.025842297264933586,0.006905384057841729
1738772222016940000,10.86593994140625,-0.047533320069313045,-0.024810616129636764,-0.005787082943372661
1738772222026931000,10.875930908203125,-0.03748714235126972,-0.023786533778905865,-0.004328405142726842
1738772222036921900,10.885921875,-0.036144495570659636,-0.02647591899335384,0.01213027795763337
1738772222046914000,10.8959140625,-0.03498772675096989,-0.02178922248184681,-0.0005817762351070996
1738772222056905000,10.905905029296875,-0.03348258288502693,-0.027186113089323043,0.0004961871607520151
1738772222066896000,10.915895751953125,-0.03529460074305534,-0.027615736678242683,0.0024451966284541413
1738772222076886800,10.92588671875,-0.025400398716330527,-0.017462006932497023,-0.006183308869478059
1738772222086877700,10.935877685546876,-0.03718260644674301,-0.03262158214151859,0.00411143335722154
1738772222096868900,10.945868896484376,-0.0351788654088974,-0.03134323276877403,-0.0037379238697118123
1738772222106860500,10.955860595703125,-0.028873627784848213,-0.0339110374301672,0.0038861823671380987
1738772222116851700,10.965851806640625,-0.0340939927816391,-0.023904607200622558,0.0038662983480899126
1738772222126842600,10.975842529296875,-0.022664251750707624,-0.023524083450436592,-0.010299263138190145
1738772222136833800,10.985833740234375,-0.01103811136484146,-0.023918635725975034,0.001465269654925214
1738772222146825000,10.995824951171874,-0.03200549606978893,-0.015368834045529365,0.01281499740233994
1738772222156816000,11.00581591796875,-0.04336743256151676,-0.01612929702401161,0.0036233575793332418
1738772222166807600,11.0158076171875,-0.04171966535449028,-0.02720481778979301,-0.008276335625973297
1738772222176798700,11.025798828125,-0.030822423765063285,-0.018794716840982436,0.011213936005916912
1738772222186789600,11.03578955078125,-0.027057518273591992,-0.02031856540739536,0.023422045564779545
1738772222196780800,11.04578076171875,-0.03481353922784328,-0.011968085691332817,-0.013141823912132531
1738772222206772000,11.05577197265625,-0.04571428794860839,-0.022020693150162696,0.0006891136336780618
1738772222216763000,11.065762939453125,-0.04350011903047561,-0.024529461100697515,0.00573680721099372
1738772222226754600,11.075754638671874,-0.017622750452160833,-0.021375380983948707,0.003671335181704489
1738772222236745700,11.085745849609374,-0.04036591265797615,-0.02197568496465683,-0.005627498192689381
1738772222246736600,11.095736572265626,-0.023253449815511702,-0.027276129460334777,-0.008101460832968586
1738772222256727800,11.105727783203125,-0.028704700958728787,-0.011189502534270286,0.0003645247467444278
1738772222266719000,11.115718994140625,-0.03468903606534004,-0.02376023029386997,0.021046660486236213
1738772222276710000,11.1257099609375,-0.03425415177941322,-0.021499299624562263,-0.0010623982172575778
1738772222286701600,11.13570166015625,-0.036630817782878876,-0.015534838262200354,0.004226258800859795
1738772222296692700,11.145692626953124,-0.04319909025728702,-0.023483166918158528,-0.005572780322277686
1738772222306684000,11.155683837890624,-0.03197042475640774,-0.031421558701992036,-0.0005971644588396884
1738772222316674800,11.1656748046875,-0.036218145328760144,-0.022525135540962218,-0.01394227754935273
1738772222326665700,11.175665771484375,-0.035270050823688504,-0.03126315326988697,0.003624319985491456
1738772222336657000,11.185656982421875,-0.0287999780267477,-0.01559212140738964,0.0013487580026325303
1738772222346648600,11.195648681640625,-0.037788171124458314,-0.015880290699005126,0.0006105685047514271
1738772222356639700,11.2056396484375,-0.03239712573587894,-0.03084872725009918,0.00830331039786688
1738772222366631000,11.215630859375,-0.037486557829380034,-0.03069675155878067,-0.0013696489519672468
1738772222376621800,11.225621826171874,-0.04466740924417972,-0.0259112708479166,0.009416024305054452
1738772222386612700,11.23561279296875,-0.02773030296862125,-0.03372399042546749,-0.008291313999396515
1738772222396604000,11.24560400390625,-0.03688450028300285,-0.026212299621105193,0.004352570327959256
1738772222406595600,11.255595703125,-0.025687983486056325,-0.013311901515722273,-0.00430575149456854
1738772222416586800,11.265586669921875,-0.027322891211509704,-0.012726795104146003,0.005895258308871416
1738772222426578000,11.275577880859375,-0.03988309757709503,-0.013785948768258094,-0.009924606298143044
1738772222436568800,11.28556884765625,-0.02102174524068832,-0.0286082548469305,-0.007918774909555212
1738772222446559700,11.295559814453124,-0.029113866281509398,-0.03128711866736412,0.012602931262459606
1738772222456551000,11.305551025390624,-0.02098959653675556,-0.024754502028226853,-0.001509590570552973
1738772222466541800,11.315541748046876,-0.036435002949833865,-0.024865561187267304,0.007087364445067941
1738772222476533800,11.32553369140625,-0.024018004447221755,-0.023216624936461448,0.0038775789355742743
1738772222486525000,11.33552490234375,-0.04929506904482841,-0.017394786915183067,0.00685856864938396
1738772222496515800,11.345515869140625,-0.03745382460355758,-0.018465046495199203,0.010301727948267943
1738772222506506800,11.3555068359375,-0.038787119033932685,-0.013542787662148476,-0.0027982124588510487
1738772222516498000,11.365497802734374,-0.032685295027494427,-0.0268219559520483,-0.012456150052777957
1738772222526488800,11.37548876953125,-0.020548867031931876,-0.02429623686671257,-0.0057197830109565985
1738772222536480800,11.385480712890624,-0.046879824596643443,-0.022058102551102635,-0.009720819362840848
1738772222546472000,11.395471923828126,-0.02415244448184967,-0.0229354699075222,0.00200672187115415
1738772222556462800,11.405462890625,-0.029490298378467557,-0.01461480080783367,-0.000523480451409705
1738772222566453800,11.415453857421875,-0.04087035504877567,-0.029718261915445326,0.002650691463652765
1738772222576445000,11.42544482421875,-0.020641806012392044,-0.02870294739305973,-0.0018013663165620526
1738772222586435800,11.435435791015625,-0.038103812944889064,-0.020825930407643318,0.0011181915166147518
1738772222596427800,11.445427734375,-0.023279168778657912,-0.025926468417048452,0.007780758103285916
1738772222606419000,11.4554189453125,-0.02886193734705448,-0.018240590089559555,0.0013764702767541167
1738772222616409900,11.465409912109376,-0.04655307686030864,-0.01745265458226204,-0.0035241623880225234
1738772222626400800,11.47540087890625,-0.030179449686408042,-0.024858546924591062,0.0008055213963380083
1738772222636391700,11.4853916015625,-0.03179506818950176,-0.024445874470472334,0.00432293894974282
1738772222646382800,11.4953828125,-0.04109247336685657,-0.0229267020791769,-0.00282221553059062
1738772222656374800,11.505374755859375,-0.023995792615413663,-0.027011341044306754,0.0028024376844638025
1738772222666366000,11.515365966796875,-0.04449965146183967,-0.011146247914433478,-0.004595660652121296
1738772222676356900,11.52535693359375,-0.030870354560017584,-0.012507014873623847,0.0037926531565666663
1738772222686347800,11.53534765625,-0.03026186727285385,-0.02448971361219883,0.012689213314914377
1738772222696338700,11.545338623046876,-0.05645020149648189,-0.017155717462301254,-0.00007736695199273526
1738772222706329900,11.555329833984375,-0.02295592817366123,-0.02056874077618122,0.010388553423417032
1738772222716321800,11.56532177734375,-0.01875613839626312,-0.01130348430275917,0.006470157278620172
1738772222726313000,11.57531298828125,-0.03239303408265114,-0.024746903243660925,0.005423711257387185
1738772222736303900,11.585303955078125,-0.0246522106975317,-0.026195933008193967,0.008047145963000366
1738772222746294800,11.595294677734374,-0.04401216020584106,-0.020742928299307822,-0.005152764811919769
1738772222756285700,11.60528564453125,-0.04042845650017261,-0.027168577432632443,0.007992971515282988
1738772222766276900,11.61527685546875,-0.025875030490756033,-0.02436930210292339,0.003586654856224777
1738772222776268800,11.625268798828126,-0.04015840738713741,-0.02281915005147457,0.00387006120775477
1738772222786259700,11.635259765625,-0.018457447710633276,-0.028510639691352844,0.0027612654238590036
1738772222796251000,11.6452509765625,-0.02596446233987808,-0.03042611792385578,-0.005585953756037634
1738772222806241800,11.65524169921875,-0.022516952234506605,-0.027141104903817177,-0.005523520653339801
1738772222816232700,11.665232666015624,-0.03291851926147937,-0.030044425129890442,-0.00027681221396196634
1738772222826223900,11.675223876953124,-0.03128828771114349,-0.019551088166236876,-0.010414461899519665
1738772222836214800,11.68521484375,-0.05207330158650875,-0.021663550275564193,-0.007629543888726038
1738772222846206700,11.695206787109376,-0.018380290821194648,-0.01810088935792446,-0.0015187180168577468
1738772222856198000,11.705197998046875,-0.054739890447258945,-0.024537644407153128,0.0010951108934823422
1738772222866188800,11.715188720703125,-0.024043723410367965,-0.031744799306988716,-0.015004329848382621
1738772222876179700,11.7251796875,-0.031651860326528544,-0.024589666855335233,0.0008674727251345756
1738772222886171000,11.7351708984375,-0.031418051570653915,-0.0327431626945734,0.0023881806280347515
1738772222896161800,11.745161865234374,-0.025121581774950025,-0.017194295907020568,-0.006637405887595377
1738772222906153700,11.75515380859375,-0.020003508108854293,-0.03204407451450825,0.01341125197065994
