time,seconds_elapsed,z,y,x
1738772211169042000,0.0180419921875,-0.7681732177734375,-0.6506500244140625,-0.0014801025390625
1738772211179032800,0.02803271484375,-0.7648773193359375,-0.65106201171875,-0.0008544921875
1738772211189023700,0.038023681640625,-0.76068115234375,-0.651702880859375,-0.0015869140625
1738772211199015000,0.048014892578125,-0.76727294921875,-0.6520843505859375,-0.0016326904296875
1738772211209005800,0.058005859375,-0.763763427734375,-0.65203857421875,-0.001190185546875
1738772211218998000,0.067998046875,-0.76300048828125,-0.6519622802734375,-0.0017547607421875
1738772211228989000,0.077989013671875,-0.765167236328125,-0.6513214111328125,0.0000152587890625
1738772211238979800,0.087979736328125,-0.7633819580078125,-0.6515350341796875,-0.0015716552734375
1738772211248970800,0.097970703125,-0.7640533447265625,-0.6513671875,-0.002105712890625
1738772211258962000,0.1079619140625,-0.76361083984375,-0.6519775390625,-0.0022735595703125
1738772211268952800,0.117952880859375,-0.7624359130859375,-0.6513214111328125,-0.001190185546875
1738772211278943700,0.12794384765625,-0.7639007568359375,-0.6508941650390625,-0.0011749267578125
1738772211288936000,0.13793603515625,-0.764617919921875,-0.651580810546875,-0.001220703125
1738772211298926800,0.1479267578125,-0.7624053955078125,-0.65118408203125,-0.000732421875
1738772211308917800,0.157917724609375,-0.7651824951171875,-0.652679443359375,-0.0007171630859375
1738772211318909000,0.167908935546875,-0.76385498046875,-0.6519622802734375,-0.0020294189453125
1738772211328899800,0.17789990234375,-0.76324462890625,-0.6508941650390625,-0.0032501220703125
1738772211338890800,0.187890869140625,-0.766204833984375,-0.6512908935546875,-0.0030517578125
1738772211348881700,0.197881591796875,-0.7626953125,-0.652374267578125,-0.000244140625
1738772211358873900,0.207873779296875,-0.7643585205078125,-0.6505889892578125,-0.002960205078125
1738772211368864800,0.21786474609375,-0.766326904296875,-0.6506805419921875,-0.003082275390625
1738772211378856000,0.22785595703125,-0.7641143798828125,-0.6520538330078125,-0.0013275146484375
1738772211388846800,0.237846923828125,-0.765167236328125,-0.650177001953125,-0.0011138916015625
1738772211398837800,0.247837646484375,-0.7643585205078125,-0.6520843505859375,-0.00054931640625
1738772211408828700,0.25782861328125,-0.763397216796875,-0.6506195068359375,-0.000701904296875
1738772211418819800,0.26781982421875,-0.764801025390625,-0.6511993408203125,-0.0009918212890625
1738772211428811800,0.277811767578125,-0.763153076171875,-0.6523590087890625,-0.002899169921875
1738772211438803000,0.287802978515625,-0.7632293701171875,-0.651092529296875,-0.0016021728515625
1738772211448793900,0.2977939453125,-0.7657318115234375,-0.6512451171875,-0.0016632080078125
1738772211458784800,0.30778466796875,-0.7609710693359375,-0.6511077880859375,-0.0016937255859375
1738772211468775700,0.317775634765625,-0.762298583984375,-0.65142822265625,-0.0007781982421875
1738772211478766800,0.327766845703125,-0.766876220703125,-0.651397705078125,0.0001068115234375
1738772211488758800,0.3377587890625,-0.7612762451171875,-0.6512603759765625,-0.0033111572265625
1738772211498749700,0.347749755859375,-0.766326904296875,-0.65081787109375,-0.0030975341796875
1738772211508740900,0.357740966796875,-0.762725830078125,-0.6515350341796875,-0.0023956298828125
1738772211518731800,0.367731689453125,-0.76141357421875,-0.6501617431640625,-0.001373291015625
1738772211528722700,0.37772265625,-0.7677459716796875,-0.6506500244140625,0.000213623046875
1738772211538713900,0.3877138671875,-0.7610015869140625,-0.6518402099609375,-0.001678466796875
1738772211548704800,0.397704833984375,-0.7640380859375,-0.65191650390625,-0.002471923828125
1738772211558696700,0.40769677734375,-0.7661895751953125,-0.6510467529296875,-0.000823974609375
1738772211568687900,0.41768798828125,-0.761688232421875,-0.6508941650390625,0.0007476806640625
1738772211578678800,0.4276787109375,-0.7664031982421875,-0.6514739990234375,-0.0003814697265625
1738772211588669700,0.437669677734375,-0.763458251953125,-0.6524505615234375,-0.000396728515625
1738772211598660900,0.447660888671875,-0.762237548828125,-0.65167236328125,-0.0027313232421875
1738772211608651800,0.45765185546875,-0.7651519775390625,-0.6512908935546875,-0.002166748046875
1738772211618642700,0.467642578125,-0.762908935546875,-0.6509857177734375,-0.0006866455078125
1738772211628635000,0.477634765625,-0.7647705078125,-0.65045166015625,-0.0010528564453125
1738772211638625800,0.487625732421875,-0.76611328125,-0.65142822265625,-0.0017852783203125
1738772211648616700,0.49761669921875,-0.76129150390625,-0.652191162109375,-0.0021514892578125
1738772211658607900,0.50760791015625,-0.7639312744140625,-0.6516876220703125,-0.0031280517578125
1738772211668598800,0.517598876953125,-0.7643280029296875,-0.6517181396484375,-0.001373291015625
1738772211678589700,0.527589599609375,-0.76434326171875,-0.65106201171875,-0.00201416015625
1738772211688582000,0.537581787109375,-0.7652130126953125,-0.65093994140625,-0.0028533935546875
1738772211698572800,0.54757275390625,-0.7623748779296875,-0.6516265869140625,-0.0024871826171875
1738772211708563700,0.557563720703125,-0.7656097412109375,-0.6512603759765625,-0.0004119873046875
1738772211718554600,0.5675546875,-0.766265869140625,-0.650909423828125,-0.00164794921875
1738772211728545800,0.5775458984375,-0.7603302001953125,-0.6522979736328125,-0.002685546875
1738772211738537000,0.587536865234375,-0.762664794921875,-0.652252197265625,-0.0032501220703125
1738772211748527900,0.59752783203125,-0.7639007568359375,-0.651611328125,-0.002899169921875
1738772211758519800,0.607519775390625,-0.76324462890625,-0.65167236328125,-0.0016021728515625
1738772211768510700,0.6175107421875,-0.76483154296875,-0.652191162109375,-0.00048828125
1738772211778501600,0.627501708984375,-0.7646942138671875,-0.652130126953125,-0.0000457763671875
1738772211788492800,0.637492919921875,-0.763214111328125,-0.6521148681640625,-0.0010833740234375
1738772211798484000,0.64748388671875,-0.7611846923828125,-0.6501922607421875,-0.001953125
1738772211808475000,0.657474853515625,-0.76507568359375,-0.65228271484375,-0.001861572265625
1738772211818466000,0.667466064453125,-0.76458740234375,-0.65045166015625,-0.001434326171875
1738772211828457700,0.677457763671875,-0.7638397216796875,-0.65234375,-0.0030670166015625
1738772211838448600,0.68744873046875,-0.7641754150390625,-0.652191162109375,-0.002105712890625
1738772211848439800,0.697439697265625,-0.7631072998046875,-0.651336669921875,-0.001190185546875
1738772211858431000,0.707430908203125,-0.7648162841796875,-0.651153564453125,-0.0015716552734375
1738772211868422000,0.717421875,-0.764190673828125,-0.6518402099609375,-0.002105712890625
1738772211878412800,0.727412841796875,-0.762786865234375,-0.6514739990234375,-0.001708984375
1738772211888404700,0.73740478515625,-0.7646636962890625,-0.6519927978515625,-0.0025177001953125
1738772211898396000,0.74739599609375,-0.763427734375,-0.651275634765625,-0.0027008056640625
1738772211908387000,0.757386962890625,-0.76324462890625,-0.65142822265625,-0.0003662109375
1738772211918378000,0.7673779296875,-0.763031005859375,-0.6524658203125,-0.0001220703125
1738772211928369000,0.777368896484375,-0.7636566162109375,-0.6521759033203125,-0.001708984375
1738772211938359800,0.78735986328125,-0.7629852294921875,-0.6518096923828125,-0.00164794921875
1738772211948351000,0.79735107421875,-0.764617919921875,-0.6522064208984375,-0.0025787353515625
1738772211958343000,0.807343017578125,-0.7653045654296875,-0.6513671875,-0.0020599365234375
1738772211968333800,0.817333740234375,-0.764434814453125,-0.6507110595703125,-0.0022125244140625
1738772211978325000,0.827324951171875,-0.7637176513671875,-0.6512603759765625,-0.00250244140625
1738772211988316000,0.83731591796875,-0.7626190185546875,-0.652374267578125,-0.0017547607421875
1738772211998306800,0.847306884765625,-0.7640533447265625,-0.65155029296875,-0.001434326171875
1738772212008298000,0.857298095703125,-0.7657928466796875,-0.6505126953125,-0.001800537109375
1738772212018290000,0.8672900390625,-0.763763427734375,-0.652252197265625,-0.00048828125
1738772212028280800,0.87728076171875,-0.7644195556640625,-0.6509857177734375,-0.001190185546875
1738772212038272000,0.88727197265625,-0.7638702392578125,-0.6508636474609375,-0.002044677734375
1738772212048263000,0.897262939453125,-0.763763427734375,-0.652008056640625,-0.0025177001953125
1738772212058253800,0.90725390625,-0.76531982421875,-0.6523590087890625,-0.0029144287109375
1738772212068245000,0.917244873046875,-0.763702392578125,-0.6518707275390625,-0.0018157958984375
1738772212078235400,0.9272353515625,-0.7639312744140625,-0.6508331298828125,-0.0009307861328125
1738772212088227600,0.9372275390625,-0.764556884765625,-0.650299072265625,-0.001739501953125
1738772212098218500,0.947218505859375,-0.76324462890625,-0.652008056640625,-0.0014190673828125
1738772212108209400,0.95720947265625,-0.7660064697265625,-0.651763916015625,-0.0013885498046875
1738772212118200600,0.96720068359375,-0.7642059326171875,-0.65203857421875,-0.0024566650390625
1738772212128191500,0.97719140625,-0.76251220703125,-0.6519927978515625,-0.0016632080078125
1738772212138182400,0.987182373046875,-0.7650146484375,-0.651519775390625,-0.0006256103515625
1738772212148173600,0.997173583984375,-0.7633209228515625,-0.650848388671875,-0.0022735595703125
1738772212158165500,1.00716552734375,-0.7635345458984375,-0.6510772705078125,-0.0026397705078125
1738772212168156400,1.017156494140625,-0.7642974853515625,-0.6526947021484375,-0.001861572265625
1738772212178147600,1.027147705078125,-0.763580322265625,-0.652130126953125,-0.0020294189453125
1738772212188138500,1.037138427734375,-0.7646484375,-0.6512603759765625,-0.0020599365234375
1738772212198129400,1.04712939453125,-0.76251220703125,-0.6511383056640625,-0.0013427734375
1738772212208120300,1.057120361328125,-0.7645263671875,-0.650054931640625,-0.001983642578125
1738772212218112500,1.067112548828125,-0.765167236328125,-0.65179443359375,-0.00146484375
1738772212228103400,1.077103515625,-0.7636260986328125,-0.6526336669921875,-0.0030975341796875
1738772212238094600,1.087094482421875,-0.7644195556640625,-0.65216064453125,-0.0019378662109375
1738772212248085500,1.09708544921875,-0.763671875,-0.652618408203125,-0.0001068115234375
1738772212258076400,1.107076416015625,-0.763336181640625,-0.651611328125,-0.0009918212890625
1738772212268067300,1.1170673828125,-0.7645416259765625,-0.651214599609375,-0.00250244140625
1738772212278058500,1.12705859375,-0.7633056640625,-0.651336669921875,-0.0028076171875
1738772212288050400,1.137050537109375,-0.7635498046875,-0.6513519287109375,-0.00274658203125
1738772212298041600,1.14704150390625,-0.7641754150390625,-0.6519775390625,-0.0021514892578125
1738772212308032500,1.157032470703125,-0.7639007568359375,-0.650909423828125,-0.0025787353515625
1738772212318023400,1.1670234375,-0.7632293701171875,-0.6514434814453125,-0.001617431640625
1738772212328014300,1.177014404296875,-0.76446533203125,-0.6518402099609375,-0.001983642578125
1738772212338005500,1.187005615234375,-0.7644195556640625,-0.6519775390625,-0.0023956298828125
1738772212347996400,1.196996337890625,-0.764007568359375,-0.6509552001953125,-0.0009307861328125
1738772212357988400,1.20698828125,-0.7630615234375,-0.6503753662109375,-0.0008697509765625
1738772212367979500,1.2169794921875,-0.76336669921875,-0.652099609375,-0.0019989013671875
1738772212377970400,1.226970458984375,-0.7636260986328125,-0.6520233154296875,-0.002777099609375
1738772212387961300,1.23696142578125,-0.7637786865234375,-0.6513519287109375,-0.0012359619140625
1738772212397952500,1.246952392578125,-0.7642364501953125,-0.652313232421875,-0.0010223388671875
1738772212407943400,1.256943359375,-0.763763427734375,-0.6510009765625,-0.0020751953125
1738772212417935400,1.266935302734375,-0.763458251953125,-0.6514129638671875,-0.000732421875
1738772212427926500,1.276926513671875,-0.764892578125,-0.651702880859375,-0.0009765625
1738772212437917400,1.28691748046875,-0.76434326171875,-0.6508636474609375,-0.0024261474609375
1738772212447908400,1.296908447265625,-0.76348876953125,-0.6514129638671875,-0.0019378662109375
1738772212457899500,1.3068994140625,-0.7636260986328125,-0.6512451171875,-0.000885009765625
1738772212467890400,1.316890380859375,-0.7637786865234375,-0.6524810791015625,-0.0020599365234375
1738772212477882400,1.32688232421875,-0.765899658203125,-0.651458740234375,-0.0018157958984375
1738772212487873500,1.33687353515625,-0.7628326416015625,-0.6517486572265625,-0.0010986328125
1738772212497864400,1.346864501953125,-0.7635498046875,-0.6522064208984375,-0.00152587890625
1738772212507855400,1.35685546875,-0.763946533203125,-0.6529541015625,-0.002655029296875
1738772212517846500,1.366846435546875,-0.7642669677734375,-0.6519775390625,-0.0013885498046875
1738772212527837400,1.37683740234375,-0.764556884765625,-0.651092529296875,-0.001800537109375
1738772212537828400,1.386828369140625,-0.7635650634765625,-0.6520538330078125,-0.001800537109375
1738772212547820500,1.396820556640625,-0.764739990234375,-0.6513671875,-0.001739501953125
1738772212557811500,1.4068115234375,-0.763397216796875,-0.652130126953125,-0.002044677734375
1738772212567802400,1.41680224609375,-0.7650299072265625,-0.65234375,-0.0003204345703125
1738772212577793300,1.426793212890625,-0.7626190185546875,-0.651214599609375,-0.0012359619140625
1738772212587784400,1.436784423828125,-0.7644500732421875,-0.6501312255859375,-0.000732421875
1738772212597775400,1.446775390625,-0.762542724609375,-0.65234375,-0.001190185546875
1738772212607767600,1.456767578125,-0.7637481689453125,-0.6514892578125,-0.002471923828125
1738772212617758500,1.466758544921875,-0.765289306640625,-0.65130615234375,-0.0026397705078125
1738772212627749400,1.476749267578125,-0.7631072998046875,-0.6510772705078125,-0.0009918212890625
1738772212637740300,1.486740234375,-0.765045166015625,-0.651031494140625,-0.001739501953125
1738772212647731500,1.4967314453125,-0.7638092041015625,-0.6514892578125,-0.0018463134765625
1738772212657722400,1.506722412109375,-0.76361083984375,-0.651458740234375,-0.0023345947265625
1738772212667713300,1.51671337890625,-0.76348876953125,-0.6530914306640625,-0.002105712890625
1738772212677705500,1.52670556640625,-0.76373291015625,-0.6525726318359375,-0.001556396484375
1738772212687696400,1.5366962890625,-0.7642059326171875,-0.6519775390625,-0.0008697509765625
1738772212697687300,1.546687255859375,-0.7638092041015625,-0.65191650390625,-0.0007781982421875
1738772212707678500,1.556678466796875,-0.76373291015625,-0.6522369384765625,-0.001556396484375
1738772212717669400,1.56666943359375,-0.763763427734375,-0.6531524658203125,-0.0002899169921875
1738772212727660500,1.57666064453125,-0.76434326171875,-0.651397705078125,-0.0009307861328125
1738772212737652500,1.586652587890625,-0.76458740234375,-0.65191650390625,-0.003143310546875
1738772212747643400,1.596643310546875,-0.7636566162109375,-0.65093994140625,-0.002593994140625
1738772212757634300,1.60663427734375,-0.7642669677734375,-0.6510162353515625,-0.000244140625
1738772212767625500,1.61662548828125,-0.76409912109375,-0.652862548828125,-0.0019073486328125
1738772212777616400,1.626616455078125,-0.7645111083984375,-0.6515045166015625,-0.002288818359375
1738772212787607600,1.636607666015625,-0.7635650634765625,-0.65234375,-0.000579833984375
1738772212797599500,1.646599609375,-0.76324462890625,-0.6507110595703125,-0.002471923828125
1738772212807590400,1.65659033203125,-0.7634429931640625,-0.65057373046875,-0.0015869140625
1738772212817581300,1.666581298828125,-0.763031005859375,-0.6517333984375,-0.002166748046875
1738772212827572500,1.676572509765625,-0.76495361328125,-0.6516265869140625,-0.0024261474609375
1738772212837563400,1.6865634765625,-0.7643280029296875,-0.650970458984375,-0.0017547607421875
1738772212847554600,1.696554443359375,-0.7624359130859375,-0.65289306640625,-0.0018157958984375
1738772212857545500,1.70654541015625,-0.764434814453125,-0.6513214111328125,-0.00146484375
1738772212867537400,1.716537353515625,-0.7634429931640625,-0.6508941650390625,-0.00018310546875
1738772212877528300,1.7265283203125,-0.7631378173828125,-0.6505279541015625,-0.0025787353515625
1738772212887519200,1.736519287109375,-0.7635498046875,-0.65179443359375,-0.0014190673828125
1738772212897510700,1.7465107421875,-0.7630767822265625,-0.6526031494140625,-0.0020904541015625
1738772212907501600,1.75650146484375,-0.7635650634765625,-0.6521759033203125,-0.001861572265625
1738772212917492500,1.766492431640625,-0.76409912109375,-0.652008056640625,-0.002105712890625
1738772212927484400,1.776484375,-0.7641754150390625,-0.6520843505859375,-0.00335693359375
1738772212937475300,1.786475341796875,-0.76611328125,-0.6513214111328125,-0.001495361328125
1738772212947466500,1.796466552734375,-0.7648162841796875,-0.652679443359375,-0.0014801025390625
1738772212957457700,1.806457763671875,-0.76422119140625,-0.6509246826171875,-0.0015106201171875
1738772212967448600,1.816448486328125,-0.7658843994140625,-0.65118408203125,0.0000152587890625
1738772212977439500,1.826439453125,-0.763519287109375,-0.6520538330078125,-0.0017852783203125
1738772212987431400,1.836431396484375,-0.7646636962890625,-0.65234375,-0.001220703125
1738772212997422300,1.84642236328125,-0.764190673828125,-0.6510467529296875,-0.0014495849609375
1738772213007413500,1.85641357421875,-0.7643280029296875,-0.650634765625,-0.000640869140625
1738772213017404700,1.86640478515625,-0.76385498046875,-0.6515350341796875,-0.00103759765625
1738772213027395600,1.8763955078125,-0.7642822265625,-0.652191162109375,-0.00201416015625
1738772213037386500,1.886386474609375,-0.7639007568359375,-0.6505889892578125,-0.0018768310546875
1738772213047377400,1.89637744140625,-0.764801025390625,-0.6513519287109375,-0.0020904541015625
1738772213057369300,1.906369384765625,-0.764556884765625,-0.6503448486328125,-0.001312255859375
1738772213067360500,1.916360595703125,-0.7642364501953125,-0.6513671875,-0.001007080078125
1738772213077351700,1.9263515625,-0.764190673828125,-0.651580810546875,-0.0018157958984375
1738772213087342600,1.936342529296875,-0.7635955810546875,-0.6516876220703125,-0.0011138916015625
1738772213097333800,1.946333740234375,-0.7647552490234375,-0.6510772705078125,-0.001495361328125
1738772213107324700,1.95632470703125,-0.7638397216796875,-0.650787353515625,-0.0028076171875
1738772213117316600,1.966316650390625,-0.7634429931640625,-0.6513671875,-0.0016632080078125
1738772213127307800,1.976307861328125,-0.764984130859375,-0.6523590087890625,-0.0009765625
1738772213137298700,1.986298583984375,-0.76361083984375,-0.651092529296875,-0.002349853515625
1738772213147289600,1.99628955078125,-0.76446533203125,-0.650848388671875,-0.0028228759765625
1738772213157280800,2.00628076171875,-0.764617919921875,-0.652496337890625,-0.0022430419921875
1738772213167271700,2.016271728515625,-0.7636260986328125,-0.6505584716796875,-0.0009307861328125
1738772213177263600,2.026263671875,-0.7650146484375,-0.652740478515625,-0.0017242431640625
1738772213187254800,2.0362548828125,-0.7641754150390625,-0.65289306640625,-0.0023040771484375
1738772213197245700,2.04624560546875,-0.764068603515625,-0.651947021484375,-0.0015716552734375
1738772213207236600,2.056236572265625,-0.765045166015625,-0.6525726318359375,-0.0020751953125
1738772213217227800,2.066227783203125,-0.76422119140625,-0.651580810546875,-0.00103759765625
1738772213227218700,2.07621875,-0.7647705078125,-0.65020751953125,-0.0023345947265625
1738772213237209600,2.086209716796875,-0.7645263671875,-0.65057373046875,-0.0012969970703125
1738772213247201800,2.096201904296875,-0.7629852294921875,-0.6506500244140625,-0.001708984375
1738772213257192700,2.106192626953125,-0.7647552490234375,-0.652191162109375,-0.0019683837890625
1738772213267183600,2.11618359375,-0.7648468017578125,-0.6515960693359375,-0.001220703125
1738772213277174500,2.126174560546875,-0.7641143798828125,-0.6527252197265625,-0.0022125244140625
1738772213287165700,2.136165771484375,-0.7652587890625,-0.6517333984375,-0.00115966796875
1738772213297156600,2.146156494140625,-0.7636260986328125,-0.651123046875,-0.0025482177734375
1738772213307148800,2.156148681640625,-0.76397705078125,-0.6516265869140625,-0.0016937255859375
1738772213317139700,2.1661396484375,-0.763946533203125,-0.652923583984375,-0.0006256103515625
1738772213327130600,2.176130615234375,-0.7632598876953125,-0.6515045166015625,-0.003265380859375
1738772213337121500,2.18612158203125,-0.7642059326171875,-0.65203857421875,-0.002838134765625
1738772213347112700,2.19611279296875,-0.7632904052734375,-0.6505584716796875,-0.0017852783203125
1738772213357103600,2.206103515625,-0.764923095703125,-0.650054931640625,-0.0010528564453125
1738772213367095800,2.216095703125,-0.763336181640625,-0.6522216796875,-0.0025482177734375
1738772213377086700,2.226086669921875,-0.7652130126953125,-0.65179443359375,-0.0018463134765625
1738772213387077600,2.23607763671875,-0.7628631591796875,-0.6513519287109375,-0.0020751953125
1738772213397068500,2.246068603515625,-0.76324462890625,-0.651763916015625,-0.0028533935546875
1738772213407059700,2.256059814453125,-0.763885498046875,-0.6515045166015625,-0.0020599365234375
1738772213417050600,2.266050537109375,-0.7634124755859375,-0.65185546875,-0.001556396484375
1738772213427042600,2.27604248046875,-0.7649078369140625,-0.651153564453125,-0.002227783203125
1738772213437033700,2.28603369140625,-0.764617919921875,-0.6517486572265625,-0.0013580322265625
1738772213447024600,2.296024658203125,-0.7643585205078125,-0.6516571044921875,-0.0022125244140625
1738772213457015600,2.306015625,-0.763671875,-0.6510162353515625,-0.001068115234375
1738772213467006700,2.3160068359375,-0.764190673828125,-0.651153564453125,-0.00140380859375
1738772213476997600,2.32599755859375,-0.76446533203125,-0.6519012451171875,-0.0011138916015625
1738772213486988500,2.335988525390625,-0.765899658203125,-0.6513671875,-0.0015106201171875
1738772213496980700,2.345980712890625,-0.7646484375,-0.6514739990234375,-0.001953125
1738772213506971600,2.3559716796875,-0.7628936767578125,-0.6505126953125,-0.0012054443359375
1738772213516962600,2.365962646484375,-0.7646484375,-0.6516265869140625,-0.001129150390625
1738772213526953700,2.37595361328125,-0.76324462890625,-0.6519775390625,-0.0020599365234375
1738772213536944600,2.385944580078125,-0.762115478515625,-0.652099609375,-0.0023956298828125
1738772213546935600,2.395935546875,-0.7643585205078125,-0.6529388427734375,-0.0009307861328125
1738772213556927700,2.405927734375,-0.7632904052734375,-0.65179443359375,-0.0009307861328125
1738772213566918700,2.415918701171875,-0.7636871337890625,-0.6509246826171875,-0.0009307861328125
1738772213576909600,2.42590966796875,-0.7645263671875,-0.6525421142578125,-0.0009002685546875
1738772213586900500,2.435900390625,-0.7646484375,-0.650970458984375,-0.001617431640625
1738772213596891600,2.4458916015625,-0.7645416259765625,-0.651031494140625,-0.0022430419921875
1738772213606882600,2.455882568359375,-0.7649383544921875,-0.6505889892578125,-0.0020599365234375
1738772213616873500,2.46587353515625,-0.7634429931640625,-0.651214599609375,-0.0019073486328125
1738772213626865700,2.47586572265625,-0.765411376953125,-0.651123046875,-0.0011749267578125
1738772213636856600,2.485856689453125,-0.7638397216796875,-0.6522064208984375,-0.0020904541015625
1738772213646847500,2.495847412109375,-0.762451171875,-0.6516571044921875,-0.002349853515625
1738772213656838700,2.505838623046875,-0.764801025390625,-0.6514739990234375,-0.001129150390625
1738772213666829600,2.51582958984375,-0.763824462890625,-0.6503753662109375,-0.0023040771484375
1738772213676820500,2.525820556640625,-0.7646484375,-0.65216064453125,-0.0030059814453125
1738772213686812700,2.535812744140625,-0.7639312744140625,-0.6524810791015625,-0.0016937255859375
1738772213696803600,2.545803466796875,-0.7628631591796875,-0.651702880859375,-0.0014190673828125
1738772213706794500,2.55579443359375,-0.76348876953125,-0.652069091796875,-0.00152587890625
1738772213716785700,2.56578564453125,-0.7640380859375,-0.6512451171875,-0.00177001953125
1738772213726776600,2.575776611328125,-0.7633209228515625,-0.6507568359375,-0.0024871826171875
1738772213736767500,2.585767578125,-0.7632293701171875,-0.6510772705078125,-0.003570556640625
1738772213746758700,2.595758544921875,-0.763916015625,-0.6515960693359375,-0.0034637451171875
1738772213756750600,2.60575048828125,-0.764678955078125,-0.6512908935546875,-0.0018768310546875
1738772213766741500,2.615741455078125,-0.7639312744140625,-0.651580810546875,-0.0015716552734375
1738772213776732700,2.625732666015625,-0.765655517578125,-0.651031494140625,-0.00128173828125
1738772213786723600,2.6357236328125,-0.7649688720703125,-0.6512298583984375,-0.0004425048828125
1738772213796714500,2.645714599609375,-0.7645416259765625,-0.6514739990234375,-0.0028839111328125
1738772213806705400,2.655705322265625,-0.7641448974609375,-0.6521453857421875,-0.0023956298828125
1738772213816697600,2.665697509765625,-0.7629852294921875,-0.651763916015625,-0.0009613037109375
1738772213826688500,2.6756884765625,-0.764068603515625,-0.652069091796875,-0.002227783203125
1738772213836679700,2.6856796875,-0.76507568359375,-0.651153564453125,-0.0023651123046875
1738772213846670600,2.695670654296875,-0.7636566162109375,-0.651153564453125,-0.001800537109375
1738772213856661500,2.70566162109375,-0.7640838623046875,-0.6514129638671875,-0.0026092529296875
1738772213866652400,2.71565234375,-0.764678955078125,-0.6522979736328125,-0.00189208984375
1738772213876643600,2.7256435546875,-0.765625,-0.651885986328125,-0.0021820068359375
1738772213886635500,2.735635498046875,-0.764495849609375,-0.651611328125,-0.00115966796875
1738772213896626400,2.74562646484375,-0.7647247314453125,-0.6521759033203125,-0.0019989013671875
1738772213906617600,2.75561767578125,-0.764312744140625,-0.6512908935546875,-0.00225830078125
1738772213916608500,2.7656083984375,-0.764923095703125,-0.6512298583984375,-0.002471923828125
1738772213926599400,2.775599365234375,-0.7642822265625,-0.651702880859375,-0.00128173828125
1738772213936590600,2.785590576171875,-0.764129638671875,-0.651336669921875,-0.0023651123046875
1738772213946582500,2.79558251953125,-0.7624053955078125,-0.652008056640625,-0.00146484375
1738772213956573400,2.805573486328125,-0.7635345458984375,-0.6516265869140625,-0.0017852783203125
1738772213966564600,2.815564697265625,-0.7652587890625,-0.6520843505859375,-0.002227783203125
1738772213976555500,2.825555419921875,-0.7652587890625,-0.65167236328125,-0.0018157958984375
1738772213986546400,2.83554638671875,-0.763671875,-0.6519622802734375,-0.002197265625
1738772213996537600,2.84553759765625,-0.7633209228515625,-0.6508941650390625,-0.00238037109375
1738772214006528500,2.855528564453125,-0.7650909423828125,-0.6500244140625,-0.0011444091796875
1738772214016520400,2.8655205078125,-0.7638397216796875,-0.65130615234375,-0.0019683837890625
1738772214026511600,2.87551171875,-0.764862060546875,-0.652069091796875,-0.00140380859375
1738772214036502500,2.88550244140625,-0.7645721435546875,-0.6519012451171875,0.0006561279296875
1738772214046493400,2.895493408203125,-0.763824462890625,-0.65240478515625,-0.0008697509765625
1738772214056484600,2.905484619140625,-0.7650146484375,-0.6520233154296875,-0.0007476806640625
1738772214066475500,2.9154755859375,-0.7633514404296875,-0.650726318359375,-0.002227783203125
1738772214076467500,2.925467529296875,-0.76214599609375,-0.65228271484375,-0.0011138916015625
1738772214086458600,2.935458740234375,-0.7638092041015625,-0.65093994140625,-0.0030364990234375
1738772214096449500,2.945449462890625,-0.76434326171875,-0.65191650390625,-0.0024261474609375
1738772214106440400,2.9554404296875,-0.7640380859375,-0.6515045166015625,-0.0021514892578125
1738772214116431400,2.965431396484375,-0.7631072998046875,-0.6513214111328125,-0.002593994140625
1738772214126422500,2.975422607421875,-0.764892578125,-0.6505889892578125,-0.0016937255859375
1738772214136413700,2.98541357421875,-0.7642974853515625,-0.6506195068359375,0.000244140625
1738772214146405600,2.995405517578125,-0.7643585205078125,-0.6504058837890625,-0.0012969970703125
1738772214156396500,3.005396484375,-0.76361083984375,-0.6499786376953125,-0.0014190673828125
1738772214166387500,3.015387451171875,-0.7639312744140625,-0.6511077880859375,-0.002227783203125
1738772214176378400,3.02537841796875,-0.7635955810546875,-0.6513671875,-0.0020294189453125
1738772214186369500,3.03536962890625,-0.7652740478515625,-0.6514434814453125,-0.0011444091796875
1738772214196360700,3.045360595703125,-0.7636566162109375,-0.6515960693359375,-0.001220703125
1738772214206352400,3.055352294921875,-0.7642059326171875,-0.6508941650390625,-0.00164794921875
1738772214216343600,3.065343505859375,-0.764068603515625,-0.651885986328125,-0.0025482177734375
1738772214226334500,3.07533447265625,-0.7646026611328125,-0.65118408203125,-0.0014801025390625
1738772214236325400,3.085325439453125,-0.764892578125,-0.65240478515625,-0.001556396484375
1738772214246316500,3.095316650390625,-0.763580322265625,-0.65228271484375,-0.0009307861328125
1738772214256307700,3.1053076171875,-0.7627105712890625,-0.6514434814453125,-0.0029296875
1738772214266298600,3.115298583984375,-0.7630157470703125,-0.651336669921875,-0.002197265625
1738772214276290600,3.12529052734375,-0.7641448974609375,-0.650634765625,-0.000091552734375
1738772214286281500,3.135281494140625,-0.7649383544921875,-0.6512908935546875,-0.001190185546875
1738772214296272600,3.145272705078125,-0.764892578125,-0.6523284912109375,-0.0012969970703125
1738772214306263800,3.155263916015625,-0.763763427734375,-0.65045166015625,-0.002105712890625
1738772214316254700,3.165254638671875,-0.76446533203125,-0.651214599609375,-0.0012054443359375
1738772214326245600,3.17524560546875,-0.76373291015625,-0.6522369384765625,-0.0019073486328125
1738772214336236500,3.185236572265625,-0.76641845703125,-0.6524505615234375,-0.001617431640625
1738772214346228500,3.195228515625,-0.7642669677734375,-0.6520233154296875,-0.0016632080078125
1738772214356219600,3.2052197265625,-0.7628936767578125,-0.6513519287109375,-0.002197265625
1738772214366210800,3.2152109375,-0.7635498046875,-0.6510467529296875,-0.0012054443359375
1738772214376201700,3.22520166015625,-0.7632293701171875,-0.651947021484375,-0.0023651123046875
1738772214386192600,3.235192626953125,-0.7637939453125,-0.65106201171875,-0.0016937255859375
1738772214396183600,3.24518359375,-0.7645263671875,-0.6519317626953125,-0.0003814697265625
1738772214406175500,3.255175537109375,-0.76458740234375,-0.6508331298828125,-0.0012664794921875
1738772214416166700,3.265166748046875,-0.7634735107421875,-0.653045654296875,-0.001617431640625
1738772214426157600,3.275157470703125,-0.7628936767578125,-0.6510772705078125,-0.0020751953125
1738772214436148700,3.285148681640625,-0.7630157470703125,-0.6505584716796875,-0.0018310546875
1738772214446139600,3.2951396484375,-0.765625,-0.6510162353515625,-0.00048828125
1738772214456130600,3.305130615234375,-0.762969970703125,-0.6521453857421875,-0.000701904296875
1738772214466121700,3.315121826171875,-0.7647247314453125,-0.65130615234375,-0.00140380859375
1738772214476113700,3.32511376953125,-0.764007568359375,-0.651031494140625,-0.000823974609375
1738772214486104600,3.3351044921875,-0.7638092041015625,-0.6511993408203125,-0.002044677734375
1738772214496095700,3.345095703125,-0.7650146484375,-0.6517791748046875,-0.002197265625
1738772214506086700,3.355086669921875,-0.764312744140625,-0.6523590087890625,-0.0029754638671875
1738772214516077600,3.36507763671875,-0.76422119140625,-0.651641845703125,-0.00115966796875
1738772214526068700,3.37506884765625,-0.7635345458984375,-0.6507415771484375,-0.0019073486328125
1738772214536059600,3.3850595703125,-0.7640380859375,-0.6515960693359375,-0.002593994140625
1738772214546051600,3.395051513671875,-0.7631072998046875,-0.6522064208984375,-0.000579833984375
1738772214556042800,3.405042724609375,-0.7638702392578125,-0.6523284912109375,-0.0021209716796875
1738772214566033700,3.41503369140625,-0.764678955078125,-0.6507110595703125,-0.0026092529296875
1738772214576024600,3.425024658203125,-0.763824462890625,-0.650115966796875,-0.001983642578125
1738772214586015700,3.435015625,-0.7661895751953125,-0.651947021484375,-0.001312255859375
1738772214596006700,3.445006591796875,-0.7625732421875,-0.6510009765625,-0.0027313232421875
1738772214605998600,3.45499853515625,-0.76385498046875,-0.6512908935546875,-0.0018768310546875
1738772214615989800,3.46498974609375,-0.7646636962890625,-0.6511383056640625,-0.0020751953125
1738772214625980700,3.474980712890625,-0.7628631591796875,-0.6517181396484375,-0.0018157958984375
1738772214635971600,3.4849716796875,-0.7646026611328125,-0.6513214111328125,-0.0019378662109375
1738772214645962500,3.49496240234375,-0.763824462890625,-0.6512451171875,-0.001800537109375
1738772214655953700,3.50495361328125,-0.7631988525390625,-0.6511993408203125,-0.0009307861328125
1738772214665944600,3.514944580078125,-0.764251708984375,-0.651153564453125,-0.00262451171875
1738772214675936800,3.524936767578125,-0.76275634765625,-0.6518402099609375,-0.002593994140625
1738772214685927700,3.534927734375,-0.7648468017578125,-0.650360107421875,-0.0019683837890625
1738772214695918600,3.544918701171875,-0.7632904052734375,-0.6519012451171875,-0.0010223388671875
1738772214705909500,3.554909423828125,-0.7640228271484375,-0.6529693603515625,-0.0013885498046875
1738772214715900700,3.564900634765625,-0.7646331787109375,-0.650390625,-0.0011444091796875
1738772214725891600,3.5748916015625,-0.7626190185546875,-0.6512908935546875,-0.0024261474609375
1738772214735882500,3.584882568359375,-0.76397705078125,-0.6511993408203125,-0.001953125
1738772214745874700,3.594874755859375,-0.764373779296875,-0.6509857177734375,-0.000946044921875
1738772214755865600,3.604865478515625,-0.763214111328125,-0.6513824462890625,-0.001922607421875
1738772214765856500,3.6148564453125,-0.7640838623046875,-0.6512451171875,-0.00177001953125
1738772214775847700,3.62484765625,-0.76397705078125,-0.6504669189453125,-0.000762939453125
1738772214785838600,3.634838623046875,-0.763458251953125,-0.6515045166015625,-0.00115966796875
1738772214795829500,3.64482958984375,-0.763458251953125,-0.6516876220703125,-0.001800537109375
1738772214805821700,3.65482177734375,-0.7629852294921875,-0.652191162109375,-0.0014495849609375
1738772214815812600,3.6648125,-0.7627410888671875,-0.65106201171875,-0.001251220703125
1738772214825803500,3.674803466796875,-0.7625579833984375,-0.6509552001953125,-0.0017852783203125
1738772214835794700,3.684794677734375,-0.762939453125,-0.652069091796875,-0.002838134765625
1738772214845785600,3.69478564453125,-0.763519287109375,-0.6517791748046875,-0.002288818359375
1738772214855776500,3.704776611328125,-0.762908935546875,-0.650390625,-0.0030975341796875
1738772214865767400,3.714767333984375,-0.7642669677734375,-0.6516571044921875,-0.00189208984375
1738772214875759600,3.724759521484375,-0.764404296875,-0.6517181396484375,-0.0013885498046875
1738772214885750500,3.73475048828125,-0.7635345458984375,-0.65020751953125,-0.00164794921875
1738772214895741700,3.74474169921875,-0.7642059326171875,-0.651702880859375,-0.0021514892578125
1738772214905732600,3.754732666015625,-0.76507568359375,-0.65155029296875,-0.0025634765625
1738772214915723500,3.7647236328125,-0.7638397216796875,-0.651702880859375,-0.0026092529296875
1738772214925714400,3.77471435546875,-0.76483154296875,-0.651275634765625,-0.0012054443359375
1738772214935706600,3.78470654296875,-0.7625274658203125,-0.653076171875,-0.0019378662109375
1738772214945697500,3.794697509765625,-0.764190673828125,-0.65142822265625,-0.001739501953125
1738772214955688400,3.8046884765625,-0.7642974853515625,-0.6499176025390625,-0.001495361328125
1738772214965679600,3.8146796875,-0.7633819580078125,-0.6510772705078125,-0.0010223388671875
1738772214975670500,3.82467041015625,-0.7654266357421875,-0.65155029296875,-0.0019378662109375
1738772214985661400,3.834661376953125,-0.7637786865234375,-0.6515045166015625,-0.0019989013671875
1738772214995652600,3.844652587890625,-0.7642974853515625,-0.651458740234375,-0.0018768310546875
1738772215005644500,3.85464453125,-0.766387939453125,-0.651763916015625,-0.003173828125
1738772215015635500,3.864635498046875,-0.763702392578125,-0.6513671875,-0.0019073486328125
1738772215025626600,3.874626708984375,-0.7647247314453125,-0.6517486572265625,-0.0018463134765625
1738772215035617500,3.884617431640625,-0.76519775390625,-0.650238037109375,-0.0021820068359375
1738772215045608400,3.8946083984375,-0.763702392578125,-0.652252197265625,-0.001739501953125
1738772215055599600,3.904599609375,-0.7634429931640625,-0.6525421142578125,-0.0013275146484375
1738772215065590500,3.914590576171875,-0.764129638671875,-0.6520843505859375,-0.001678466796875
1738772215075583000,3.9245830078125,-0.764862060546875,-0.6510009765625,-0.0018310546875
1738772215085574000,3.934573974609375,-0.7655181884765625,-0.65167236328125,-0.00177001953125
1738772215095565000,3.94456494140625,-0.76348876953125,-0.65277099609375,-0.0013275146484375
1738772215105556000,3.954555908203125,-0.76422119140625,-0.6516571044921875,-0.001007080078125
1738772215115547000,3.964546875,-0.7648773193359375,-0.6512298583984375,-0.00115966796875
1738772215125539000,3.9745390625,-0.76300048828125,-0.651275634765625,-0.0019073486328125
1738772215135530000,3.984530029296875,-0.76458740234375,-0.6512451171875,-0.0026092529296875
1738772215145521000,3.99452099609375,-0.7652130126953125,-0.6511383056640625,-0.0013885498046875
1738772215155511800,4.00451171875,-0.7628021240234375,-0.651397705078125,-0.0023040771484375
1738772215165503000,4.0145029296875,-0.7642974853515625,-0.65234375,-0.0030364990234375
1738772215175494000,4.024493896484375,-0.76348876953125,-0.650970458984375,-0.0023956298828125
1738772215185484800,4.03448486328125,-0.7652130126953125,-0.650482177734375,-0.001312255859375
1738772215195477000,4.04447705078125,-0.7642974853515625,-0.651123046875,-0.0020599365234375
1738772215205468000,4.054468017578125,-0.7631988525390625,-0.651397705078125,-0.00250244140625
1738772215215458800,4.064458740234375,-0.765411376953125,-0.65106201171875,-0.001953125
1738772215225450000,4.074449951171875,-0.7642364501953125,-0.65167236328125,-0.0017547607421875
1738772215235441000,4.08444091796875,-0.7636871337890625,-0.651519775390625,-0.0016326904296875
1738772215245431800,4.094431884765625,-0.7639923095703125,-0.65228271484375,-0.0025482177734375
1738772215255423000,4.104423095703125,-0.7634735107421875,-0.6520538330078125,-0.001953125
1738772215265415000,4.114414794921875,-0.7655487060546875,-0.652069091796875,-0.0009002685546875
1738772215275405800,4.12440576171875,-0.7643890380859375,-0.65203857421875,-0.0009613037109375
1738772215285397000,4.13439697265625,-0.7632598876953125,-0.6516265869140625,-0.0004425048828125
1738772215295388000,4.144387939453125,-0.7646484375,-0.6517181396484375,-0.0022735595703125
1738772215305378800,4.15437890625,-0.7619171142578125,-0.6505584716796875,-0.0031890869140625
1738772215315370000,4.164369873046875,-0.76397705078125,-0.65008544921875,-0.0018157958984375
1738772215325362000,4.17436181640625,-0.7634429931640625,-0.65167236328125,-0.00177001953125
1738772215335352800,4.184352783203125,-0.7639007568359375,-0.6518402099609375,-0.00164794921875
1738772215345344000,4.194343994140625,-0.7643585205078125,-0.6521453857421875,-0.0013885498046875
1738772215355335000,4.2043349609375,-0.7640838623046875,-0.6512603759765625,-0.0024566650390625
1738772215365325800,4.214325927734375,-0.7644805908203125,-0.652008056640625,-0.0023651123046875
1738772215375316700,4.224316650390625,-0.7636566162109375,-0.651092529296875,-0.00225830078125
1738772215385308000,4.234307861328125,-0.7650299072265625,-0.6520233154296875,-0.00238037109375
1738772215395299800,4.2442998046875,-0.764068603515625,-0.6513824462890625,-0.0012664794921875
1738772215405291000,4.254291015625,-0.7648468017578125,-0.65093994140625,-0.002105712890625
1738772215415282000,4.264281982421875,-0.7644805908203125,-0.650421142578125,-0.002410888671875
1738772215425272800,4.27427294921875,-0.764007568359375,-0.65228271484375,-0.001800537109375
1738772215435264000,4.284263916015625,-0.763580322265625,-0.6519622802734375,-0.0015106201171875
1738772215445255200,4.294255126953125,-0.7647857666015625,-0.6510772705078125,-0.0022735595703125
1738772215455246000,4.30424609375,-0.7634429931640625,-0.6517333984375,-0.00146484375
1738772215465237000,4.314237060546875,-0.7647705078125,-0.6517791748046875,-0.0019683837890625
1738772215475229000,4.32422900390625,-0.7633514404296875,-0.6513671875,-0.001861572265625
1738772215485219800,4.3342197265625,-0.762481689453125,-0.6519622802734375,-0.001556396484375
1738772215495211000,4.3442109375,-0.76483154296875,-0.65228271484375,-0.0013885498046875
1738772215505202200,4.3542021484375,-0.7638397216796875,-0.653594970703125,-0.0019683837890625
1738772215515193000,4.364193115234375,-0.762725830078125,-0.6506805419921875,-0.0009613037109375
1738772215525184000,4.37418408203125,-0.7628326416015625,-0.651885986328125,-0.0015106201171875
1738772215535176000,4.384176025390625,-0.763885498046875,-0.65185546875,-0.0008697509765625
1738772215545166800,4.394166748046875,-0.765289306640625,-0.651275634765625,-0.002685546875
1738772215555158000,4.404157958984375,-0.7649078369140625,-0.6507720947265625,-0.0022735595703125
1738772215565149200,4.414149169921875,-0.76361083984375,-0.650726318359375,-0.0010528564453125
1738772215575140000,4.42414013671875,-0.7641448974609375,-0.652191162109375,-0.001373291015625
1738772215585131000,4.434131103515625,-0.7648773193359375,-0.6519775390625,-0.001922607421875
1738772215595122000,4.444121826171875,-0.763763427734375,-0.6510467529296875,-0.0015716552734375
1738772215605113900,4.45411376953125,-0.7648162841796875,-0.65087890625,-0.0011444091796875
1738772215615105000,4.46410498046875,-0.7646026611328125,-0.6519622802734375,-0.0025177001953125
1738772215625096200,4.47409619140625,-0.7625732421875,-0.65087890625,-0.0025787353515625
1738772215635087000,4.484087158203125,-0.7648773193359375,-0.652252197265625,-0.001739501953125
1738772215645078000,4.494078125,-0.7641143798828125,-0.6513519287109375,-0.0023193359375
1738772215655069000,4.50406884765625,-0.762359619140625,-0.651611328125,-0.0015716552734375
1738772215665061000,4.51406103515625,-0.7654571533203125,-0.6508636474609375,-0.000946044921875
1738772215675052000,4.524052001953125,-0.7632904052734375,-0.651641845703125,-0.0025634765625
1738772215685043000,4.53404296875,-0.7639007568359375,-0.6523590087890625,-0.001434326171875
1738772215695034000,4.5440341796875,-0.766265869140625,-0.6509857177734375,-0.0022430419921875
1738772215705025000,4.55402490234375,-0.762420654296875,-0.65155029296875,-0.0012054443359375
1738772215715016000,4.564015869140625,-0.7639312744140625,-0.65240478515625,-0.00213623046875
1738772215725007000,4.574007080078125,-0.764739990234375,-0.6510009765625,-0.0016021728515625
1738772215734999000,4.5839990234375,-0.763427734375,-0.65087890625,-0.00067138671875
1738772215744990000,4.593989990234375,-0.7649993896484375,-0.652069091796875,-0.001556396484375
1738772215754981000,4.603981201171875,-0.7640838623046875,-0.6508636474609375,-0.0023651123046875
1738772215764972000,4.613971923828125,-0.76416015625,-0.6522216796875,-0.0022125244140625
1738772215774963000,4.623962890625,-0.7653350830078125,-0.65277099609375,-0.001007080078125
1738772215784954000,4.6339541015625,-0.7630767822265625,-0.6517486572265625,0.000274658203125
1738772215794946000,4.643946044921875,-0.7646026611328125,-0.651123046875,-0.0008087158203125
1738772215804937000,4.65393701171875,-0.76373291015625,-0.6518402099609375,-0.0024261474609375
1738772215814928100,4.66392822265625,-0.762481689453125,-0.6510162353515625,-0.0010528564453125
1738772215824919000,4.6739189453125,-0.7658233642578125,-0.6512603759765625,-0.000457763671875
1738772215834910000,4.683909912109375,-0.7631378173828125,-0.6518402099609375,-0.002349853515625
1738772215844900900,4.69390087890625,-0.7623291015625,-0.6522979736328125,-0.0025634765625
1738772215854893000,4.70389306640625,-0.76617431640625,-0.651092529296875,-0.001617431640625
1738772215864884000,4.713884033203125,-0.7641143798828125,-0.6510772705078125,0.0003204345703125
1738772215874875100,4.723875244140625,-0.764312744140625,-0.651214599609375,-0.000213623046875
1738772215884866000,4.733865966796875,-0.764556884765625,-0.651031494140625,-0.0021820068359375
1738772215894857000,4.74385693359375,-0.765106201171875,-0.6528472900390625,-0.0010986328125
1738772215904848000,4.753847900390625,-0.7644805908203125,-0.6524810791015625,-0.0009613037109375
1738772215914839000,4.763839111328125,-0.7636566162109375,-0.651123046875,-0.0016326904296875
1738772215924831000,4.7738310546875,-0.76373291015625,-0.65179443359375,-0.0032958984375
1738772215934822100,4.783822265625,-0.7635650634765625,-0.652557373046875,-0.00225830078125
1738772215944813000,4.79381298828125,-0.7633514404296875,-0.651611328125,-0.0016021728515625
1738772215954804000,4.803803955078125,-0.7652130126953125,-0.6511688232421875,-0.001220703125
1738772215964795000,4.813794921875,-0.7651519775390625,-0.6509552001953125,-0.0030517578125
1738772215974786000,4.8237861328125,-0.764434814453125,-0.6518402099609375,-0.001434326171875
1738772215984778000,4.833778076171875,-0.7629852294921875,-0.6519775390625,-0.001495361328125
1738772215994769000,4.843768798828125,-0.7641448974609375,-0.6509857177734375,-0.0020599365234375
1738772216004760000,4.853760009765625,-0.763580322265625,-0.6523590087890625,-0.0012359619140625
1738772216014751000,4.8637509765625,-0.76318359375,-0.6527862548828125,-0.0011138916015625
1738772216024742000,4.873741943359375,-0.764007568359375,-0.650146484375,-0.0025482177734375
1738772216034733000,4.883733154296875,-0.7635650634765625,-0.65264892578125,-0.0025634765625
1738772216044725000,4.89372509765625,-0.7644500732421875,-0.651947021484375,-0.0019989013671875
1738772216054716000,4.9037158203125,-0.764312744140625,-0.6515960693359375,-0.0018157958984375
1738772216064707000,4.91370703125,-0.763153076171875,-0.6526947021484375,-0.0007171630859375
1738772216074698000,4.923697998046875,-0.7648162841796875,-0.6519317626953125,-0.0023193359375
1738772216084688600,4.933688720703125,-0.764739990234375,-0.65179443359375,-0.002685546875
1738772216094679600,4.943679443359375,-0.764068603515625,-0.651611328125,-0.0027618408203125
1738772216104670500,4.95367041015625,-0.766326904296875,-0.651580810546875,-0.0010528564453125
1738772216114662700,4.96366259765625,-0.7632904052734375,-0.6516876220703125,-0.001068115234375
1738772216124653600,4.973653564453125,-0.765350341796875,-0.6514892578125,-0.0023040771484375
1738772216134644500,4.98364453125,-0.7643585205078125,-0.6507415771484375,-0.00152587890625
1738772216144635600,4.9936357421875,-0.7642974853515625,-0.6526031494140625,-0.001739501953125
1738772216154626600,5.00362646484375,-0.76495361328125,-0.6503753662109375,-0.001220703125
1738772216164617500,5.013617431640625,-0.7639007568359375,-0.65020751953125,-0.0011749267578125
1738772216174609700,5.023609619140625,-0.76483154296875,-0.6503143310546875,-0.0015869140625
1738772216184600600,5.0336005859375,-0.762939453125,-0.65093994140625,-0.002716064453125
1738772216194591500,5.043591552734375,-0.7634735107421875,-0.6505584716796875,-0.0021820068359375
1738772216204582700,5.053582763671875,-0.765045166015625,-0.65093994140625,-0.0018463134765625
1738772216214573600,5.063573486328125,-0.763336181640625,-0.65179443359375,-0.0017547607421875
1738772216224564500,5.073564453125,-0.763671875,-0.6518402099609375,-0.002166748046875
1738772216234556700,5.083556640625,-0.7622528076171875,-0.6506500244140625,-0.002685546875
1738772216244547600,5.093547607421875,-0.76416015625,-0.6509857177734375,-0.001312255859375
1738772216254538500,5.10353857421875,-0.764404296875,-0.651702880859375,-0.001922607421875
1738772216264529700,5.11352978515625,-0.76287841796875,-0.6514739990234375,-0.001739501953125
1738772216274520600,5.1235205078125,-0.7647705078125,-0.651763916015625,-0.0018768310546875
1738772216284511500,5.133511474609375,-0.7625732421875,-0.651336669921875,-0.0015869140625
1738772216294502400,5.14350244140625,-0.7625274658203125,-0.6519012451171875,-0.0025177001953125
1738772216304494600,5.15349462890625,-0.7637481689453125,-0.652069091796875,-0.0032501220703125
1738772216314485500,5.163485595703125,-0.7633819580078125,-0.6511383056640625,-0.00238037109375
1738772216324476400,5.173476318359375,-0.764923095703125,-0.6522064208984375,-0.001983642578125
1738772216334467600,5.183467529296875,-0.763580322265625,-0.651611328125,-0.0006256103515625
1738772216344458500,5.19345849609375,-0.7630157470703125,-0.6516876220703125,-0.001800537109375
1738772216354449400,5.203449462890625,-0.76385498046875,-0.65057373046875,-0.0006561279296875
1738772216364441600,5.213441650390625,-0.7636871337890625,-0.6505126953125,-0.00299072265625
1738772216374432500,5.2234326171875,-0.763641357421875,-0.651397705078125,-0.0017242431640625
1738772216384423400,5.23342333984375,-0.76409912109375,-0.6510162353515625,-0.001678466796875
1738772216394414600,5.24341455078125,-0.76422119140625,-0.6517791748046875,-0.0026092529296875
1738772216404405500,5.253405517578125,-0.7653350830078125,-0.651947021484375,-0.002044677734375
1738772216414396400,5.263396484375,-0.76483154296875,-0.65087890625,-0.00274658203125
1738772216424387600,5.2733876953125,-0.76373291015625,-0.6518402099609375,-0.0018310546875
1738772216434379500,5.283379638671875,-0.7636871337890625,-0.6528778076171875,-0.001983642578125
1738772216444370400,5.293370361328125,-0.762481689453125,-0.6503448486328125,-0.001312255859375
1738772216454361600,5.303361572265625,-0.763397216796875,-0.6496429443359375,-0.0021820068359375
1738772216464352500,5.3133525390625,-0.765289306640625,-0.65069580078125,-0.0020294189453125
1738772216474343400,5.323343505859375,-0.7646331787109375,-0.650604248046875,-0.0015716552734375
1738772216484334600,5.33333447265625,-0.7649688720703125,-0.6512451171875,-0.0026702880859375
1738772216494326500,5.343326416015625,-0.7647705078125,-0.650909423828125,-0.0026702880859375
1738772216504317400,5.3533173828125,-0.7637176513671875,-0.651611328125,-0.00103759765625
1738772216514308600,5.36330859375,-0.7658233642578125,-0.6511993408203125,-0.002410888671875
1738772216524299500,5.373299560546875,-0.7636260986328125,-0.6507568359375,-0.002227783203125
1738772216534290400,5.38329052734375,-0.76275634765625,-0.651336669921875,-0.0027923583984375
1738772216544281600,5.393281494140625,-0.7639617919921875,-0.6513824462890625,-0.001708984375
1738772216554273500,5.4032734375,-0.764129638671875,-0.6509552001953125,-0.0010528564453125
1738772216564264400,5.413264404296875,-0.764556884765625,-0.6511688232421875,-0.001708984375
1738772216574255600,5.423255615234375,-0.7624969482421875,-0.6509857177734375,-0.0016632080078125
1738772216584246500,5.43324658203125,-0.7644500732421875,-0.651397705078125,-0.0003814697265625
1738772216594237400,5.443237548828125,-0.76422119140625,-0.6508331298828125,-0.00115966796875
1738772216604228600,5.453228515625,-0.7625274658203125,-0.6505889892578125,-0.0018463134765625
1738772216614219800,5.4632197265625,-0.76470947265625,-0.6517181396484375,-0.0021820068359375
1738772216624211500,5.47321142578125,-0.7636871337890625,-0.652130126953125,-0.00140380859375
1738772216634202400,5.483202392578125,-0.7628326416015625,-0.651611328125,-0.0029449462890625
1738772216644193500,5.493193603515625,-0.7635498046875,-0.6512451171875,-0.0030059814453125
1738772216654184700,5.503184814453125,-0.764007568359375,-0.6510467529296875,-0.001708984375
1738772216664175600,5.513175537109375,-0.76483154296875,-0.6512451171875,-0.000701904296875
1738772216674166800,5.523166748046875,-0.763336181640625,-0.6517333984375,-0.0019989013671875
1738772216684158500,5.533158447265625,-0.76397705078125,-0.65106201171875,-0.002166748046875
1738772216694149400,5.5431494140625,-0.76348876953125,-0.65093994140625,-0.0010833740234375
1738772216704140500,5.553140625,-0.764251708984375,-0.65106201171875,-0.00189208984375
1738772216714131700,5.563131591796875,-0.7632904052734375,-0.6521148681640625,-0.000244140625
1738772216724122600,5.57312255859375,-0.764251708984375,-0.651031494140625,-0.0022430419921875
1738772216734113800,5.58311376953125,-0.764801025390625,-0.6522979736328125,-0.00128173828125
1738772216744105500,5.59310546875,-0.7630767822265625,-0.6529998779296875,-0.0017242431640625
1738772216754096400,5.603096435546875,-0.7636871337890625,-0.65179443359375,-0.00140380859375
1738772216764087600,5.613087646484375,-0.763153076171875,-0.650665283203125,-0.0018463134765625
1738772216774078700,5.62307861328125,-0.7628936767578125,-0.6512298583984375,-0.0012969970703125
1738772216784069600,5.633069580078125,-0.76446533203125,-0.6502532958984375,-0.0012664794921875
1738772216794060800,5.643060791015625,-0.762847900390625,-0.651611328125,-0.001495361328125
1738772216804051700,5.6530517578125,-0.7625274658203125,-0.652008056640625,-0.0025787353515625
1738772216814043600,5.663043701171875,-0.764801025390625,-0.6515350341796875,-0.0023193359375
1738772216824034800,5.673034912109375,-0.7625579833984375,-0.6508331298828125,-0.001708984375
1738772216834025700,5.683025634765625,-0.7634429931640625,-0.6515960693359375,-0.0025787353515625
1738772216844016600,5.6930166015625,-0.7645721435546875,-0.651458740234375,-0.0020294189453125
1738772216854007600,5.703007568359375,-0.7637176513671875,-0.650726318359375,-0.0034942626953125
1738772216863998700,5.712998779296875,-0.7659759521484375,-0.6518707275390625,-0.00140380859375
1738772216873990700,5.72299072265625,-0.7626953125,-0.652191162109375,-0.0026397705078125
1738772216883981800,5.73298193359375,-0.7641448974609375,-0.6524505615234375,-0.0022125244140625
1738772216893972700,5.74297265625,-0.7653045654296875,-0.651153564453125,-0.003143310546875
1738772216903963600,5.752963623046875,-0.7630157470703125,-0.6514739990234375,-0.0009307861328125
1738772216913954600,5.76295458984375,-0.7648468017578125,-0.6512298583984375,-0.001129150390625
1738772216923945700,5.77294580078125,-0.76409912109375,-0.6511993408203125,-0.0024261474609375
1738772216933936600,5.7829365234375,-0.7629852294921875,-0.6515960693359375,-0.00128173828125
1738772216943928600,5.792928466796875,-0.7655792236328125,-0.65179443359375,-0.002227783203125
1738772216953919700,5.802919677734375,-0.7635040283203125,-0.6504058837890625,-0.000274658203125
1738772216963910700,5.81291064453125,-0.763427734375,-0.651123046875,-0.00140380859375
1738772216973901600,5.822901611328125,-0.76446533203125,-0.651702880859375,-0.003265380859375
1738772216983892700,5.832892822265625,-0.76483154296875,-0.652130126953125,-0.0019378662109375
1738772216993883600,5.842883544921875,-0.764312744140625,-0.651519775390625,-0.0015869140625
1738772217003875600,5.85287548828125,-0.76416015625,-0.6518096923828125,-0.0018310546875
1738772217013866800,5.86286669921875,-0.76397705078125,-0.6513824462890625,-0.0032958984375
1738772217023857700,5.872857666015625,-0.7645111083984375,-0.652740478515625,-0.00177001953125
1738772217033848600,5.8828486328125,-0.76385498046875,-0.652679443359375,-0.00091552734375
1738772217043839700,5.89283984375,-0.7647552490234375,-0.6518707275390625,-0.00177001953125
1738772217053830700,5.90283056640625,-0.7644195556640625,-0.6522674560546875,-0.002655029296875
1738772217063822600,5.912822509765625,-0.7656707763671875,-0.651275634765625,-0.0017852783203125
1738772217073813800,5.922813720703125,-0.764373779296875,-0.6512603759765625,-0.00140380859375
1738772217083804400,5.932804443359375,-0.76312255859375,-0.6514892578125,-0.00054931640625
1738772217093795600,5.942795654296875,-0.76446533203125,-0.65106201171875,-0.002197265625
1738772217103786500,5.952786376953125,-0.76275634765625,-0.6508941650390625,-0.0012969970703125
1738772217113777400,5.96277734375,-0.76190185546875,-0.6510772705078125,-0.0021820068359375
1738772217123768600,5.9727685546875,-0.7653961181640625,-0.6510467529296875,-0.002655029296875
1738772217133760500,5.982760498046875,-0.7649688720703125,-0.650909423828125,-0.002044677734375
1738772217143751400,5.99275146484375,-0.763275146484375,-0.6504058837890625,-0.0014801025390625
1738772217153742600,6.00274267578125,-0.7633819580078125,-0.6508636474609375,-0.0025634765625
1738772217163733500,6.0127333984375,-0.76409912109375,-0.6522216796875,-0.001129150390625
1738772217173724400,6.022724365234375,-0.76483154296875,-0.65203857421875,-0.0019683837890625
1738772217183715600,6.032715576171875,-0.7637176513671875,-0.6518707275390625,-0.0022430419921875
1738772217193707500,6.04270751953125,-0.7634429931640625,-0.6517486572265625,-0.0022125244140625
1738772217203698400,6.052698486328125,-0.7636260986328125,-0.65167236328125,-0.001434326171875
1738772217213689600,6.062689697265625,-0.764007568359375,-0.6526031494140625,-0.0023956298828125
1738772217223680500,6.072680419921875,-0.7644195556640625,-0.651092529296875,-0.0025482177734375
1738772217233671400,6.08267138671875,-0.76287841796875,-0.6514739990234375,-0.001708984375
1738772217243662300,6.092662353515625,-0.7639312744140625,-0.650115966796875,-0.0024871826171875
1738772217253653500,6.102653564453125,-0.763702392578125,-0.6515655517578125,-0.00054931640625
1738772217263645400,6.1126455078125,-0.763763427734375,-0.65179443359375,-0.0020751953125
1738772217273636600,6.12263671875,-0.7643890380859375,-0.6518707275390625,-0.0020599365234375
1738772217283627500,6.13262744140625,-0.7630615234375,-0.6522979736328125,-0.0004119873046875
1738772217293618400,6.142618408203125,-0.7640228271484375,-0.6526641845703125,-0.001800537109375
1738772217303609300,6.152609375,-0.7648773193359375,-0.6519775390625,-0.0018310546875
1738772217313600500,6.1626005859375,-0.7640533447265625,-0.6510162353515625,-0.0025177001953125
1738772217323592400,6.172592529296875,-0.7646331787109375,-0.651458740234375,-0.0010986328125
1738772217333583400,6.182583251953125,-0.765289306640625,-0.65087890625,-0.00189208984375
1738772217343574500,6.192574462890625,-0.7644500732421875,-0.65142822265625,-0.0019683837890625
1738772217353565400,6.2025654296875,-0.7635498046875,-0.65216064453125,-0.0015716552734375
1738772217363556400,6.212556396484375,-0.7639007568359375,-0.6510009765625,-0.00274658203125
1738772217373547500,6.222547607421875,-0.7654571533203125,-0.652069091796875,-0.001800537109375
1738772217383538400,6.232538330078125,-0.76422119140625,-0.65155029296875,-0.0020599365234375
1738772217393530400,6.2425302734375,-0.76348876953125,-0.6519012451171875,-0.0018463134765625
1738772217403521500,6.252521484375,-0.7647857666015625,-0.6525726318359375,-0.00201416015625
1738772217413512400,6.262512451171875,-0.7633514404296875,-0.6517791748046875,-0.002716064453125
1738772217423503400,6.27250341796875,-0.7643280029296875,-0.65045166015625,-0.00238037109375
1738772217433494500,6.28249462890625,-0.7623291015625,-0.6522979736328125,-0.000030517578125
1738772217443485400,6.2924853515625,-0.76397705078125,-0.6520843505859375,-0.0026702880859375
1738772217453477400,6.302477294921875,-0.7644195556640625,-0.6510162353515625,-0.001251220703125
1738772217463468500,6.312468505859375,-0.76287841796875,-0.6513519287109375,-0.0013275146484375
1738772217473459500,6.32245947265625,-0.7626953125,-0.651397705078125,-0.0005645751953125
1738772217483450400,6.332450439453125,-0.764923095703125,-0.6506500244140625,-0.0029296875
1738772217493441500,6.342441650390625,-0.76483154296875,-0.651580810546875,-0.0010833740234375
1738772217503432400,6.352432373046875,-0.7638092041015625,-0.651123046875,-0.000579833984375
1738772217513424400,6.36242431640625,-0.7641143798828125,-0.6520538330078125,-0.002288818359375
1738772217523415600,6.37241552734375,-0.7636871337890625,-0.6504364013671875,-0.001800537109375
1738772217533406500,6.382406494140625,-0.764251708984375,-0.6502227783203125,-0.0010223388671875
1738772217543397400,6.3923974609375,-0.764251708984375,-0.6508941650390625,-0.00177001953125
1738772217553388300,6.40238818359375,-0.76422119140625,-0.6511077880859375,-0.0022125244140625
1738772217563379500,6.41237939453125,-0.763336181640625,-0.6522369384765625,-0.0021820068359375
1738772217573371400,6.422371337890625,-0.76385498046875,-0.65093994140625,-0.000885009765625
1738772217583362600,6.432362548828125,-0.763824462890625,-0.6519317626953125,-0.0013275146484375
1738772217593353500,6.442353515625,-0.7642364501953125,-0.6508636474609375,-0.0019683837890625
1738772217603344400,6.452344482421875,-0.764373779296875,-0.6503753662109375,-0.0018157958984375
1738772217613335300,6.462335205078125,-0.7626800537109375,-0.6515045166015625,-0.000732421875
1738772217623326500,6.472326416015625,-0.7647705078125,-0.6504364013671875,-0.0010528564453125
1738772217633317400,6.4823173828125,-0.763336181640625,-0.6517791748046875,-0.0015716552734375
1738772217643309300,6.492309326171875,-0.764801025390625,-0.6524200439453125,-0.0013580322265625
1738772217653300500,6.502300537109375,-0.7643280029296875,-0.6529083251953125,-0.0011138916015625
1738772217663291400,6.51229150390625,-0.7632904052734375,-0.651031494140625,-0.001983642578125
1738772217673282300,6.5222822265625,-0.7644500732421875,-0.6510467529296875,-0.001434326171875
1738772217683273500,6.5322734375,-0.762908935546875,-0.6527252197265625,-0.00225830078125
1738772217693264400,6.542264404296875,-0.764984130859375,-0.65008544921875,-0.0023956298828125
1738772217703255300,6.55225537109375,-0.7642974853515625,-0.6513519287109375,-0.002227783203125
1738772217713247500,6.56224755859375,-0.764404296875,-0.6515350341796875,-0.0025787353515625
1738772217723238400,6.57223828125,-0.766204833984375,-0.6502227783203125,-0.0023651123046875
1738772217733229300,6.582229248046875,-0.76318359375,-0.6507415771484375,-0.00244140625
1738772217743220500,6.592220458984375,-0.7637481689453125,-0.652374267578125,-0.0010528564453125
1738772217753211400,6.60221142578125,-0.7649688720703125,-0.651885986328125,-0.0009307861328125
1738772217763202300,6.612202392578125,-0.7640838623046875,-0.6518707275390625,-0.001800537109375
1738772217773194500,6.622194580078125,-0.76483154296875,-0.651123046875,-0.0019989013671875
1738772217783185400,6.632185302734375,-0.7635650634765625,-0.6526641845703125,-0.0012664794921875
1738772217793176300,6.64217626953125,-0.7640838623046875,-0.6507110595703125,-0.0018157958984375
1738772217803167500,6.65216748046875,-0.7640838623046875,-0.6504669189453125,-0.0039825439453125
1738772217813158400,6.662158447265625,-0.7644195556640625,-0.652069091796875,-0.0027008056640625
1738772217823149600,6.672149658203125,-0.7622222900390625,-0.6518096923828125,-0.0013885498046875
1738772217833141500,6.6821416015625,-0.7647857666015625,-0.6514739990234375,-0.002044677734375
1738772217843132400,6.69213232421875,-0.764068603515625,-0.650848388671875,-0.0029296875
1738772217853123300,6.702123291015625,-0.7646942138671875,-0.651885986328125,-0.0023040771484375
1738772217863114200,6.7121142578125,-0.76629638671875,-0.651824951171875,-0.002227783203125
1738772217873105400,6.72210546875,-0.7633209228515625,-0.6517486572265625,-0.0010833740234375
1738772217883096600,6.7320966796875,-0.765411376953125,-0.651153564453125,-0.000762939453125
1738772217893087500,6.74208740234375,-0.762725830078125,-0.650390625,-0.002288818359375
1738772217903079400,6.752079345703125,-0.7641448974609375,-0.651397705078125,-0.0020294189453125
1738772217913070300,6.7620703125,-0.7657928466796875,-0.65216064453125,-0.000396728515625
1738772217923061200,6.772061279296875,-0.7623291015625,-0.6515655517578125,-0.002044677734375
1738772217933052400,6.782052490234375,-0.7650909423828125,-0.651123046875,-0.0023040771484375
1738772217943043600,6.792043701171875,-0.764862060546875,-0.6515045166015625,-0.0017852783203125
1738772217953034500,6.802034423828125,-0.76318359375,-0.6497039794921875,-0.002288818359375
1738772217963026400,6.8120263671875,-0.765655517578125,-0.650604248046875,-0.0003509521484375
1738772217973017300,6.822017333984375,-0.7646942138671875,-0.6512298583984375,0.000579833984375
1738772217983008500,6.832008544921875,-0.763397216796875,-0.6515350341796875,-0.001220703125
1738772217992999700,6.841999755859375,-0.76434326171875,-0.6516265869140625,-0.0031890869140625
1738772218002990600,6.851990478515625,-0.763397216796875,-0.65228271484375,-0.001617431640625
1738772218012981500,6.8619814453125,-0.7644805908203125,-0.6519927978515625,-0.0011444091796875
1738772218022973400,6.871973388671875,-0.764251708984375,-0.65228271484375,-0.0025482177734375
1738772218032964400,6.88196435546875,-0.7636260986328125,-0.650238037109375,-0.0019989013671875
1738772218042955500,6.89195556640625,-0.7642059326171875,-0.6513519287109375,-0.00067138671875
1738772218052946700,6.90194677734375,-0.7647857666015625,-0.65228271484375,-0.0019378662109375
1738772218062937600,6.9119375,-0.7652740478515625,-0.649658203125,-0.00250244140625
1738772218072928500,6.921928466796875,-0.76409912109375,-0.6515350341796875,-0.001556396484375
1738772218082920200,6.931920166015625,-0.7631988525390625,-0.6520843505859375,-0.0023345947265625
1738772218092911900,6.941911865234375,-0.76434326171875,-0.6517486572265625,-0.0021820068359375
1738772218102902800,6.95190283203125,-0.763336181640625,-0.6529541015625,-0.0021820068359375
1738772218112894000,6.96189404296875,-0.7642364501953125,-0.6509552001953125,-0.0018463134765625
1738772218122884900,6.971884765625,-0.7654876708984375,-0.6512908935546875,-0.0026397705078125
1738772218132876000,6.9818759765625,-0.7637176513671875,-0.650360107421875,-0.002960205078125
1738772218142867000,6.991866943359375,-0.7646331787109375,-0.6501312255859375,-0.002655029296875
1738772218152859000,7.00185888671875,-0.7639923095703125,-0.6505279541015625,-0.00213623046875
1738772218162849800,7.011849853515625,-0.7634735107421875,-0.6517181396484375,-0.0013885498046875
1738772218172841000,7.021841064453125,-0.7653656005859375,-0.6518402099609375,-0.00311279296875
1738772218182832000,7.03183203125,-0.7644195556640625,-0.6519622802734375,-0.0023651123046875
1738772218192823000,7.041822998046875,-0.7638092041015625,-0.6507568359375,-0.001495361328125
1738772218202814000,7.05181396484375,-0.7631072998046875,-0.652191162109375,-0.00128173828125
1738772218212805000,7.06180517578125,-0.7633514404296875,-0.6520843505859375,-0.002349853515625
1738772218222796800,7.071796875,-0.7638397216796875,-0.651336669921875,-0.0014801025390625
1738772218232788000,7.0817880859375,-0.764434814453125,-0.6521453857421875,-0.001708984375
1738772218242779100,7.091779052734375,-0.7639312744140625,-0.6519622802734375,-0.0011749267578125
1738772218252770000,7.10177001953125,-0.7648468017578125,-0.65118408203125,-0.001190185546875
1738772218262761000,7.111760986328125,-0.7629852294921875,-0.651611328125,-0.00238037109375
1738772218272752000,7.121752197265625,-0.764373779296875,-0.6507415771484375,-0.0016326904296875
1738772218282743800,7.131743896484375,-0.7642364501953125,-0.650482177734375,-0.00244140625
1738772218292735000,7.14173486328125,-0.7634124755859375,-0.6515045166015625,-0.002532958984375
1738772218302726100,7.15172607421875,-0.763671875,-0.6516571044921875,-0.002349853515625
1738772218312717000,7.161717041015625,-0.764190673828125,-0.652069091796875,-0.001220703125
1738772218322708000,7.1717080078125,-0.7634124755859375,-0.6507720947265625,-0.00286865234375
1738772218332699100,7.18169921875,-0.7637786865234375,-0.651153564453125,-0.00323486328125
1738772218342691000,7.191691162109375,-0.764312744140625,-0.6524810791015625,-0.0024871826171875
1738772218352682000,7.201681884765625,-0.764312744140625,-0.651153564453125,-0.001800537109375
1738772218362673200,7.211673095703125,-0.7637481689453125,-0.6504058837890625,-0.0023345947265625
1738772218372664000,7.2216640625,-0.7638397216796875,-0.6508331298828125,-0.001556396484375
1738772218382655000,7.231655029296875,-0.76397705078125,-0.6514892578125,-0.0015716552734375
1738772218392646100,7.241646240234375,-0.763641357421875,-0.6509246826171875,-0.0022735595703125
1738772218402637000,7.251636962890625,-0.7633209228515625,-0.65020751953125,-0.0017242431640625
1738772218412629000,7.26162890625,-0.7632904052734375,-0.6515350341796875,-0.0019378662109375
1738772218422620200,7.2716201171875,-0.76336669921875,-0.65228271484375,-0.002471923828125
1738772218432611000,7.281611083984375,-0.7637176513671875,-0.6515655517578125,-0.002349853515625
1738772218442602000,7.29160205078125,-0.7643280029296875,-0.6500396728515625,-0.001129150390625
1738772218452593000,7.301593017578125,-0.7634735107421875,-0.6522369384765625,-0.0023956298828125
1738772218462584000,7.311583984375,-0.7643890380859375,-0.6521453857421875,-0.0014801025390625
1738772218472576000,7.321575927734375,-0.7642364501953125,-0.6516265869140625,-0.00054931640625
1738772218482567200,7.331567138671875,-0.7649078369140625,-0.651123046875,-0.002410888671875
1738772218492558000,7.34155810546875,-0.7651824951171875,-0.6514434814453125,-0.002471923828125
1738772218502549000,7.351549072265625,-0.76251220703125,-0.65142822265625,-0.00189208984375
1738772218512540000,7.361539794921875,-0.7647247314453125,-0.65081787109375,-0.001495361328125
1738772218522531000,7.371531005859375,-0.763824462890625,-0.6513214111328125,-0.0020599365234375
1738772218532523000,7.38152294921875,-0.7625732421875,-0.65130615234375,-0.002227783203125
1738772218542514000,7.391513916015625,-0.7653045654296875,-0.651123046875,-0.002532958984375
1738772218552505000,7.401505126953125,-0.7645263671875,-0.6521148681640625,-0.001678466796875
1738772218562496000,7.41149609375,-0.7646942138671875,-0.65130615234375,-0.0005645751953125
1738772218572487000,7.42148681640625,-0.764190673828125,-0.65069580078125,-0.0025634765625
1738772218582478000,7.43147802734375,-0.76495361328125,-0.6513519287109375,-0.00323486328125
1738772218592469000,7.441468994140625,-0.7652435302734375,-0.6514434814453125,-0.002166748046875
1738772218602461000,7.4514609375,-0.763671875,-0.6507415771484375,-0.0014190673828125
1738772218612452000,7.4614521484375,-0.7635650634765625,-0.6504058837890625,-0.0020904541015625
1738772218622443000,7.471443115234375,-0.7650146484375,-0.6522674560546875,-0.0012359619140625
1738772218632434000,7.481433837890625,-0.763763427734375,-0.6508331298828125,-0.002410888671875
1738772218642425000,7.491425048828125,-0.763916015625,-0.65081787109375,-0.0015716552734375
1738772218652416000,7.501416015625,-0.763397216796875,-0.6506500244140625,-0.001617431640625
1738772218662408000,7.511407958984375,-0.763519287109375,-0.6516265869140625,-0.000030517578125
1738772218672399000,7.521399169921875,-0.7646331787109375,-0.6513519287109375,-0.00128173828125
1738772218682390000,7.53139013671875,-0.763275146484375,-0.651031494140625,-0.002685546875
1738772218692381000,7.541380859375,-0.7640533447265625,-0.6512603759765625,-0.0011138916015625
1738772218702372000,7.5513720703125,-0.765777587890625,-0.6533355712890625,-0.0025482177734375
1738772218712363000,7.561363037109375,-0.763916015625,-0.6519927978515625,-0.0018157958984375
1738772218722355000,7.57135498046875,-0.764129638671875,-0.6521759033203125,-0.0015869140625
1738772218732346000,7.58134619140625,-0.7631988525390625,-0.6511077880859375,-0.001922607421875
1738772218742337000,7.5913369140625,-0.7644805908203125,-0.651458740234375,-0.0037841796875
1738772218752328000,7.601327880859375,-0.7640228271484375,-0.6518402099609375,-0.00164794921875
1738772218762318800,7.61131884765625,-0.7635955810546875,-0.65179443359375,-0.0005645751953125
1738772218772310000,7.62131005859375,-0.766571044921875,-0.6522369384765625,0
1738772218782302000,7.631302001953125,-0.7652130126953125,-0.6510467529296875,-0.002105712890625
1738772218792293000,7.641293212890625,-0.7643585205078125,-0.6514129638671875,-0.002288818359375
1738772218802284000,7.651283935546875,-0.7648162841796875,-0.6519622802734375,-0.0003662109375
1738772218812275000,7.66127490234375,-0.7636871337890625,-0.65155029296875,-0.0018463134765625
1738772218822265900,7.671265869140625,-0.764923095703125,-0.6506195068359375,-0.0017852783203125
1738772218832257000,7.681257080078125,-0.76397705078125,-0.6515045166015625,-0.001312255859375
1738772218842248000,7.691248046875,-0.7638397216796875,-0.651092529296875,-0.0018310546875
1738772218852240000,7.701239990234375,-0.764007568359375,-0.6501617431640625,-0.00164794921875
1738772218862231000,7.71123095703125,-0.763336181640625,-0.6516571044921875,-0.0018768310546875
1738772218872222000,7.721221923828125,-0.7650909423828125,-0.651153564453125,-0.0023956298828125
1738772218882212900,7.731212890625,-0.7639923095703125,-0.65069580078125,-0.0014495849609375
1738772218892204000,7.7412041015625,-0.7635345458984375,-0.651214599609375,-0.0025787353515625
1738772218902195000,7.75119482421875,-0.76483154296875,-0.6526031494140625,-0.0020294189453125
1738772218912187000,7.761186767578125,-0.7628021240234375,-0.6517486572265625,-0.0019378662109375
1738772218922178000,7.771177978515625,-0.762786865234375,-0.6518707275390625,-0.0027313232421875
1738772218932169000,7.7811689453125,-0.7659912109375,-0.6512603759765625,-0.0011138916015625
1738772218942160000,7.791159912109375,-0.763671875,-0.650634765625,-0.0030517578125
1738772218952151000,7.801151123046875,-0.7633819580078125,-0.651763916015625,-0.00201416015625
1738772218962142000,7.811141845703125,-0.764404296875,-0.6514892578125,-0.00164794921875
1738772218972134000,7.8211337890625,-0.765625,-0.6515960693359375,-0.0030975341796875
1738772218982125000,7.831125,-0.76397705078125,-0.6510772705078125,-0.0019073486328125
1738772218992116000,7.841115966796875,-0.7644805908203125,-0.6514129638671875,-0.0005645751953125
1738772219002107000,7.85110693359375,-0.763275146484375,-0.6514739990234375,-0.0014801025390625
1738772219012098000,7.86109814453125,-0.7632904052734375,-0.6509857177734375,-0.0029449462890625
1738772219022089000,7.8710888671875,-0.7641448974609375,-0.6519012451171875,-0.0028533935546875
1738772219032080000,7.881079833984375,-0.76458740234375,-0.6509857177734375,-0.002105712890625
1738772219042072000,7.891072021484375,-0.7639923095703125,-0.6509246826171875,-0.0021209716796875
1738772219052063000,7.90106298828125,-0.76416015625,-0.651214599609375,-0.001312255859375
1738772219062054000,7.911053955078125,-0.7642822265625,-0.651092529296875,-0.0025177001953125
1738772219072044800,7.921044921875,-0.76458740234375,-0.6517791748046875,-0.002105712890625
1738772219082036500,7.931036376953125,-0.7626495361328125,-0.6522216796875,-0.00128173828125
1738772219092027400,7.94102734375,-0.7627410888671875,-0.65130615234375,-0.001495361328125
1738772219104517400,7.953517333984375,-0.7644805908203125,-0.6510162353515625,-0.002166748046875
1738772219114508300,7.96350830078125,-0.7644805908203125,-0.651153564453125,-0.0021514892578125
1738772219124499500,7.97349951171875,-0.7639617919921875,-0.6500701904296875,-0.001922607421875
1738772219134490400,7.983490478515625,-0.763824462890625,-0.6508331298828125,-0.0008544921875
1738772219144481500,7.9934814453125,-0.7628936767578125,-0.6510467529296875,-0.001922607421875
1738772219154472400,8.003472412109375,-0.7653656005859375,-0.6504364013671875,-0.0027923583984375
1738772219164463600,8.013463623046874,-0.763763427734375,-0.6503143310546875,-0.0019378662109375
1738772219174455300,8.023455322265624,-0.7633209228515625,-0.6512603759765625,-0.0018768310546875
1738772219184446500,8.033446533203126,-0.76434326171875,-0.6509857177734375,-0.00244140625
1738772219194437400,8.043437255859375,-0.7638702392578125,-0.6503753662109375,-0.00286865234375
1738772219204428500,8.053428466796875,-0.7651214599609375,-0.6517181396484375,-0.002044677734375
1738772219214419500,8.06341943359375,-0.762725830078125,-0.65106201171875,-0.0026397705078125
1738772219224410600,8.07341064453125,-0.7632904052734375,-0.6516265869140625,-0.0023651123046875
1738772219234402300,8.08340234375,-0.764678955078125,-0.651580810546875,-0.00225830078125
1738772219244393500,8.0933935546875,-0.76483154296875,-0.6517333984375,-0.00201416015625
1738772219254384600,8.103384521484376,-0.764556884765625,-0.6519775390625,-0.001708984375
1738772219264375600,8.11337548828125,-0.76416015625,-0.651580810546875,-0.0011444091796875
1738772219274366500,8.123366455078125,-0.7633209228515625,-0.652313232421875,-0.0014190673828125
1738772219284357600,8.133357666015625,-0.7646331787109375,-0.6509552001953125,-0.0013427734375
1738772219294349300,8.143349365234375,-0.7648773193359375,-0.6522674560546875,-0.0013275146484375
1738772219304340500,8.153340576171875,-0.7646331787109375,-0.651611328125,-0.0017852783203125
1738772219314331600,8.16333154296875,-0.763946533203125,-0.65081787109375,-0.0029144287109375
1738772219324322600,8.173322509765624,-0.7633514404296875,-0.6512451171875,-0.0026092529296875
1738772219334313500,8.1833134765625,-0.76519775390625,-0.6516571044921875,-0.0015716552734375
1738772219344304600,8.1933046875,-0.76287841796875,-0.65081787109375,-0.001312255859375
1738772219354296300,8.20329638671875,-0.7638092041015625,-0.6517791748046875,-0.0023040771484375
1738772219364287500,8.21328759765625,-0.76416015625,-0.650665283203125,-0.00164794921875
1738772219374278700,8.223278564453125,-0.7653961181640625,-0.651031494140625,-0.0023193359375
1738772219384269600,8.23326953125,-0.7635498046875,-0.6523284912109375,-0.0027618408203125
1738772219394260500,8.243260498046874,-0.7637176513671875,-0.6510162353515625,-0.0016937255859375
1738772219404251600,8.253251708984376,-0.7642669677734375,-0.6523284912109375,-0.0031585693359375
1738772219414242600,8.26324267578125,-0.7646331787109375,-0.651702880859375,-0.0012664794921875
1738772219424234500,8.273234375,-0.7630615234375,-0.6509857177734375,-0.0008697509765625
1738772219434225700,8.2832255859375,-0.7640533447265625,-0.6512451171875,-0.0005950927734375
1738772219444216600,8.293216552734375,-0.7637786865234375,-0.65228271484375,-0.002410888671875
1738772219454207500,8.30320751953125,-0.76458740234375,-0.650848388671875,-0.000701904296875
1738772219464198400,8.313198486328124,-0.76544189453125,-0.651824951171875,-0.0014801025390625
1738772219474189600,8.323189453125,-0.76470947265625,-0.6509857177734375,-0.001617431640625
1738772219484180500,8.333180419921876,-0.7636566162109375,-0.6513824462890625,-0.00177001953125
1738772219494171400,8.34317138671875,-0.7628021240234375,-0.65093994140625,-0.002471923828125
1738772219504163600,8.35316357421875,-0.7639007568359375,-0.6518096923828125,-0.0019073486328125
1738772219514154500,8.363154541015625,-0.765350341796875,-0.6512603759765625,-0.0022735595703125
1738772219524145400,8.3731455078125,-0.7642059326171875,-0.6514434814453125,-0.002227783203125
1738772219534136600,8.383136474609374,-0.7648162841796875,-0.652618408203125,-0.002777099609375
1738772219544127500,8.39312744140625,-0.7626190185546875,-0.6512908935546875,-0.0026702880859375
1738772219554118400,8.403118408203126,-0.7635955810546875,-0.650909423828125,-0.0025787353515625
1738772219564110600,8.413110595703126,-0.765411376953125,-0.6516265869140625,-0.0018463134765625
1738772219574101500,8.4231015625,-0.764373779296875,-0.6518402099609375,-0.0024261474609375
1738772219584092400,8.433092529296875,-0.7631683349609375,-0.6504058837890625,-0.0026397705078125
1738772219594083600,8.44308349609375,-0.7616729736328125,-0.6507415771484375,-0.0008544921875
1738772219604074500,8.453074462890624,-0.7642669677734375,-0.6509857177734375,-0.00250244140625
1738772219614065400,8.4630654296875,-0.764617919921875,-0.6507720947265625,-0.001739501953125
1738772219624057600,8.4730576171875,-0.763397216796875,-0.65081787109375,-0.0018157958984375
1738772219634048500,8.483048583984376,-0.7640228271484375,-0.651611328125,-0.0020904541015625
1738772219644039400,8.493039306640625,-0.7646942138671875,-0.65228271484375,-0.0012054443359375
1738772219654030600,8.503030517578125,-0.7629241943359375,-0.6523590087890625,-0.000762939453125
1738772219664021500,8.513021484375,-0.763580322265625,-0.6512451171875,-0.0019378662109375
1738772219674012400,8.523012451171875,-0.763397216796875,-0.651611328125,-0.0020751953125
1738772219684004600,8.533004638671875,-0.763885498046875,-0.6517333984375,-0.0018157958984375
1738772219693995500,8.54299560546875,-0.7639007568359375,-0.6503448486328125,-0.0020904541015625
1738772219703986400,8.552986328125,-0.763641357421875,-0.650390625,-0.00213623046875
1738772219713977600,8.5629775390625,-0.764068603515625,-0.6510467529296875,-0.00213623046875
1738772219723968500,8.572968505859375,-0.763702392578125,-0.6517181396484375,-0.0029144287109375
1738772219733959400,8.58295947265625,-0.76409912109375,-0.651275634765625,-0.0021209716796875
1738772219743951600,8.59295166015625,-0.7641143798828125,-0.6516265869140625,-0.00286865234375
1738772219753942500,8.602942626953125,-0.764404296875,-0.651580810546875,-0.003021240234375
1738772219763933400,8.612933349609374,-0.763824462890625,-0.6499481201171875,-0.0015716552734375
1738772219773924400,8.62292431640625,-0.763458251953125,-0.65142822265625,-0.001251220703125
1738772219783915500,8.63291552734375,-0.7639312744140625,-0.651336669921875,-0.003326416015625
1738772219793906400,8.642906494140625,-0.7649688720703125,-0.6516571044921875,-0.00238037109375
1738772219803897300,8.6528974609375,-0.76275634765625,-0.650390625,-0.001495361328125
1738772219813889500,8.6628896484375,-0.7638092041015625,-0.65216064453125,-0.0014495849609375
1738772219823880400,8.67288037109375,-0.764434814453125,-0.652496337890625,-0.0019683837890625
1738772219833871400,8.682871337890624,-0.7647705078125,-0.6510162353515625,-0.00189208984375
1738772219843862500,8.692862548828124,-0.7630615234375,-0.6519775390625,-0.0019989013671875
1738772219853853400,8.702853515625,-0.7628936767578125,-0.6515960693359375,-0.002532958984375
1738772219863845400,8.712845458984376,-0.763336181640625,-0.6516265869140625,-0.000274658203125
1738772219873836500,8.72283642578125,-0.763946533203125,-0.650970458984375,-0.0024566650390625
1738772219883827500,8.732827392578125,-0.764556884765625,-0.6507568359375,-0.001800537109375
1738772219893818400,8.742818359375,-0.7643585205078125,-0.653106689453125,-0.001373291015625
1738772219903809500,8.7528095703125,-0.7650604248046875,-0.6517181396484375,-0.0023956298828125
1738772219913800400,8.762800537109374,-0.7633056640625,-0.6514892578125,-0.001708984375
1738772219923791400,8.772791259765626,-0.764190673828125,-0.6512298583984375,-0.002105712890625
1738772219933783600,8.782783447265626,-0.7640228271484375,-0.65203857421875,-0.0016632080078125
1738772219943774500,8.7927744140625,-0.7639617919921875,-0.6506805419921875,-0.0009765625
1738772219953765400,8.802765380859375,-0.763427734375,-0.6506805419921875,-0.00115966796875
1738772219963756500,8.812756591796875,-0.7629852294921875,-0.6522369384765625,-0.00311279296875
1738772219973747500,8.82274755859375,-0.764495849609375,-0.6522064208984375,-0.0006866455078125
1738772219983738400,8.83273828125,-0.76397705078125,-0.6518402099609375,-0.0019989013671875
1738772219993730600,8.84273046875,-0.762664794921875,-0.6520538330078125,-0.0018463134765625
1738772220003721500,8.852721435546876,-0.763763427734375,-0.6517791748046875,-0.0011138916015625
1738772220013712400,8.86271240234375,-0.7644500732421875,-0.6529541015625,-0.001617431640625
1738772220023703600,8.87270361328125,-0.7637786865234375,-0.6517181396484375,-0.0019989013671875
1738772220033694500,8.882694580078125,-0.7642364501953125,-0.6515960693359375,-0.0019073486328125
1738772220043686400,8.892686279296875,-0.7657623291015625,-0.6519927978515625,-0.00250244140625
1738772220053677600,8.902677490234375,-0.7634124755859375,-0.651336669921875,-0.0020599365234375
1738772220063668500,8.91266845703125,-0.7645111083984375,-0.651641845703125,-0.0019378662109375
1738772220073659400,8.922659423828126,-0.7646331787109375,-0.6522369384765625,-0.0020294189453125
1738772220083649500,8.9326494140625,-0.7627105712890625,-0.6502685546875,-0.0024871826171875
1738772220093640400,8.942640380859375,-0.7632598876953125,-0.65032958984375,-0.0022430419921875
1738772220103631600,8.952631591796875,-0.76318359375,-0.652008056640625,-0.0018310546875
1738772220113623600,8.96262353515625,-0.763580322265625,-0.65130615234375,-0.00177001953125
1738772220123614500,8.972614501953124,-0.764373779296875,-0.6507110595703125,-0.00189208984375
1738772220133605600,8.982605712890624,-0.7638702392578125,-0.6522369384765625,-0.0010223388671875
1738772220143596500,8.992596435546876,-0.764129638671875,-0.6520538330078125,-0.0007476806640625
1738772220153587500,9.00258740234375,-0.7649993896484375,-0.6506500244140625,-0.003265380859375
1738772220163578600,9.01257861328125,-0.7635955810546875,-0.6521759033203125,-0.0021209716796875
1738772220173570600,9.022570556640625,-0.763397216796875,-0.6514129638671875,-0.001739501953125
1738772220183561500,9.0325615234375,-0.7633056640625,-0.650604248046875,-0.0020599365234375
1738772220193552600,9.042552734375,-0.7630462646484375,-0.6514892578125,-0.002716064453125
1738772220203543600,9.05254345703125,-0.7633056640625,-0.6520538330078125,-0.0032196044921875
1738772220213534700,9.06253466796875,-0.7628936767578125,-0.6513214111328125,-0.00262451171875
1738772220223525600,9.072525634765626,-0.763916015625,-0.652496337890625,-0.001129150390625
1738772220233517600,9.082517578125,-0.7639923095703125,-0.6519622802734375,-0.0020599365234375
1738772220243508500,9.092508544921875,-0.764984130859375,-0.65179443359375,-0.0005950927734375
1738772220253499600,9.102499755859375,-0.7641754150390625,-0.6512298583984375,-0.00115966796875
1738772220263490600,9.112490478515625,-0.763824462890625,-0.652374267578125,-0.0012969970703125
1738772220273481700,9.122481689453124,-0.76458740234375,-0.652099609375,-0.001739501953125
1738772220283472600,9.13247265625,-0.76300048828125,-0.6518096923828125,-0.003692626953125
1738772220293464600,9.142464599609376,-0.763763427734375,-0.6521453857421875,-0.0023651123046875
1738772220303455500,9.15245556640625,-0.76458740234375,-0.6512908935546875,-0.001708984375
1738772220313446400,9.1624462890625,-0.7633209228515625,-0.651092529296875,-0.00128173828125
1738772220323437600,9.1724375,-0.7644805908203125,-0.6528778076171875,-0.0019989013671875
1738772220333428700,9.1824287109375,-0.7635650634765625,-0.6522369384765625,-0.0034942626953125
1738772220343419600,9.192419677734375,-0.764892578125,-0.6509857177734375,-0.0020599365234375
1738772220353411600,9.20241162109375,-0.7648773193359375,-0.652313232421875,-0.0018463134765625
1738772220363402500,9.212402587890624,-0.7628173828125,-0.65216064453125,-0.0021514892578125
1738772220373393400,9.222393310546876,-0.7635955810546875,-0.651519775390625,-0.0011444091796875
1738772220383384800,9.232384765625,-0.7643280029296875,-0.651885986328125,-0.001434326171875
1738772220393375700,9.242375732421875,-0.7639617919921875,-0.652069091796875,-0.00250244140625
1738772220403366700,9.25236669921875,-0.765045166015625,-0.6509857177734375,-0.00140380859375
1738772220413358600,9.262358642578125,-0.76318359375,-0.65081787109375,-0.0022735595703125
1738772220423349500,9.272349609375,-0.7647705078125,-0.6521148681640625,-0.0023651123046875
1738772220433340700,9.282340576171874,-0.7641448974609375,-0.6514129638671875,-0.0013427734375
1738772220443331800,9.292331787109376,-0.7640228271484375,-0.6514739990234375,-0.0011749267578125
1738772220453322800,9.30232275390625,-0.7642974853515625,-0.6511993408203125,-0.001861572265625
1738772220463313700,9.312313720703125,-0.7636871337890625,-0.6509552001953125,-0.0023651123046875
1738772220473305600,9.3223056640625,-0.76336669921875,-0.651031494140625,-0.0021820068359375
1738772220483296500,9.332296630859375,-0.7640228271484375,-0.6520233154296875,-0.0025482177734375
1738772220493287700,9.34228759765625,-0.7630462646484375,-0.652008056640625,-0.0004425048828125
1738772220503278800,9.35227880859375,-0.7647552490234375,-0.6509246826171875,-0.0007781982421875
1738772220513269800,9.362269775390626,-0.76434326171875,-0.651824951171875,-0.0020599365234375
1738772220523260700,9.3722607421875,-0.76416015625,-0.651214599609375,-0.0014495849609375
1738772220533252600,9.382252685546876,-0.764373779296875,-0.651611328125,-0.0018463134765625
1738772220543243500,9.392243408203125,-0.763031005859375,-0.650146484375,-0.0019378662109375
1738772220553234700,9.402234619140625,-0.763580322265625,-0.6508941650390625,-0.00177001953125
1738772220563225900,9.412225830078125,-0.7638092041015625,-0.6511077880859375,-0.0013427734375
1738772220573216800,9.422216796875,-0.7626800537109375,-0.6503753662109375,-0.0009002685546875
1738772220583207700,9.432207763671874,-0.7637786865234375,-0.650604248046875,-0.002410888671875
1738772220593199600,9.44219970703125,-0.7630615234375,-0.65240478515625,-0.0009002685546875
1738772220603190800,9.452190673828126,-0.7655029296875,-0.65142822265625,-0.002166748046875
1738772220613181700,9.462181640625,-0.7633514404296875,-0.6510772705078125,-0.0020904541015625
1738772220623172600,9.472172607421875,-0.7637939453125,-0.6527252197265625,-0.0017852783203125
1738772220633163800,9.482163818359375,-0.76409912109375,-0.651031494140625,-0.002166748046875
1738772220643154700,9.49215478515625,-0.7647552490234375,-0.6504364013671875,-0.00274658203125
1738772220653145600,9.5021455078125,-0.7655181884765625,-0.6512603759765625,-0.0026092529296875
1738772220663137800,9.5121376953125,-0.7629241943359375,-0.651275634765625,-0.0008392333984375
1738772220673128700,9.522128662109376,-0.7640228271484375,-0.651153564453125,-0.0022430419921875
1738772220683119600,9.53211962890625,-0.763336181640625,-0.6501617431640625,-0.0025634765625
1738772220693110800,9.54211083984375,-0.7644195556640625,-0.6505584716796875,-0.00238037109375
1738772220703101700,9.552101806640625,-0.7646942138671875,-0.6510162353515625,-0.0014801025390625
1738772220713092600,9.562092529296875,-0.7634735107421875,-0.6517181396484375,-0.0019989013671875
1738772220723084800,9.572084716796875,-0.76434326171875,-0.6508026123046875,-0.0020751953125
1738772220733075700,9.58207568359375,-0.7662811279296875,-0.65191650390625,-0.001922607421875
1738772220743066600,9.592066650390626,-0.763214111328125,-0.652801513671875,-0.0005950927734375
1738772220753057800,9.602057861328126,-0.7635650634765625,-0.6511383056640625,-0.00189208984375
1738772220763048700,9.612048583984375,-0.7641754150390625,-0.6516571044921875,-0.001251220703125
1738772220773039600,9.62203955078125,-0.7648162841796875,-0.6512451171875,-0.0023956298828125
1738772220783031800,9.63203173828125,-0.7649078369140625,-0.6516571044921875,-0.0017852783203125
1738772220793022700,9.642022705078125,-0.763702392578125,-0.6510162353515625,-0.00140380859375
1738772220803013600,9.652013671875,-0.765594482421875,-0.650634765625,-0.001129150390625
1738772220813004800,9.6620048828125,-0.7655792236328125,-0.65203857421875,-0.0027923583984375
1738772220822995700,9.67199560546875,-0.763519287109375,-0.651641845703125,-0.001373291015625
1738772220832986600,9.681986572265625,-0.76416015625,-0.651214599609375,-0.0010833740234375
1738772220842978800,9.691978759765625,-0.7639007568359375,-0.651123046875,-0.0029144287109375
1738772220852969700,9.7019697265625,-0.764129638671875,-0.65118408203125,-0.00311279296875
1738772220862960600,9.711960693359375,-0.7646942138671875,-0.65167236328125,-0.0010223388671875
1738772220872951800,9.721951904296875,-0.7635650634765625,-0.651214599609375,-0.0012359619140625
1738772220882942700,9.731942626953124,-0.76214599609375,-0.6510162353515625,-0.002288818359375
1738772220892933600,9.74193359375,-0.763916015625,-0.652252197265625,-0.0014495849609375
1738772220902925800,9.75192578125,-0.764923095703125,-0.652801513671875,-0.000518798828125
1738772220912916700,9.761916748046875,-0.764434814453125,-0.6517333984375,-0.0016021728515625
1738772220922907600,9.77190771484375,-0.76324462890625,-0.651123046875,-0.0029144287109375
1738772220932898600,9.781898681640625,-0.7639312744140625,-0.65155029296875,-0.00189208984375
1738772220942889700,9.7918896484375,-0.7651214599609375,-0.652130126953125,-0.002593994140625
1738772220952880600,9.801880615234374,-0.7659149169921875,-0.6515960693359375,-0.0011138916015625
1738772220962872800,9.811872802734374,-0.7655181884765625,-0.6519775390625,-0.000885009765625
1738772220972863700,9.82186376953125,-0.764678955078125,-0.65185546875,-0.0010833740234375
1738772220982854700,9.831854736328125,-0.7636871337890625,-0.65142822265625,-0.00213623046875
1738772220992845600,9.841845458984375,-0.7642059326171875,-0.651702880859375,-0.0016632080078125
1738772221002836700,9.851836669921875,-0.7642669677734375,-0.651031494140625,-0.00238037109375
1738772221012827600,9.86182763671875,-0.763671875,-0.6513214111328125,-0.0011138916015625
1738772221022819600,9.871819580078125,-0.7645111083984375,-0.6516265869140625,-0.0025787353515625
1738772221032810800,9.881810791015624,-0.764251708984375,-0.65118408203125,-0.00067138671875
1738772221042801700,9.8918017578125,-0.7654266357421875,-0.650604248046875,-0.0009613037109375
1738772221052792600,9.90179248046875,-0.7642974853515625,-0.6514129638671875,-0.001190185546875
1738772221062783700,9.91178369140625,-0.76318359375,-0.650909423828125,-0.002105712890625
1738772221072774700,9.921774658203125,-0.76397705078125,-0.65118408203125,-0.00103759765625
1738772221082767000,9.93176708984375,-0.76470947265625,-0.6515350341796875,-0.001678466796875
1738772221092758000,9.941758056640625,-0.7631072998046875,-0.6511077880859375,-0.001190185546875
1738772221102749200,9.951749267578125,-0.7648162841796875,-0.650238037109375,-0.0020751953125
1738772221112740000,9.961739990234374,-0.763763427734375,-0.651092529296875,-0.001708984375
1738772221122731000,9.97173095703125,-0.76434326171875,-0.6505889892578125,-0.0012969970703125
1738772221132722000,9.981721923828125,-0.7635498046875,-0.6510009765625,-0.00030517578125
1738772221142714000,9.991714111328125,-0.7634429931640625,-0.650115966796875,-0.0011138916015625
1738772221152705000,10.001705078125,-0.7638702392578125,-0.6507720947265625,-0.001617431640625
1738772221162696200,10.0116962890625,-0.7634124755859375,-0.650054931640625,-0.00286865234375
1738772221172687000,10.02168701171875,-0.76416015625,-0.6511993408203125,-0.0023193359375
1738772221182678000,10.031677978515624,-0.7649383544921875,-0.6517333984375,-0.002349853515625
1738772221192669000,10.0416689453125,-0.7624053955078125,-0.650848388671875,-0.0017852783203125
1738772221202660000,10.05166015625,-0.7641143798828125,-0.651580810546875,-0.0020599365234375
1738772221212652000,10.061652099609375,-0.7637939453125,-0.65130615234375,-0.0017242431640625
1738772221222643000,10.071642822265625,-0.7644195556640625,-0.6511383056640625,-0.0023040771484375
1738772221232634000,10.081634033203125,-0.7640838623046875,-0.6518707275390625,-0.001220703125
1738772221242625000,10.091625,-0.7639007568359375,-0.6520843505859375,-0.0020599365234375
1738772221252616000,10.101615966796874,-0.7647705078125,-0.650604248046875,-0.0023651123046875
1738772221262607000,10.111607177734374,-0.7631988525390625,-0.6517333984375,-0.0026702880859375
1738772221272599000,10.12159912109375,-0.764404296875,-0.65081787109375,-0.0008392333984375
1738772221282590000,10.13158984375,-0.7637939453125,-0.651702880859375,-0.0022125244140625
1738772221292581000,10.1415810546875,-0.76422119140625,-0.6520843505859375,-0.00274658203125
1738772221302572000,10.151572021484375,-0.7643890380859375,-0.6523590087890625,-0.0017852783203125
1738772221312563000,10.16156298828125,-0.764007568359375,-0.6523284912109375,-0.002166748046875
1738772221322554000,10.17155419921875,-0.7638702392578125,-0.6516571044921875,-0.0012664794921875
1738772221332546000,10.181546142578124,-0.7644805908203125,-0.6518402099609375,-0.002227783203125
1738772221342537000,10.191536865234376,-0.7639617919921875,-0.651519775390625,-0.0021820068359375
1738772221352528100,10.201528076171876,-0.764007568359375,-0.651611328125,-0.0000457763671875
1738772221362519000,10.21151904296875,-0.76513671875,-0.652069091796875,-0.0018157958984375
1738772221372510000,10.221510009765625,-0.7631683349609375,-0.652008056640625,-0.0018157958984375
1738772221382501000,10.231501220703125,-0.762939453125,-0.6513214111328125,-0.0005340576171875
1738772221392493000,10.2414931640625,-0.7640228271484375,-0.651397705078125,-0.00262451171875
1738772221402484000,10.25148388671875,-0.7620849609375,-0.652740478515625,-0.0016937255859375
1738772221412475100,10.26147509765625,-0.7620697021484375,-0.6513671875,-0.0014495849609375
1738772221422466000,10.271466064453126,-0.7633819580078125,-0.65179443359375,-0.001129150390625
1738772221432457000,10.28145703125,-0.7638702392578125,-0.650604248046875,-0.003204345703125
1738772221442448000,10.29144775390625,-0.7645416259765625,-0.6519927978515625,-0.00152587890625
1738772221452440000,10.301440185546875,-0.7642974853515625,-0.6517181396484375,-0.00177001953125
1738772221462431000,10.311430908203125,-0.7631683349609375,-0.6505584716796875,-0.000274658203125
1738772221472422100,10.321422119140625,-0.7645111083984375,-0.651153564453125,-0.001190185546875
1738772221482413000,10.3314130859375,-0.76324462890625,-0.650634765625,-0.002105712890625
1738772221492404000,10.341404052734376,-0.7637786865234375,-0.6511993408203125,-0.00091552734375
1738772221502395000,10.351394775390625,-0.7653350830078125,-0.6511688232421875,-0.0017852783203125
1738772221512386000,10.361385986328125,-0.764617919921875,-0.6510162353515625,-0.001495361328125
1738772221522378000,10.3713779296875,-0.7633819580078125,-0.65185546875,-0.00140380859375
1738772221532369000,10.381368896484375,-0.764190673828125,-0.6520538330078125,-0.001312255859375
1738772221542360000,10.391360107421875,-0.763275146484375,-0.651458740234375,-0.0029296875
1738772221552351000,10.40135107421875,-0.7640838623046875,-0.6516571044921875,-0.001495361328125
1738772221562342000,10.411341796875,-0.7642669677734375,-0.650299072265625,-0.002166748046875
1738772221572333000,10.4213330078125,-0.7632293701171875,-0.6519012451171875,-0.0012969970703125
1738772221582325000,10.431324951171876,-0.763580322265625,-0.651092529296875,-0.001861572265625
1738772221592316000,10.44131591796875,-0.7637939453125,-0.6507568359375,-0.00146484375
1738772221602307000,10.45130712890625,-0.7640228271484375,-0.651275634765625,-0.0023651123046875
1738772221612298000,10.461298095703125,-0.7639312744140625,-0.6508636474609375,-0.0011444091796875
1738772221622289000,10.471288818359374,-0.7635345458984375,-0.6516265869140625,-0.00152587890625
1738772221632280000,10.481280029296874,-0.7634429931640625,-0.6517791748046875,-0.001983642578125
1738772221642272000,10.49127197265625,-0.7613677978515625,-0.6510772705078125,-0.0029144287109375
1738772221652263000,10.501262939453126,-0.7637481689453125,-0.6512603759765625,-0.0034027099609375
1738772221662254000,10.511254150390625,-0.7644195556640625,-0.6520843505859375,-0.002044677734375
1738772221672245000,10.521244873046875,-0.763916015625,-0.65130615234375,-0.001678466796875
1738772221682236000,10.53123583984375,-0.76483154296875,-0.6508026123046875,-0.0029144287109375
1738772221692227000,10.54122705078125,-0.76416015625,-0.649871826171875,-0.001678466796875
1738772221702219000,10.551218994140624,-0.7636566162109375,-0.6510009765625,-0.0009002685546875
1738772221712210000,10.5612099609375,-0.7637786865234375,-0.65283203125,-0.0026092529296875
1738772221722201000,10.571201171875,-0.76324462890625,-0.6505584716796875,-0.002227783203125
1738772221732192000,10.58119189453125,-0.7632598876953125,-0.65093994140625,-0.0002593994140625
1738772221742183000,10.591182861328125,-0.763153076171875,-0.6522064208984375,-0.001800537109375
1738772221752173800,10.601173828125,-0.764068603515625,-0.6502532958984375,-0.00299072265625
1738772221762166000,10.611166015625,-0.7653045654296875,-0.6517486572265625,-0.00238037109375
1738772221772157000,10.621156982421875,-0.7647247314453125,-0.651458740234375,-0.0018463134765625
1738772221782148000,10.631148193359374,-0.764556884765625,-0.651092529296875,-0.0023040771484375
1738772221792139000,10.641138916015626,-0.764007568359375,-0.650787353515625,-0.0018310546875
1738772221802130000,10.6511298828125,-0.763671875,-0.65045166015625,-0.0030670166015625
1738772221812120800,10.661120849609375,-0.7649078369140625,-0.6513214111328125,-0.0017242431640625
1738772221822113000,10.671113037109375,-0.7631988525390625,-0.6507415771484375,-0.0016937255859375
1738772221832104000,10.68110400390625,-0.7641143798828125,-0.6515045166015625,-0.0013427734375
1738772221842094800,10.6910947265625,-0.7642364501953125,-0.651153564453125,-0.0015716552734375
1738772221852086000,10.7010859375,-0.765350341796875,-0.6523284912109375,-0.00189208984375
1738772221862077000,10.711076904296876,-0.7641448974609375,-0.6521453857421875,-0.0008697509765625
1738772221872067800,10.72106787109375,-0.762359619140625,-0.6516571044921875,-0.0024566650390625
1738772221882059000,10.73105908203125,-0.7649688720703125,-0.651702880859375,0.0001678466796875
1738772221892051000,10.741051025390625,-0.763641357421875,-0.65142822265625,-0.0018310546875
1738772221902041900,10.751041748046875,-0.7639312744140625,-0.6511688232421875,-0.0021514892578125
1738772221912033000,10.761032958984375,-0.7630615234375,-0.652313232421875,-0.00225830078125
1738772221922024000,10.77102392578125,-0.7646026611328125,-0.6512451171875,-0.00079345703125
1738772221932014800,10.781014892578124,-0.763916015625,-0.6515960693359375,-0.0018157958984375
1738772221942006000,10.791006103515626,-0.7649993896484375,-0.6503753662109375,-0.0016021728515625
1738772221951998000,10.800998046875,-0.764984130859375,-0.6519317626953125,-0.001495361328125
1738772221961988900,10.81098876953125,-0.7644500732421875,-0.6522216796875,-0.0009918212890625
1738772221971980000,10.82097998046875,-0.76361083984375,-0.6525115966796875,-0.0012054443359375
1738772221981971000,10.830970947265625,-0.765380859375,-0.6520538330078125,-0.0013427734375
1738772221991961900,10.8409619140625,-0.76446533203125,-0.6522674560546875,-0.002166748046875
1738772222001953000,10.850953125,-0.7637786865234375,-0.651641845703125,-0.0009307861328125
1738772222011945000,10.860945068359374,-0.7640533447265625,-0.6519622802734375,-0.0014495849609375
1738772222021935900,10.870935791015626,-0.764892578125,-0.650970458984375,-0.0023345947265625
1738772222031927000,10.880927001953125,-0.764373779296875,-0.6521453857421875,-0.0012359619140625
1738772222041918000,10.89091796875,-0.76416015625,-0.65142822265625,-0.001129150390625
1738772222051908900,10.900908935546875,-0.7642059326171875,-0.6522979736328125,-0.0023040771484375
1738772222061899800,10.910899658203125,-0.7638092041015625,-0.651824951171875,-0.0011749267578125
1738772222071892000,10.92089208984375,-0.7645111083984375,-0.6517333984375,-0.0013275146484375
1738772222081882600,10.930882568359374,-0.7630615234375,-0.651397705078125,-0.002593994140625
1738772222091873500,10.94087353515625,-0.7646484375,-0.65313720703125,-0.002044677734375
1738772222101864700,10.95086474609375,-0.7635040283203125,-0.6520538330078125,-0.002227783203125
1738772222111855900,10.96085595703125,-0.7640380859375,-0.6520843505859375,-0.000946044921875
1738772222121846800,10.9708466796875,-0.7637481689453125,-0.6518096923828125,-0.00189208984375
1738772222131838700,10.980838623046875,-0.7622528076171875,-0.6508331298828125,-0.002593994140625
1738772222141829600,10.99082958984375,-0.7626800537109375,-0.6513671875,-0.0012054443359375
1738772222151820500,11.000820556640624,-0.7650146484375,-0.650909423828125,-0.001068115234375
1738772222161811700,11.010811767578126,-0.76544189453125,-0.6521759033203125,-0.0023193359375
1738772222171803000,11.020802978515626,-0.7641143798828125,-0.6511077880859375,-0.002899169921875
1738772222181793800,11.030793701171875,-0.7639923095703125,-0.651824951171875,0.0000152587890625
1738772222191785700,11.04078564453125,-0.7639007568359375,-0.6508636474609375,-0.0010528564453125
1738772222201776600,11.050776611328125,-0.763519287109375,-0.6513519287109375,-0.00335693359375
1738772222211767600,11.060767578125,-0.7660675048828125,-0.6511993408203125,-0.0011444091796875
1738772222221758700,11.0707587890625,-0.763397216796875,-0.6518096923828125,-0.000244140625
1738772222231750000,11.08075,-0.7638092041015625,-0.65081787109375,-0.0019683837890625
1738772222241740800,11.09074072265625,-0.7642059326171875,-0.652435302734375,-0.0016937255859375
1738772222251732000,11.10073193359375,-0.763031005859375,-0.6517181396484375,-0.00164794921875
1738772222261723600,11.1107236328125,-0.764984130859375,-0.6502685546875,-0.0009918212890625
1738772222271714600,11.120714599609375,-0.7646026611328125,-0.65228271484375,0.0000152587890625
1738772222281706000,11.1307060546875,-0.763214111328125,-0.6506500244140625,-0.002227783203125
1738772222291697000,11.14069677734375,-0.765472412109375,-0.6513824462890625,-0.0018310546875
1738772222301687800,11.150687744140624,-0.7642974853515625,-0.6515960693359375,-0.002685546875
1738772222311678700,11.1606787109375,-0.7639007568359375,-0.6522979736328125,-0.002288818359375
1738772222321670700,11.170670654296876,-0.7650909423828125,-0.651885986328125,-0.00262451171875
1738772222331661800,11.180661865234375,-0.76385498046875,-0.6514129638671875,-0.0013580322265625
1738772222341653000,11.190653076171875,-0.764007568359375,-0.6511383056640625,-0.001678466796875
1738772222351644000,11.200643798828125,-0.76409912109375,-0.6520843505859375,-0.000640869140625
1738772222361634800,11.210634765625,-0.7639007568359375,-0.6527252197265625,-0.001556396484375
1738772222371625700,11.220625732421874,-0.765167236328125,-0.651214599609375,-0.00128173828125
1738772222381617700,11.23061767578125,-0.7640838623046875,-0.652496337890625,-0.0015106201171875
1738772222391608800,11.24060888671875,-0.763824462890625,-0.6527557373046875,-0.0016021728515625
1738772222401599700,11.250599853515626,-0.76446533203125,-0.6507568359375,-0.001556396484375
1738772222411591000,11.2605908203125,-0.762969970703125,-0.6501922607421875,-0.0017242431640625
1738772222421581800,11.270581787109375,-0.7651214599609375,-0.6508026123046875,-0.002349853515625
1738772222431572700,11.28057275390625,-0.764495849609375,-0.6515350341796875,-0.0029754638671875
1738772222441564700,11.290564697265625,-0.76312255859375,-0.652313232421875,-0.00177001953125
1738772222451555800,11.300555908203124,-0.7637786865234375,-0.65155029296875,-0.0008697509765625
1738772222461546800,11.310546630859376,-0.764434814453125,-0.6510772705078125,-0.0016326904296875
1738772222471538000,11.320537841796876,-0.7638397216796875,-0.651336669921875,-0.0017852783203125
1738772222481528800,11.33052880859375,-0.7647552490234375,-0.65093994140625,-0.001129150390625
1738772222491519700,11.340519775390625,-0.7656097412109375,-0.6511077880859375,-0.0004119873046875
1738772222501512000,11.350511962890625,-0.763946533203125,-0.6506195068359375,-0.00177001953125
1738772222511502800,11.3605029296875,-0.7652130126953125,-0.651153564453125,-0.00274658203125
1738772222521493800,11.37049365234375,-0.7631683349609375,-0.65283203125,-0.0023651123046875
1738772222531485000,11.38048486328125,-0.764678955078125,-0.6507415771484375,-0.00274658203125
1738772222541475800,11.390475830078126,-0.764556884765625,-0.6508026123046875,-0.001983642578125
1738772222551466800,11.400466796875,-0.7628631591796875,-0.6516571044921875,-0.0008087158203125
1738772222561459000,11.410458984375,-0.7652740478515625,-0.651397705078125,-0.0015106201171875
1738772222571449900,11.420449951171875,-0.7631683349609375,-0.6517486572265625,-0.001617431640625
1738772222581440800,11.430440673828125,-0.7637481689453125,-0.6522064208984375,-0.002899169921875
1738772222591432000,11.440431884765625,-0.7642059326171875,-0.65203857421875,-0.00079345703125
1738772222601422800,11.4504228515625,-0.7627410888671875,-0.6518096923828125,-0.0014495849609375
1738772222611413800,11.460413818359376,-0.7646331787109375,-0.651275634765625,-0.0017852783203125
1738772222621406000,11.470406005859376,-0.7649078369140625,-0.6510009765625,-0.0023040771484375
1738772222631396900,11.48039697265625,-0.7634429931640625,-0.6514434814453125,-0.00201416015625
1738772222641387800,11.4903876953125,-0.7646331787109375,-0.650909423828125,-0.0024261474609375
1738772222651379000,11.50037890625,-0.7634124755859375,-0.65185546875,-0.0015869140625
1738772222661369900,11.510369873046875,-0.764251708984375,-0.6516571044921875,-0.0026092529296875
1738772222671360800,11.52036083984375,-0.7655487060546875,-0.6486968994140625,-0.0017547607421875
1738772222681351700,11.5303515625,-0.7628326416015625,-0.6514892578125,0.0001068115234375
1738772222691344000,11.54034375,-0.7659912109375,-0.6519927978515625,-0.0010223388671875
1738772222701334800,11.550334716796876,-0.76507568359375,-0.6510467529296875,-0.00146484375
1738772222711325700,11.56032568359375,-0.76165771484375,-0.651031494140625,-0.0012969970703125
1738772222721316900,11.57031689453125,-0.7639617919921875,-0.6504364013671875,-0.001190185546875
1738772222731307800,11.580307861328125,-0.7627105712890625,-0.6515655517578125,-0.0015716552734375
1738772222741298700,11.590298583984374,-0.7643890380859375,-0.6515655517578125,-0.0018463134765625
1738772222751291000,11.600290771484374,-0.76544189453125,-0.651123046875,-0.0021820068359375
1738772222761281800,11.61028173828125,-0.7648162841796875,-0.6521148681640625,-0.0010986328125
1738772222771272700,11.620272705078126,-0.76409912109375,-0.6510467529296875,-0.0019378662109375
1738772222781264000,11.630263916015625,-0.7640838623046875,-0.65142822265625,-0.00177001953125
1738772222791254800,11.6402548828125,-0.7633209228515625,-0.65118408203125,-0.0012664794921875
1738772222801245700,11.65024560546875,-0.763336181640625,-0.65216064453125,-0.0031585693359375
1738772222811238000,11.66023779296875,-0.7639617919921875,-0.6515045166015625,-0.0024566650390625
1738772222821228800,11.670228759765624,-0.7636260986328125,-0.652008056640625,-0.0024566650390625
1738772222831219700,11.6802197265625,-0.7656097412109375,-0.6513824462890625,-0.0030059814453125
1738772222841211000,11.6902109375,-0.7642669677734375,-0.6519927978515625,-0.0029296875
1738772222851201800,11.700201904296875,-0.76446533203125,-0.6517181396484375,-0.001220703125
1738772222861192700,11.710192626953125,-0.7645263671875,-0.652801513671875,-0.003143310546875
1738772222871185000,11.720184814453125,-0.76287841796875,-0.651397705078125,-0.001983642578125
1738772222881175800,11.73017578125,-0.764801025390625,-0.6523895263671875,-0.0017547607421875
1738772222891166700,11.740166748046875,-0.7629852294921875,-0.65203857421875,-0.00274658203125
1738772222901158000,11.750157958984374,-0.763885498046875,-0.6518096923828125,-0.0013275146484375
1738772222911148800,11.760148681640626,-0.7641143798828125,-0.6517791748046875,-0.001556396484375
1738772222921139700,11.7701396484375,-0.76409912109375,-0.6504974365234375,-0.002777099609375
1738772222931132000,11.7801318359375,-0.76409912109375,-0.6498870849609375,-0.0018310546875
1738772222941122800,11.790122802734375,-0.763763427734375,-0.6516876220703125,-0.0020904541015625
1738772222951113700,11.80011376953125,-0.7635040283203125,-0.6518402099609375,-0.00244140625
1738772222961105000,11.81010498046875,-0.7634124755859375,-0.6513824462890625,-0.0025634765625
1738772222971095800,11.820095703125,-0.7647705078125,-0.6512603759765625,-0.001434326171875
1738772222981086700,11.830086669921876,-0.764923095703125,-0.6504669189453125,-0.001739501953125
1738772222991077600,11.84007763671875,-0.764068603515625,-0.6506195068359375,-0.002166748046875
1738772223001069800,11.85006982421875,-0.763946533203125,-0.6517333984375,-0.001434326171875
1738772223011060700,11.860060791015625,-0.76385498046875,-0.651123046875,-0.0029296875
1738772223021051600,11.8700517578125,-0.7646942138671875,-0.65179443359375,-0.0025634765625
1738772223031042800,11.880042724609375,-0.7639923095703125,-0.6519012451171875,-0.0015869140625
1738772223041033700,11.89003369140625,-0.7639312744140625,-0.652130126953125,-0.0007781982421875
1738772223051024600,11.900024658203124,-0.764404296875,-0.6520233154296875,-0.001495361328125
1738772223061016800,11.910016845703124,-0.763427734375,-0.6512298583984375,-0.0025177001953125
1738772223071007700,11.9200078125,-0.764068603515625,-0.6516571044921875,-0.00091552734375
1738772223080998700,11.92999853515625,-0.764007568359375,-0.6515350341796875,-0.002471923828125
1738772223090990000,11.939989990234375,-0.7637176513671875,-0.6517181396484375,-0.0029296875
1738772223104728000,11.95372802734375,-0.764739990234375,-0.651611328125,-0.0027008056640625
1738772223114719000,11.963718994140624,-0.763916015625,-0.65191650390625,-0.002471923828125
1738772223124711000,11.9737109375,-0.7625274658203125,-0.65228271484375,-0.0013885498046875
1738772223134702000,11.9837021484375,-0.763916015625,-0.6506195068359375,-0.0004425048828125
1738772223144693000,11.99369287109375,-0.764801025390625,-0.6513671875,-0.002227783203125
1738772223154684200,12.00368408203125,-0.7636260986328125,-0.6516265869140625,-0.0020294189453125
1738772223164675000,12.013675048828125,-0.7646636962890625,-0.651031494140625,-0.00311279296875
1738772223174666000,12.023666015625,-0.7657318115234375,-0.6509246826171875,-0.0014801025390625
1738772223184658200,12.033658203125,-0.76397705078125,-0.651031494140625,-0.0008087158203125
1738772223194649000,12.043649169921874,-0.7639007568359375,-0.650482177734375,-0.0015411376953125
1738772223204640000,12.053639892578126,-0.7656097412109375,-0.6508331298828125,-0.0013580322265625
1738772223214631200,12.063631103515625,-0.7637176513671875,-0.6508636474609375,-0.0023345947265625
1738772223224622000,12.0736220703125,-0.7641754150390625,-0.6507568359375,-0.0016021728515625
1738772223234613000,12.083613037109375,-0.7633514404296875,-0.65093994140625,-0.0030670166015625
1738772223244605200,12.093605224609375,-0.7639617919921875,-0.6521453857421875,-0.0013885498046875
1738772223254596000,12.10359619140625,-0.7642059326171875,-0.6515655517578125,-0.002716064453125
1738772223264587000,12.1135869140625,-0.763214111328125,-0.651458740234375,-0.00091552734375
1738772223274578000,12.123577880859376,-0.7639923095703125,-0.6514129638671875,-0.00311279296875
1738772223284569000,12.133569091796875,-0.763275146484375,-0.6508941650390625,-0.0033721923828125
1738772223294560000,12.14356005859375,-0.7636566162109375,-0.650543212890625,-0.0009613037109375
1738772223304552200,12.15355224609375,-0.7655029296875,-0.6515350341796875,-0.002899169921875
1738772223314543000,12.163543212890625,-0.7625274658203125,-0.651611328125,-0.001190185546875
1738772223324534000,12.173533935546875,-0.763214111328125,-0.6512908935546875,-0.0007476806640625
1738772223334525000,12.18352490234375,-0.76287841796875,-0.650360107421875,-0.0019683837890625
1738772223344516000,12.19351611328125,-0.76318359375,-0.65167236328125,-0.0017547607421875
1738772223354507000,12.203507080078126,-0.765716552734375,-0.65142822265625,-0.001312255859375
1738772223364498000,12.213497802734375,-0.76312255859375,-0.6519775390625,-0.0020904541015625
1738772223374490000,12.223489990234375,-0.76495361328125,-0.652984619140625,-0.001556396484375
1738772223384481000,12.23348095703125,-0.7643585205078125,-0.650634765625,-0.0019683837890625
1738772223394472000,12.243471923828125,-0.7653656005859375,-0.652587890625,-0.002716064453125
1738772223404463000,12.253463134765624,-0.7653045654296875,-0.6519927978515625,-0.00250244140625
1738772223414454000,12.2634541015625,-0.764862060546875,-0.6508636474609375,-0.0013275146484375
1738772223424445000,12.27344482421875,-0.7638702392578125,-0.651092529296875,-0.0022125244140625
1738772223434437000,12.28343701171875,-0.7640380859375,-0.651947021484375,-0.0012054443359375
1738772223444428000,12.293427978515625,-0.762664794921875,-0.6516876220703125,-0.00201416015625
1738772223454419000,12.3034189453125,-0.7645721435546875,-0.650604248046875,-0.0032501220703125
1738772223464410000,12.31341015625,-0.763916015625,-0.6507415771484375,-0.0017242431640625
1738772223474401000,12.323401123046875,-0.76495361328125,-0.651336669921875,-0.0020904541015625
1738772223484392000,12.333391845703124,-0.76361083984375,-0.651153564453125,-0.0027923583984375
1738772223494382800,12.3433828125,-0.7632598876953125,-0.6516265869140625,-0.0030364990234375
1738772223504375000,12.353375,-0.764251708984375,-0.6531982421875,-0.00225830078125
1738772223514366000,12.363365966796875,-0.7655792236328125,-0.65087890625,-0.0015106201171875
1738772223524357000,12.373357177734375,-0.764251708984375,-0.65179443359375,-0.0020599365234375
1738772223534348000,12.38334814453125,-0.76287841796875,-0.6519927978515625,-0.0018157958984375
1738772223544339000,12.3933388671875,-0.764129638671875,-0.6511077880859375,-0.002410888671875
1738772223554331100,12.4033310546875,-0.764251708984375,-0.6514739990234375,-0.0018463134765625
1738772223564322000,12.413322021484374,-0.7636871337890625,-0.6526031494140625,-0.0011444091796875
1738772223574313000,12.42331298828125,-0.764190673828125,-0.6513671875,-0.0014801025390625
1738772223584303900,12.433303955078125,-0.7636566162109375,-0.652557373046875,-0.0005645751953125
1738772223594295000,12.443294921875,-0.763916015625,-0.6503448486328125,-0.002197265625
1738772223604286000,12.453285888671875,-0.763671875,-0.6517333984375,-0.0027923583984375
1738772223614278100,12.463278076171875,-0.763916015625,-0.65008544921875,-0.0016937255859375
1738772223624269000,12.47326904296875,-0.7657928466796875,-0.6506805419921875,-0.002685546875
1738772223634260000,12.483260009765624,-0.7640228271484375,-0.6514129638671875,-0.001678466796875
1738772223644251000,12.4932509765625,-0.764190673828125,-0.65252685546875,-0.001739501953125
1738772223654242000,12.503241943359376,-0.764739990234375,-0.6511383056640625,-0.0005645751953125
1738772223664233000,12.51323291015625,-0.7627105712890625,-0.6511383056640625,-0.0015716552734375
1738772223674225000,12.523224853515625,-0.76385498046875,-0.6522369384765625,-0.00140380859375
1738772223684216000,12.533216064453125,-0.7643585205078125,-0.651336669921875,-0.00152587890625
1738772223694207000,12.54320703125,-0.7641143798828125,-0.65264892578125,-0.0021820068359375
1738772223704198000,12.553197998046874,-0.7644195556640625,-0.651092529296875,-0.001373291015625
1738772223714189000,12.56318896484375,-0.76251220703125,-0.652587890625,-0.0016937255859375
1738772223724180000,12.573179931640626,-0.764801025390625,-0.65252685546875,-0.001708984375
1738772223734172000,12.583171875,-0.7655792236328125,-0.6513519287109375,-0.0022735595703125
1738772223744163000,12.5931630859375,-0.764373779296875,-0.6513671875,-0.00201416015625
1738772223754154000,12.603154052734375,-0.76580810546875,-0.651275634765625,-0.0010528564453125
1738772223764145000,12.613144775390625,-0.7635650634765625,-0.652374267578125,-0.0008087158203125
1738772223774136000,12.623135986328125,-0.76397705078125,-0.6521453857421875,-0.0028076171875
1738772223784127000,12.633126953125,-0.7636566162109375,-0.65264892578125,-0.0018157958984375
1738772223794119000,12.643118896484374,-0.7646026611328125,-0.651275634765625,-0.0035400390625
1738772223804110000,12.653110107421876,-0.765899658203125,-0.6524505615234375,-0.003326416015625
1738772223814101000,12.66310107421875,-0.7644805908203125,-0.6523895263671875,-0.0018157958984375
1738772223824092000,12.673091796875,-0.7642669677734375,-0.6493072509765625,-0.002044677734375
1738772223834083000,12.6830830078125,-0.765625,-0.6505279541015625,-0.0006866455078125
1738772223844074000,12.693073974609375,-0.76348876953125,-0.6513214111328125,-0.0020599365234375
1738772223854066000,12.70306591796875,-0.7641143798828125,-0.6516265869140625,-0.0015106201171875
1738772223864057000,12.71305712890625,-0.7647705078125,-0.6514129638671875,-0.001312255859375
1738772223874048000,12.723048095703126,-0.763671875,-0.65185546875,-0.0001678466796875
