time,seconds_elapsed,z,y,x
1738772211175285800,0.02428564453125,-0.00117761071305722,-0.00004420662298798561,0.0012719142250716686
1738772211185278000,0.03427783203125,-0.0006364563596434891,-0.0012514174450188875,-0.0002878991945181042
1738772211195268900,0.044268798828125,-0.0007696115062572062,0.000967537984251976,0.0008787040133029222
1738772211205259800,0.054259765625,0.00002001575194299221,0.0011787265539169312,0.0013703234726563096
1738772211215250700,0.064250732421875,-0.0007416153093799949,0.0009061524178832769,-0.0007474464364349842
1738772211225241900,0.074241943359375,0.0014608189230784774,0.001444643596187234,0.0007399290334433317
1738772211235232800,0.084232666015625,-0.00042850058525800705,0.00030860607512295246,-0.00012653152225539088
1738772211245223700,0.0942236328125,0.00005699368193745613,-0.0008504018187522888,0.00020263518672436476
1738772211255215900,0.1042158203125,0.0005302275530993938,0.0003084565978497267,0.0017079001991078258
1738772211265206800,0.114206787109375,-0.0009542184416204691,-0.0007773141842335463,0.00007431715494021773
1738772211275197700,0.12419775390625,0.0012969975359737873,-0.00010151136666536331,-0.0007808827795088291
1738772211285188900,0.13418896484375,-0.00194380315952003,-0.00032521667890250683,0.00021727000421378762
1738772211295179800,0.1441796875,-0.00003801891580224037,0.001103382557630539,0.0015090666711330414
1738772211305170700,0.154170654296875,-0.0002787685953080654,0.0003619585186243057,-0.00019908482499886304
1738772211315161900,0.164161865234375,-0.0007133943145163357,0.0024622848723083735,0.000008043920388445258
1738772211325153800,0.17415380859375,-0.0005876930663362145,0.0002870147582143545,0.00010498298797756433
1738772211335144700,0.184144775390625,-0.001189753762446344,0.000909334747120738,-0.00029353791614994407
1738772211345135900,0.194135986328125,0.0006536862347275019,0.00009760307148098946,0.0017017023637890816
1738772211355126800,0.204126708984375,-0.0003488200018182397,0.0003634663298726082,0.000023625732865184546
1738772211365117700,0.21411767578125,0.000044528977014124393,0.00043483916670084,0.0008366887923330069
1738772211375108900,0.22410888671875,0.0013048460241407156,-0.0005669265519827604,0.000595202436670661
1738772211385099800,0.234099853515625,-0.0013649727916345,0.0006221749354153872,-0.0005568810738623142
1738772211395091700,0.244091796875,-0.0006263272953219712,0.001375371590256691,0.00009993072308134288
1738772211405083000,0.254082763671875,0.000048251356929540634,-0.0012177482713013887,-0.0005251131951808929
1738772211415073800,0.26407373046875,0.0009565043728798628,0.00041014328598976135,0.0015134506393224
1738772211425064700,0.274064697265625,-0.001360179390758276,-0.00035258615389466286,-0.00037180117215029895
1738772211435055600,0.2840556640625,-0.00027189182583242655,0.00013734563253819942,-0.00017083249986171722
1738772211445046800,0.294046875,0.0014272049302235246,0.0014265819918364286,0.0004912293516099453
1738772211455038000,0.304037841796875,0.0008175272960215807,-0.000578627921640873,0.0008726578671485186
1738772211465030000,0.31402978515625,-0.001169190858490765,0.00001925160177052021,-0.00024054340610746294
1738772211475020800,0.324020751953125,0.0003287078579887748,-0.00030674319714307785,0.0005682199844159186
1738772211485011700,0.33401171875,0.000877052778378129,-0.00015414413064718246,-0.0009569723624736071
1738772211495002600,0.344002685546875,-0.0008913701167330146,0.00021470733918249607,-0.0002034656354226172
1738772211504993800,0.353993896484375,-0.0013433085987344384,-0.002057501580566168,0.001418932108208537
1738772211514985000,0.36398486328125,0.00022038095630705357,-0.0005272834096103907,-0.00119972531683743
1738772211524976600,0.3739765625,0.0009149335091933608,0.0004053553566336632,0.0006727432482875884
1738772211534967800,0.3839677734375,-0.0003727564471773803,0.00020883907563984394,-0.00047132623149082065
1738772211544958700,0.393958740234375,-0.001062248833477497,0.0003238879144191742,0.000825100636575371
1738772211554950000,0.403949951171875,0.000952548929490149,0.0010019517503678799,0.0003392521175555885
1738772211564941000,0.413941162109375,-0.0010813071858137846,-0.0018580170581117272,-0.0005329331615939736
1738772211574932000,0.423931884765625,0.002176232635974884,-0.0001908701378852129,0.001301066018640995
1738772211584923000,0.4339228515625,0.001872365945018828,-0.00027236295863986015,0.000554315687622875
1738772211594914800,0.443914794921875,0.0018664778908714652,-0.001020129770040512,-0.0003425197792239487
1738772211604905700,0.45390576171875,0.0009202567161992192,-0.0013905756641179323,0.0006252729217521846
1738772211614897000,0.46389697265625,0.0019814148545265198,-0.0016967076808214188,0.0012035320978611708
1738772211624888000,0.47388818359375,0.0016301439609378576,-0.0007728571072220802,0.0007681051502004266
1738772211634879000,0.48387890625,0.0006098763551563025,-0.0008093980140984058,0.0013583675026893616
1738772211644870000,0.493869873046875,0.001795515650883317,-0.0011699898168444633,-0.0003348703612573445
1738772211654861800,0.50386181640625,0.0006359429098665714,0.000014604534953832626,0.0013366886414587498
1738772211664852700,0.513852783203125,0.0017536715604364872,-0.0002767452970147133,0.00024825468426570296
1738772211674844000,0.523843994140625,0.0002998478012159467,0.00020789261907339096,0.0008194534457288682
1738772211684835000,0.5338349609375,-0.00001999794039875269,0.0005077645182609558,-0.00001944229006767273
1738772211694826000,0.543825927734375,0.00038063584361225367,-0.00031534861773252487,0.00014534352521877736
1738772211704817000,0.55381689453125,0.0005369633436203003,-0.0012586403172463179,0.0009693255415186286
1738772211714807800,0.563807861328125,0.0018183222273364663,0.0002816002815961838,-0.0002266750525450334
1738772211724799700,0.5737998046875,-0.00003603671211749315,-0.0001311895903199911,0.0011033075861632824
1738772211734791000,0.583791015625,-0.00010043219663202763,-0.00002665887586772442,-0.0005646712379530072
1738772211744781800,0.59378173828125,-0.00041228841291740537,0.0005472521297633648,-0.00019608973525464535
1738772211754773000,0.60377294921875,0.0007934187306091189,-0.00015275971964001656,-0.001241244375705719
1738772211764764000,0.613763916015625,-0.0016417758306488395,0.0012688355054706335,-0.00034216110361739993
1738772211774754800,0.6237548828125,-0.0007433514110744,-0.0006662909872829914,0.00048957479884848
1738772211784746000,0.63374609375,0.00009527802467346191,0.0008008445147424936,-0.0003804799634963274
1738772211794738000,0.643738037109375,-0.001126058166846633,0.000948592321947217,-0.0009267161367461085
1738772211804728800,0.653728759765625,0.00033468566834926605,0.0009342113044112921,-0.00011711522529367357
1738772211814720000,0.663719970703125,0.0006185570964589715,0.0004681544378399849,0.0003276718489360064
1738772211824711000,0.6737109375,0.0004782085306942463,0.00119093619287014,0.0005764110828749835
1738772211834701800,0.683701904296875,0.0014372083824127913,0.00008464115671813488,-0.0005922049167566001
1738772211844693000,0.69369287109375,0.00023345963563770056,0.0008825242985039949,-0.0004704984603449702
1738772211854684000,0.703683837890625,-0.000460853916592896,-0.0007331257220357656,0.0007978015346452594
1738772211864675800,0.71367578125,0.00031971861608326435,0.00004851212725043297,-0.0002022154221776873
1738772211874667000,0.7236669921875,0.0014973506331443787,0.0003823121078312397,-0.001415256760083139
1738772211884658000,0.733657958984375,-0.00008163752499967813,0.00004009599797427654,0.001717419596388936
1738772211894648800,0.74364892578125,-0.0021534571424126625,0.0012923721224069595,0.00004896437167190015
1738772211904639700,0.7536396484375,0.0010628426680341363,0.00026519084349274635,0.00005881807010155171
1738772211914631000,0.763630859375,0.0007954573957249522,0.000980146462097764,-0.001068945974111557
1738772211924622800,0.773622802734375,0.0009115712018683553,0.0003186170943081379,0.0010996661148965359
1738772211934614000,0.783614013671875,-0.00028142123483121395,-0.0006482386961579323,-0.00007342398021137342
1738772211944605000,0.79360498046875,-0.00024413701612502337,-0.0003600846976041794,0.0002637322177179158
1738772211954595800,0.803595947265625,0.0022723576985299587,0.0006217905320227146,-0.00010930199641734362
1738772211964586800,0.813586669921875,0.0003191954456269741,0.001067071221768856,-0.0003987876116298139
1738772211974578000,0.823577880859375,0.0014151373179629445,0.0015994897112250328,-0.0003913080145139247
1738772211984568800,0.83356884765625,0.0007336343405768275,-0.00036086305044591427,0.0014942100970074534
1738772211994561000,0.84356103515625,0.00019567483104765415,0.0006286224815994501,-0.0017826221883296967
1738772212004552000,0.853552001953125,-0.00003815069794654846,0.0010829579550772905,0.0002634845150168985
1738772212014542800,0.86354296875,0.00026333320420235395,-0.0009376280941069126,-0.0008653277764096856
1738772212024533800,0.87353369140625,-0.00011323776561766863,-0.0008010079618543386,0.0005421528476290405
1738772212034525000,0.88352490234375,0.0010132883908227086,0.0013116532936692238,0.0010068166302517056
1738772212044515800,0.893515869140625,-0.0005419977242127061,-0.00003377581015229225,-0.0009633900481276214
1738772212054507800,0.9035078125,0.0006236099870875478,0.0010008062236011028,0.0012399681145325303
1738772212064499000,0.9134990234375,0.0009304060367867351,0.0009707123972475529,-0.0000884166220203042
1738772212074489300,0.9234892578125,0.0005330147687345743,0.0004492443986237049,0.0016915714368224144
1738772212084480500,0.93348046875,0.0009479351574555039,-0.00030176714062690735,-0.00023815513122826815
1738772212094471400,0.943471435546875,0.0005558982957154512,0.000008685281500220299,0.0014264612691476941
1738772212104462300,0.95346240234375,0.0002347209956496954,-0.0008027798030525446,0.0005257802549749613
1738772212114453500,0.96345361328125,-0.00010269891936331987,0.0008146525360643864,-0.0007220206316560507
1738772212124445400,0.973445556640625,-0.00022706855088472366,0.00022183312103152275,-0.0007550438167527318
1738772212134436400,0.983436279296875,0.0026538423262536526,0.0014102042187005281,0.001050917198881507
1738772212144427500,0.993427490234375,0.001033042324706912,-0.0008332424331456423,0.0010280139977112412
1738772212154418400,1.00341845703125,0.0008184999460354447,0.002033012453466654,0.00003762650885619223
1738772212164409300,1.013409423828125,-0.0008787326514720917,0.00033125258050858974,0.00008476446964778006
1738772212174400500,1.023400390625,0.00018414703663438559,-0.00007183081470429897,-0.00023917520593386143
1738772212184391400,1.033391357421875,-0.000507742166519165,0.0003039413131773472,0.0004660298291128129
1738772212194383400,1.04338330078125,-0.0007364458870142698,0.00081436219625175,-0.000522019574418664
1738772212204374500,1.05337451171875,0.000009239185601472855,0.0005965156015008688,0.0005677459412254393
1738772212214365400,1.063365478515625,-0.0005084232543595135,0.0006354972720146179,-0.00034937821328639984
1738772212224356400,1.0733564453125,-0.00034064415376633406,-0.00001750979572534561,-0.0006891975644975901
1738772212234347500,1.083347412109375,-0.0002149062929674983,0.00021660421043634415,0.0003762260312214494
1738772212244338400,1.09333837890625,0.00007111718878149986,-0.0008590465877205133,-0.00016972199955489486
1738772212254330400,1.103330322265625,-0.0001946118427440524,0.00016584503464400768,-0.0006392607465386391
1738772212264321500,1.113321533203125,-0.0010335076367482543,0.0018937040586024523,-0.0005785406101495028
1738772212274312400,1.1233125,0.0005325975362211466,-0.00031244615092873573,-0.0006091826944611967
1738772212284303400,1.133303466796875,-0.0006828692276030779,0.0009964974597096443,0.00011413182073738426
1738772212294294300,1.143294189453125,0.0015666460385546088,0.001333592925220728,0.0011359965428709984
1738772212304285400,1.153285400390625,0.000395121518522501,-0.00018920237198472023,-0.0006653656018897891
1738772212314276400,1.1632763671875,-0.00004102010279893875,0.0008262409828603268,-0.0005372235900722444
1738772212324268500,1.1732685546875,-0.0003092004917562008,-0.00005526538006961346,0.001234577503055334
1738772212334259500,1.183259521484375,0.00006289419252425432,-0.00020015286281704903,0.0016124967951327562
1738772212344250400,1.19325048828125,-0.00015761551912873983,0.00025711185298860073,0.0007373820408247411
1738772212354241300,1.2032412109375,0.0018122292822226882,-0.00037804595194756985,0.00003117094456683844
1738772212364232400,1.213232421875,0.0013789330841973424,0.00043368549086153507,0.00030574286938644946
1738772212374223400,1.223223388671875,0.00007846660446375608,0.0004209456965327263,0.0009932999964803457
1738772212384215300,1.23321533203125,-0.001478151069022715,-0.00047201220877468586,-0.001368124969303608
1738772212394206500,1.24320654296875,0.0005481623811647296,-0.0007319827564060688,-0.000028898779419250786
1738772212404197400,1.253197265625,0.0007119468646124005,0.0005724336951971054,-0.00033889070618897676
1738772212414188300,1.263188232421875,-0.0001595818903297186,0.00018024095334112644,-0.00015906909538898617
1738772212424179500,1.273179443359375,0.0020303355995565653,-0.0008637181017547846,0.00041484212852083147
1738772212434170400,1.28317041015625,-0.00013828231021761894,0.0002916003577411175,-0.00021178547467570752
1738772212444161500,1.29316162109375,0.0001344254706054926,0.000033540185540914536,-0.0009377631358802319
1738772212454153500,1.303153564453125,0.000004161382094025612,-0.00005087465979158878,-0.00011330437700962648
1738772212464144400,1.313144287109375,0.0016555875772610307,-0.0009843125008046627,0.00014608752098865807
1738772212474135300,1.32313525390625,0.0003725868882611394,-0.00042838649824261665,-0.0007345735793933272
1738772212484126500,1.33312646484375,0.000989907537586987,0.0012794986832886934,-0.0001321665768045932
1738772212494117400,1.343117431640625,0.001511843060143292,0.0004013285506516695,0.0008307957323268056
1738772212504108500,1.353108642578125,-0.00048606027849018574,0.0004961371887475252,0.0002486287266947329
1738772212514100500,1.3631005859375,0.000024344539269804955,-0.0003388896584510803,0.0008301614434458315
1738772212524091400,1.37309130859375,0.0007575127528980374,0.0002563267480581999,0.00008873744809534401
1738772212534082300,1.383082275390625,-0.0007698081899434328,0.0006717902142554522,0.001100993133150041
1738772212544073500,1.393073486328125,-0.00003131362609565258,0.0002922897692769766,-0.00045935294474475086
1738772212554064600,1.403064697265625,0.00028100842610001564,0.0008862954564392567,0.0011741816997528076
1738772212564055600,1.4130556640625,0.00041176960803568363,0.000767784658819437,0.0013651303015649319
1738772212574046500,1.42304638671875,-0.00008210516534745693,-0.0014188550412654877,0.0008654643897898495
1738772212584038400,1.433038330078125,-0.000043755630031228065,-0.0001836807932704687,-0.0010291084181517363
1738772212594029300,1.443029296875,-0.0003456769045442343,-0.0007797018624842167,0.0009604879305697978
1738772212604020500,1.4530205078125,0.0009885666659101844,0.0016307251062244177,0.0007245318847708404
1738772212614011600,1.46301171875,0.0004965461557731032,0.000006545567885041237,0.0008603323367424309
1738772212624002600,1.47300244140625,-0.0008984175510704517,-0.0004869382828474045,-0.0005242450861260295
1738772212633993500,1.482993408203125,0.0025251973420381546,0.00029948120936751366,-0.0002946530294138938
1738772212643985400,1.4929853515625,0.0008266329532489181,0.00013889255933463573,0.000008681032340973616
1738772212653976300,1.502976318359375,0.0002813435858115554,0.00007767113856971264,0.0011918151285499334
1738772212663967500,1.512967529296875,0.0011966719757765532,-0.00032473262399435043,0.0013747743796557188
1738772212673958700,1.522958740234375,-0.000560232438147068,0.00023799436166882515,-0.0010824513155966997
1738772212683949600,1.532949462890625,0.00013538519851863384,0.0006060432642698288,0.0005993349477648735
1738772212693940500,1.5429404296875,0.000005252542905509472,0.00089995376765728,-0.00025843732873909175
1738772212703931600,1.552931640625,0.0015544132329523563,0.00118571100756526,-0.0008531211642548442
1738772212713923300,1.56292333984375,-0.0009196409955620766,0.000022057676687836647,-0.0006742475088685751
1738772212723914500,1.57291455078125,0.00013124244287610054,0.0001352420076727867,0.00034015055280178785
1738772212733905700,1.58290576171875,-0.00019047537352889776,0.00040097651071846485,-0.0001249647611984983
1738772212743896600,1.592896484375,-0.0005044620484113693,-0.0005401847884058952,-0.001225649262778461
1738772212753887500,1.602887451171875,0.00024779990781098604,0.00006819469854235649,0.001742272637784481
1738772212763878700,1.612878662109375,-0.00024089007638394833,-0.000584279652684927,0.0008804738172329962
1738772212773870600,1.62287060546875,0.0004117669304832816,-0.00036396621726453304,-0.0003962772316299379
1738772212783861500,1.632861572265625,0.0008463948033750057,0.0005500307306647301,0.0002908183087129146
1738772212793852700,1.642852783203125,-0.0005579499993473291,-0.00009726174175739288,-0.001350137172266841
1738772212803843600,1.652843505859375,-0.0013795351842418313,-0.00017422717064619064,0.00006986033986322582
1738772212813834500,1.66283447265625,-0.00035638140980154276,-0.0004498909693211317,-0.0003702064568642527
1738772212823825400,1.672825439453125,0.001377869164571166,0.0005906061269342899,0.000763767515309155
1738772212833817600,1.682817626953125,-0.0002562991576269269,0.0008661623578518629,0.0011842475505545735
1738772212843808500,1.69280859375,0.00011680973693728447,0.00037667364813387394,-0.001408339710906148
1738772212853799700,1.702799560546875,-0.0008500819676555693,0.0004165372811257839,-0.00033875604276545346
1738772212863790600,1.71279052734375,-0.00013768638018518686,0.0005920398980379105,-0.00003648726851679385
1738772212873781500,1.722781494140625,0.001079175854101777,-0.0004294465761631727,-0.00007972028106451035
1738772212883772400,1.7327724609375,-0.0006175240268930793,-0.0005572782829403877,0.0007362723117694259
1738772212893764600,1.7427646484375,0.0007646504091098905,0.0006602578796446323,0.0015298244543373585
1738772212903755500,1.752755615234375,0.0009899538708850741,0.00022616260685026646,0.00029491662280634046
1738772212913746400,1.762746337890625,0.0013080680510029197,-0.0009544556960463524,0.00027359439991414547
1738772212923737600,1.772737548828125,0.00016237609088420868,0.0011766059324145317,-0.00014798397023696452
1738772212933728500,1.782728515625,0.00025196350179612637,-0.0003268904983997345,0.0003663065726868808
1738772212943719400,1.792719482421875,0.00009643484372645617,0.00017484906129539013,0.0005884142010472715
1738772212953710600,1.802710693359375,0.001498487195931375,0.00009563728235661983,-0.0008320931810885668
1738772212963702500,1.81270263671875,-0.001681859721429646,0.00042480393312871456,0.0012427757028490305
1738772212973693400,1.822693359375,0.00045744667295366526,0.00014468375593423843,0.0004955981858074665
1738772212983684600,1.8326845703125,-0.0010538971982896328,-0.00036131683737039566,-0.001267148181796074
1738772212993675500,1.842675537109375,-0.0013732821680605412,0.0002792871091514826,-0.0006490855012089014
1738772213003666400,1.85266650390625,0.002282971516251564,0.000848937314003706,-0.0006789129110984504
1738772213013657600,1.86265771484375,-0.0009658063063398004,0.0005284766666591167,-3.493914846330881e-7
1738772213023649500,1.8726494140625,0.00004379800520837307,-0.0004414464347064495,-0.0008419082732871175
1738772213033640400,1.882640380859375,0.0013900719350203872,0.0003963191993534565,-0.000376964540919289
1738772213043631600,1.892631591796875,0.0009250842267647386,0.0006099045276641846,0.0014137448742985725
1738772213053622500,1.90262255859375,0.0012664672685787082,0.0014827034901827574,0.0020359561312943697
1738772213063613400,1.912613525390625,0.0004259735578671098,-0.000060864491388201714,-0.0005148194031789899
1738772213073604600,1.9226044921875,0.0014256950234994292,-0.0012341132387518883,0.00007851675036363304
1738772213083596800,1.9325966796875,-0.0006861916626803577,0.00012223469093441963,-0.0008418717188760638
1738772213093587700,1.942587646484375,0.00035401363857090473,0.001031913561746478,0.00034445803612470627
1738772213103578600,1.95257861328125,0.0016112920129671693,-0.00011937087401747704,0.00043154344893991947
1738772213113569500,1.962569580078125,-0.00032856198959052563,-0.0010006474331021309,-0.00019967554544564337
1738772213123560700,1.972560791015625,0.0004453526344150305,0.0001218749675899744,-0.0007046108948998153
1738772213133551600,1.982551513671875,-0.0004267615149728954,0.0007970086298882961,0.00024147680960595608
1738772213143542500,1.99254248046875,0.00034795200917869806,0.000829499214887619,-0.0012288544094190001
1738772213153534700,2.00253466796875,0.001826498075388372,0.0020448530558496714,0.001091717858798802
1738772213163525600,2.012525634765625,-0.00043266144348308444,0.0011090182233601809,-0.0001490488211857155
1738772213173516500,2.0225166015625,-0.00006296474020928144,-0.0005378576461225748,0.0007873914437368512
1738772213183507700,2.0325078125,-0.0009521942120045424,0.0013860100880265236,-0.00014711174299009144
1738772213193498600,2.04249853515625,-0.001289274194277823,-0.0010712041985243559,-0.00144807412289083
1738772213203489500,2.052489501953125,-0.0010397359728813171,-0.0010517630726099014,0.00022732041543349624
1738772213213481700,2.062481689453125,-0.00031615537591278553,0.00015158019959926605,-0.0007427725940942764
1738772213223472600,2.07247265625,0.0005104898009449244,-0.0006945061031728983,0.0009094525594264269
1738772213233463600,2.082463623046875,-0.0002913289936259389,0.0003238222561776638,-0.001101393485441804
1738772213243454700,2.092454833984375,0.001150772674009204,-0.00040721544064581394,-0.001720578409731388
1738772213253445600,2.102445556640625,-0.0010929983109235764,-0.0009489953517913818,-0.00009311812755186111
1738772213263436500,2.1124365234375,0.000609294162131846,-0.0015069276560097933,-0.0010899393819272518
1738772213273428700,2.1224287109375,0.00032563041895627975,0.0003590867854654789,0.0004644478904083371
1738772213283419600,2.132419677734375,0.002574136946350336,-0.0007168303709477186,-0.000021312676835805178
1738772213293410600,2.14241064453125,-0.0009823947912082076,0.00008850055746734142,0.0012406387832015753
1738772213303401700,2.152401611328125,-0.000998373725451529,0.0005409717559814453,0.00019295117817819118
1738772213313392600,2.162392578125,-0.0013985821278765798,-0.0007934828754514456,0.00036776496563106775
1738772213323383600,2.172383544921875,-0.00026301026809960604,-0.00004353676922619343,-0.0009603534708730876
1738772213333375700,2.182375732421875,-0.0001165090361610055,-0.0009037812706083059,0.0000994405709207058
1738772213343366700,2.19236669921875,0.0018827260937541723,-0.00027048145420849323,-0.0007173509220592678
1738772213353357600,2.202357666015625,-0.000038392841815948486,-0.0002699925098568201,-0.0010234084911644459
1738772213363348500,2.212348388671875,-0.0009611781570129097,0.0005254936404526234,0.00043280806858092546
1738772213373339600,2.222339599609375,0.0004994198679924011,-0.0017138991970568895,0.001016444992274046
1738772213383330600,2.23233056640625,-0.00017941987607628107,-0.00026327534578740597,0.00022548611741513014
1738772213393321500,2.242321533203125,0.000044151791371405125,-0.0003089883830398321,-0.00016961805522441864
1738772213403313700,2.252313720703125,0.0003344364231452346,-0.00036065373569726944,0.002184616168960929
1738772213413304600,2.2623046875,0.00008050061296671629,0.0003638432826846838,0.00014342580107040703
1738772213423295500,2.27229541015625,0.00023443135432898998,0.0015199214685708284,-0.0004232948995195329
1738772213433286700,2.28228662109375,0.0013145481934770942,0.0006663070525974035,0.0011231560492888093
1738772213443277600,2.292277587890625,-0.00006203982047736645,0.00003833393566310406,0.0001500369398854673
1738772213453268500,2.3022685546875,0.00204584002494812,-0.0005589406937360764,0.0010488524567335844
1738772213463260700,2.3122607421875,0.0005837645148858428,-0.0014425774570554495,0.0013790845405310392
1738772213473251600,2.32225146484375,0.00007022882346063852,0.000019752420485019684,-0.000031223418773151934
1738772213483242500,2.332242431640625,-0.0014094235375523567,0.0005723584908992052,0.0008321733912453055
1738772213493233700,2.342233642578125,-0.0009184184018522501,0.0004545794799923897,0.0017258641310036182
1738772213503224600,2.352224609375,0.0001745428889989853,-0.0008429123554378748,0.000011054682545363903
1738772213513215500,2.362215576171875,-0.00003757223021239042,0.0007361422758549452,-0.0007847548113204539
1738772213523206400,2.372206298828125,0.001707330928184092,-0.00026680435985326767,0.0009156735031865537
1738772213533198600,2.382198486328125,0.0005250325193628669,-0.00045060552656650543,0.0015929504297673702
1738772213543189500,2.392189453125,0.0003450028598308563,-0.0007089320570230484,0.0006094450363889337
1738772213553180700,2.4021806640625,-0.00023669179063290358,-0.0006057166028767824,0.0007914446759968996
1738772213563171600,2.412171630859375,0.00029114680364727974,0.00012958236038684845,0.0006148770917207003
1738772213573162500,2.42216259765625,-0.0013863929780200124,-0.0001866586972028017,0.00027975800912827253
1738772213583153400,2.4321533203125,-0.000424459227360785,0.0016503897495567799,-0.0009631392313167453
1738772213593145600,2.4421455078125,0.0014840736985206604,-0.0003680111840367317,-0.00023965256696101278
1738772213603136500,2.452136474609375,-0.00021741993259638548,0.00014917459338903427,-0.0006676225457340479
1738772213613127700,2.462127685546875,-0.0003028186038136482,-0.00015920237638056278,0.0006638088962063193
1738772213623118600,2.47211865234375,0.0009203713852912188,0.00043867737986147404,0.0007964342948980629
1738772213633109500,2.482109619140625,-0.0013975895708426833,-0.0005210933741182089,0.0006437959964387119
1738772213643100400,2.492100341796875,0.0007478530751541257,-0.0011288267560303211,-0.0016188255976885557
1738772213653091600,2.502091552734375,0.0011395480250939727,-0.0006566769443452358,0.00010751531226560473
1738772213663083500,2.51208349609375,0.0008061201078817248,-0.0008132706861943007,-0.0023266139905899763
1738772213673074400,2.522074462890625,0.0003535113064572215,0.00005962885916233063,0.0008888125885277987
1738772213683065600,2.532065673828125,-0.0008845923002809286,0.00001994776539504528,0.0009306241990998387
1738772213693056500,2.542056396484375,-0.0011732429265975952,-0.0007983462419360876,-0.0015524352202191949
1738772213703047400,2.55204736328125,0.00029735465068370104,0.0010293812956660986,-0.002042989479377866
1738772213713038600,2.56203857421875,-0.001436195452697575,0.0010982875246554613,-0.0006219195201992989
1738772213723030500,2.572030517578125,-0.0011754720471799374,-0.00031505199149250984,-0.00025466966326348484
1738772213733021400,2.582021484375,-0.00022087246179580688,-0.0007378149311989546,-0.000018183040083386004
1738772213743012600,2.5920126953125,0.00009524472989141941,0.0010238660033792257,0.00012216554023325443
1738772213753003500,2.60200341796875,0.0008032671175897121,0.000332200201228261,0.0002878071682062
1738772213762994400,2.611994384765625,0.0005595877300947905,-0.00074158632196486,-0.00016519651398994029
1738772213772985600,2.621985595703125,0.000756831606850028,-0.0005604790057986975,-0.00034090422559529543
1738772213782977500,2.6319775390625,0.0005911828484386206,-0.00015487940981984138,0.00003220465441700071
1738772213792968400,2.641968505859375,-0.00005695957224816084,-0.0007118403445929289,-0.0010992762399837375
1738772213802959600,2.651959716796875,-0.0006596329039894044,0.00021174410358071327,0.0006360395345836878
1738772213812950500,2.661950439453125,-0.0003476564306765795,-0.0006043859757483006,0.0015725850826129317
1738772213822941400,2.67194140625,0.00032852019648998976,-0.0011537959799170494,0.0008098556427285075
1738772213832932400,2.681932373046875,-0.0005366049008443952,-0.00032872753217816353,0.00020404963288456202
1738772213842923500,2.691923583984375,0.0005092185456305742,-0.000049095600843429565,0.00014838954666629434
1738772213852915500,2.70191552734375,-0.0012325544375926256,-0.0013340271543711424,0.0003751154290512204
1738772213862906600,2.71190673828125,0.0011070326436311007,-0.0008807573467493057,-0.0018422325374558568
1738772213872897500,2.7218974609375,-0.0020981887355446815,0.0008560456335544586,0.00018581710173748434
1738772213882888400,2.731888427734375,-0.00034929101821035147,-0.0005836591590195894,0.000041473773308098316
1738772213892879400,2.74187939453125,0.00039904704317450523,-0.0025010760873556137,-0.00023548962781205773
1738772213902870500,2.75187060546875,-0.0007421175250783563,-0.000279467087239027,-0.000738827046006918
1738772213912861700,2.76186181640625,-0.0002747161779552698,-0.0011656780261546373,-0.0005934040527790785
1738772213922853600,2.771853515625,0.0008086578454822302,-0.0011776622850447893,0.00037412234814837575
1738772213932844500,2.781844482421875,-0.0010407736990600824,-0.000525215407833457,-0.0004177254159003496
1738772213942835500,2.79183544921875,0.0010564655531197786,-0.000531340716406703,0.0008371560834348202
1738772213952826600,2.80182666015625,0.0009408144978806376,-0.0012229899875819683,0.0007923574885353446
1738772213962817800,2.81181787109375,-0.0016238095704466105,-0.00029594358056783676,0.000006192363798618317
1738772213972808700,2.82180859375,-0.0007214838988147676,-0.0010815931018441916,0.00036243561771698296
1738772213982800400,2.83180029296875,0.000031391740776598454,0.0001738211140036583,-0.0017563753062859178
1738772213992791600,2.84179150390625,0.0003603743389248848,-0.001141826855018735,0.0011812427546828985
1738772214002782500,2.851782470703125,-0.0011941129341721535,-0.0006430167704820633,0.0001969384029507637
1738772214012773600,2.861773681640625,-0.000015645171515643597,-0.0010353669058531523,-0.0002991663641296327
1738772214022764800,2.871764892578125,-0.0012217909097671509,0.001139902975410223,-0.0019878768362104893
1738772214032755700,2.881755615234375,-0.00009753718040883541,-0.000009278533980250359,0.0014020913513377309
1738772214042746600,2.89174658203125,-0.000037083402276039124,-0.0005688087549060583,-0.0003417465486563742
1738772214052738600,2.901738525390625,0.0004689869238063693,0.00008434685878455639,-0.0006883377209305763
1738772214062729500,2.9117294921875,-0.0014221237506717443,0.0006276315543800592,-0.0008768895058892667
1738772214072720600,2.921720703125,-0.0007904174854047596,0.0008076040539890528,-0.0011099884286522865
1738772214082711800,2.9317119140625,-0.0006215730682015419,-0.00239058630540967,-0.0006801541894674301
1738772214092702700,2.94170263671875,0.000058591365814208984,-0.001178430626168847,0.00005053833592683077
1738772214102693600,2.951693603515625,-0.0017044213600456715,-0.0008412743918597698,0.0008329750271514058
1738772214112685600,2.961685546875,-0.0015850039198994637,-0.000723420875146985,0.00024171266704797745
1738772214122676700,2.9716767578125,-0.002835091669112444,0.0001951032318174839,-0.00009544353815726936
1738772214132667600,2.981667724609375,-0.002578295301645994,0.00014872383326292038,-0.00045775156468153
1738772214142658600,2.991658447265625,-0.0013572359457612038,-0.0007088140118867159,-0.0015871981158852577
1738772214152649700,3.001649658203125,-0.0010060081258416176,0.0010740712750703096,-0.0011597737902775407
1738772214162640600,3.011640625,0.0005138579290360212,0.0011411828454583883,-0.0004127571010030806
1738772214172631600,3.021631591796875,-0.0015200464986264706,0.0005196270067244768,-0.00003902796015609056
1738772214182623700,3.031623779296875,0.0004144737031310797,0.0011177726555615664,0.0003042534808628261
1738772214192614700,3.04161474609375,-0.0004209622275084257,0.0006484573241323233,0.0017617266857996583
1738772214202605600,3.05160546875,0.00001552992034703493,-0.00011906540021300316,-0.00040661892853677273
1738772214212596700,3.0615966796875,-0.00006975606083869934,0.0006779246032238007,-0.001000762335024774
1738772214222587600,3.071587646484375,0.00030947814229875803,-0.0005865441635251045,0.0009651832515373826
1738772214232578600,3.08157861328125,0.0003110845573246479,0.0006578830070793629,0.0002905329456552863
1738772214242570800,3.09157080078125,-0.002111060544848442,0.00001020217314362526,0.0006559186731465161
1738772214252561700,3.101561767578125,0.000580010237172246,-0.00013803225010633469,0.0010680282721295953
1738772214262552600,3.111552490234375,-0.0004919120110571384,-0.0001265804748982191,-0.0014422673266381025
1738772214272543700,3.121543701171875,-0.000014403718523681164,0.0012072368990629911,0.0004902815562672913
1738772214282534700,3.13153466796875,-0.00044716731645166874,0.0004439752083271742,0.0017670009983703494
1738772214292525600,3.141525634765625,-0.00020435976330190897,0.0007801186293363571,-0.00039022378041408956
1738772214302516700,3.151516845703125,-0.0012954568956047297,-0.0003381427377462387,0.0008454829803667963
1738772214312508700,3.1615087890625,-0.0011161313159391284,-0.00024423585273325443,0.0008099168771877885
1738772214322499600,3.17149951171875,0.0005885581485927105,-0.00019150529988110065,-0.0003890382940880954
1738772214332490800,3.18149072265625,-0.002075301017612219,-0.00010286527685821056,-0.0010770084336400032
1738772214342481700,3.191481689453125,-0.0008257458684965968,-0.0019004989881068468,-0.0009861945873126388
1738772214352472600,3.20147265625,0.0004016263410449028,0.00014573801308870316,0.00018874659144785255
1738772214362463500,3.21146337890625,-0.00013739755377173424,-0.00019354862160980701,-0.0004490804858505726
1738772214372455700,3.22145556640625,0.0001912310253828764,-0.0009570217225700617,-0.00003824180748779327
1738772214382446600,3.231446533203125,-0.0000010491348803043365,-0.0010614176280796528,-0.0008393206517212093
1738772214392437800,3.241437744140625,0.00041206052992492914,-0.0004002798814326525,0.0008583765593357384
1738772214402428700,3.2514287109375,0.0007619998650625348,0.0002790922299027443,-0.0013429924147203565
1738772214412419600,3.261419677734375,-0.001009808387607336,0.001297258073464036,0.00045318942284211516
1738772214422410500,3.271410400390625,-0.0011490917531773448,-0.00012806570157408714,0.00016423645138274878
1738772214432401700,3.281401611328125,-0.00013281928841024637,0.0005629051011055708,0.0006659888895228505
1738772214442393600,3.2913935546875,0.000054400996305048466,-0.00041101290844380856,-0.00045972922816872597
1738772214452384500,3.301384521484375,0.0007450559642165899,0.0009842503350228071,-0.00003800459671765566
1738772214462375700,3.311375732421875,-0.0008965165470726788,0.0011000975500792265,0.0004890349810011685
1738772214472366600,3.32136669921875,-0.0007160822278819978,-0.0005126381292939186,0.000618318619672209
1738772214482357500,3.331357421875,-0.0004921103827655315,-0.0006279528606683016,0.0004313647514209151
1738772214492348700,3.3413486328125,-0.0004318924620747566,-0.000090084969997406,0.0004414767900016159
1738772214502339600,3.351339599609375,-0.0007014043512754142,0.00003348570317029953,0.00032909135916270316
1738772214512331500,3.36133154296875,-0.0032461700029671192,0.0009923113975673914,0.000373239628970623
1738772214522322700,3.37132275390625,0.0006566926604136825,0.0004977623466402292,-0.0000866883056005463
1738772214532313600,3.381313720703125,-0.001389478798955679,-0.0012632422149181366,-0.0008302318165078759
1738772214542304500,3.391304443359375,0.0007373216794803739,-0.0013050539419054985,0.00042251916602253914
1738772214552295700,3.401295654296875,0.0006113825365900993,-0.000010043848305940628,-0.0004966313717886806
1738772214562286600,3.41128662109375,0.0008713069837540388,-0.0008002035319805145,0.0001973883918253705
1738772214572277500,3.421277587890625,-0.001014644163660705,-0.000973693560808897,0.0006398248369805515
1738772214582269700,3.431269775390625,0.0005225323839113116,0.00013418146409094334,-0.00008375602192245424
1738772214592260600,3.441260498046875,0.0013001374900341034,-0.0009771673940122128,-0.00001165464345831424
1738772214602251500,3.45125146484375,0.00030784355476498604,-0.001168382354080677,-0.0014375110622495413
1738772214612242700,3.46124267578125,-0.0011669640662148595,0.0009127988014370203,0.0009959620656445622
1738772214622233600,3.471233642578125,0.0012850082712247968,0.0007253123912960291,-0.0004772985994350165
1738772214632224500,3.481224609375,0.0007142814574763179,0.00026711635291576385,0.00006894646503496915
1738772214642216700,3.491216796875,0.0014538412215188146,0.0002460773102939129,-0.0007055007736198604
1738772214652207600,3.50120751953125,-0.0016957212937995791,-0.000433601438999176,-0.000059818485169671476
1738772214662198500,3.511198486328125,-0.001207830267958343,0.0009371272753924131,0.0003961147158406675
1738772214672189400,3.521189453125,-0.0017770869890227914,0.0006440526340156794,-0.0006881768349558115
1738772214682180600,3.5311806640625,-0.0020223641768097878,-0.0005655551794916391,0.0006162395002320409
1738772214692171500,3.541171630859375,-0.0008905574213713408,-0.0011733805295079947,0.000924703199416399
1738772214702162400,3.551162353515625,-0.0006799013935960829,0.00011532311327755451,-0.0009341833065263927
1738772214712154600,3.561154541015625,-0.0017153171356767416,0.000994297442957759,0.0002755409514065832
1738772214722145500,3.5711455078125,0.0007875215960666537,-0.0007777700666338205,-0.0008816025219857693
1738772214732136400,3.581136474609375,-0.0011532646603882313,0.0006168554536998272,0.0011745002120733261
1738772214742127600,3.591127685546875,-0.0009114495478570461,0.00044721178710460663,0.0013161803362891078
1738772214752118500,3.601118408203125,0.00023473624605685472,-0.0012644599191844463,0.00034128138213418424
1738772214762109400,3.611109375,-0.0008017660584300756,-0.0015451570507138968,-0.00040893108234740794
1738772214772101600,3.6211015625,-0.0015842069406062365,-0.0006366216111928225,-0.0001936463377205655
1738772214782092500,3.631092529296875,-0.0008571639191359282,-0.000043002888560295105,0.0004582954861689359
1738772214792083500,3.64108349609375,0.0010321415029466152,0.00024794903583824635,-0.0005248092347756028
1738772214802074600,3.65107470703125,-0.0012387358583509922,-0.0005744348745793104,-0.0011333415750414133
1738772214812065500,3.6610654296875,-0.00021414528600871563,-0.0002184149343520403,0.0008275875588878989
1738772214822056400,3.671056396484375,-0.0019553201273083687,0.001743535976856947,0.0008622086606919765
1738772214832047600,3.681047607421875,0.0014279563911259174,0.0004221333656460047,0.0009382360149174929
1738772214842039600,3.69103955078125,0.000337658217176795,0.0007222716230899096,0.000404272141167894
1738772214852030500,3.701030517578125,-0.001047926489263773,-0.0004558255895972252,0.00021439902775455266
1738772214862021600,3.711021728515625,-0.00022980337962508202,-0.00039563816972076893,-0.00010810978710651398
1738772214872012500,3.721012451171875,0.00012626976240426302,-0.00029605114832520485,0.002050402108579874
1738772214882003500,3.73100341796875,-0.000010883086360991001,-0.0007631697226315737,-0.000587991438806057
1738772214891994400,3.740994384765625,0.00009941332973539829,-0.00031051388941705227,-0.00048246036749333143
1738772214901985500,3.750985595703125,-0.00006250687874853611,-0.0004948046989738941,0.00030769951990805566
1738772214911977500,3.7609775390625,0.0003344620345160365,-0.00008393661119043827,0.0003341453557368368
1738772214921968600,3.77096875,0.0009174279402941465,0.0005621465388685465,-0.0014384546084329486
1738772214931959600,3.78095947265625,-0.00041464774403721094,0.00002658017911016941,-0.00013577492791227996
1738772214941950500,3.790950439453125,-0.0013496836181730032,0.0006939684972167015,0.0004751542001031339
1738772214951941400,3.80094140625,0.0014197182608768344,0.0005324645899236202,-0.00032204363378696144
1738772214961932500,3.8109326171875,0.0006111824186518788,-0.00041482201777398586,-0.00009487599163549021
1738772214971924500,3.820924560546875,-0.00008208362851291895,0.00046061561442911625,-0.000054319374612532556
1738772214981915400,3.830915283203125,-0.0012165901716798544,0.00030189123935997486,0.0017092259367927909
1738772214991906600,3.840906494140625,-0.0008017159416340292,0.0015487575437873602,-0.0010080193169414997
1738772215001897500,3.8508974609375,-0.00022274476941674948,0.0005934818182140589,-0.0005805819528177381
1738772215011888400,3.860888427734375,0.0006811759667471051,-0.0001986711286008358,-0.0005420555826276541
1738772215021879600,3.870879638671875,0.00019142066594213247,0.00011851126328110695,-0.00021235625899862498
1738772215031870700,3.88087060546875,-0.0003946054494008422,0.0004660866688936949,0.002034885110333562
1738772215041862400,3.8908623046875,-0.0007663826690986753,0.0005345300305634737,0.0000566889502806589
1738772215051853600,3.900853515625,-0.0014955953229218721,-0.0006455713883042336,0.0005414594197645783
1738772215061844500,3.910844482421875,0.00023732357658445835,-0.00045888382010161877,-0.001343259704299271
1738772215071835400,3.92083544921875,0.0002581214066594839,-0.00031687156297266483,-0.0006897951243445277
1738772215081826800,3.930826904296875,-0.0006028785719536245,-0.0006159446202218533,0.0015818813117220998
1738772215091817700,3.940817626953125,0.00048361101653426886,-0.0008515699300915003,0.0018345098942518234
1738772215103058000,3.952057861328125,-0.00020481611136347055,0.00016921968199312687,-0.0014137476682662964
1738772215113049900,3.9620498046875,-0.0009134721476584673,-0.0013028301764279604,0.0005591933731921017
1738772215123041000,3.972041015625,-0.0008681984036229551,-0.0006695305928587914,-0.0003968814271502197
1738772215133032200,3.9820322265625,-0.0005238600424490869,0.0014021657407283783,-0.0015135918511077762
1738772215143023000,3.992023193359375,0.00024286401458084583,-0.00042343116365373135,0.0005064159049652517
1738772215153014000,4.002013916015625,0.0013746062759310007,0.00010868813842535019,-0.0004887633258476853
1738772215163005000,4.0120048828125,-0.0015471477527171373,0.001009901985526085,0.0010958175407722592
1738772215172996000,4.02199609375,0.002032793592661619,0.000025305431336164474,0.00004665026790462434
1738772215182988000,4.031988037109375,0.0001800324534997344,0.0004061374347656965,-0.00021167634986341
1738772215192979000,4.04197900390625,-0.0005136217223480344,-0.0001574796624481678,-0.00006479705916717649
1738772215202970000,4.05197021484375,-0.0004390531685203314,-0.00002671848051249981,0.0008286935044452548
1738772215212961000,4.0619609375,0.0010103160748258233,-0.0003882537130266428,0.0005209138034842908
1738772215222952000,4.071951904296875,0.000693932524882257,0.00012467126362025738,0.00030892621725797653
1738772215232943000,4.081943115234375,0.0014683400513604283,0.0015243974048644304,0.00015006258036009967
1738772215242935000,4.09193505859375,-0.0002965368330478668,-0.0007896232418715954,0.0007101253140717745
1738772215252926000,4.101926025390625,-0.00043461035238578916,0.0005375593900680542,-0.000008292845450341702
1738772215262917000,4.111917236328125,0.00041387276723980904,0.0000997358001768589,0.0013070424320176244
1738772215272908000,4.121907958984375,-0.0004930791328661144,0.0014814508613198996,-0.0003796022501774132
1738772215282899000,4.13189892578125,0.00011785002425312996,-0.00017024180851876736,0.00033918494591489434
1738772215292890000,4.14189013671875,-0.000372542068362236,-0.00009960145689547062,-0.000040945393266156316
1738772215302881000,4.151881103515625,0.0004266726318746805,-0.00012809736654162407,0.0003649203572422266
1738772215312873000,4.161873046875,-0.0006193019216880202,0.00044079707004129887,-0.00016104226233437657
1738772215322864000,4.171864013671875,0.0010816589929163456,0.0006711601745337248,0.000748160935472697
1738772215332855000,4.18185498046875,-0.00024691701401025057,0.00023263203911483288,0.0005434077465906739
1738772215342846000,4.191845947265625,0.00008011923637241125,-0.0004592570476233959,0.00006190824205987155
1738772215352836900,4.2018369140625,0.00048432801850140095,0.000167901162058115,-0.0002679303288459778
1738772215362828000,4.211828125,0.00002706330269575119,0.0003117120359092951,0.0012506040511652827
1738772215372819000,4.22181884765625,-0.0014673678670078516,-0.0013590448070317507,-0.0004068833659403026
1738772215382811100,4.23181103515625,-0.0019376820418983698,0.0004071637522429228,-0.0005000940291211009
1738772215392802000,4.241802001953125,0.00044301606249064207,0.00021896581165492535,0.0006448435015045106
1738772215402793000,4.25179296875,-0.00004620663821697235,-0.00019249273464083672,-0.0014246990904211998
1738772215412783900,4.261783935546875,0.0010142794344574213,-0.00010239542461931705,-0.000267976603936404
1738772215422775000,4.271775146484375,0.0015288020949810743,0.00010772794485092163,0.00018369551980867982
1738772215432766000,4.281765869140625,0.0006959791062399745,-0.0001175424549728632,-0.0006855244864709675
1738772215442758100,4.291758056640625,0.0007236761739477515,0.00018286192789673805,-0.0010972492164000869
1738772215452749000,4.3017490234375,0.0008037121733650565,0.0005025302525609732,-0.0006347709568217397
1738772215462740000,4.311739990234375,-0.00004583632107824087,0.00044527254067361355,0.0007279685814864933
1738772215472731000,4.32173095703125,0.0004703465383499861,0.0000696184579282999,-0.0014696726575493813
1738772215482722000,4.33172216796875,0.00043226336129009724,0.0006488561630249023,-0.0009628731058910489
1738772215492713000,4.341712890625,0.00047899375203996897,0.0005922613199800253,-0.0009258213685825467
1738772215502703900,4.351703857421875,-0.0012597840977832675,-0.0007323948666453362,0.00012958943261764944
1738772215512696000,4.361696044921875,-0.0012405996676534414,-0.0005342257209122181,0.0011170667130500078
1738772215522687000,4.37168701171875,0.001970906276255846,0.0005360986106097698,-0.00004566938150674105
1738772215532678000,4.381677978515625,0.0004232493229210377,0.0005769920535385609,-0.00002221009344793856
1738772215542669000,4.3916689453125,0.0012323176488280296,-0.00020624371245503426,-0.0011303513310849667
1738772215552660000,4.401659912109375,0.0011629464570432901,-0.00017211027443408966,0.000953965587541461
1738772215562651000,4.41165087890625,-0.00037795864045619965,0.0005400190129876137,-0.0003848055494017899
1738772215572643000,4.42164306640625,0.0009992520790547132,-0.0005909153260290623,-0.001306345104239881
1738772215582634000,4.431634033203125,-0.0012423306470736861,0.000948125496506691,0.00043083488708361983
1738772215592625000,4.441625,-0.00019206409342586994,-0.0006409632042050362,0.0005827102577313781
1738772215602616000,4.451615966796875,0.0018471182556822896,-0.00026412587612867355,0.0005835092160850763
1738772215612607000,4.46160693359375,-0.0015222425572574139,0.0013819187879562378,0.0003754234057851136
1738772215622598000,4.471597900390625,-0.00047588651068508625,0.00015979399904608727,-0.0000344370782840997
1738772215632588800,4.4815888671875,-0.0009739854722283781,0.0003152946010231972,-0.0007193400524556637
1738772215642581000,4.4915810546875,-0.000006459071300923824,0.0004226197488605976,-0.0001241235586348921
1738772215652572000,4.501572021484375,0.0013146370183676481,0.0006138759199529886,-0.00011593088856898248
1738772215662562800,4.511562744140625,-0.00026994384825229645,0.000055677490308880806,-0.00019422783225309104
1738772215672554000,4.521553955078125,-0.0007767131319269538,-0.00029192958027124405,-0.00031475385185331106
1738772215682545000,4.531544921875,-0.0010952271986752748,-0.0005289509426802397,-0.001456717262044549
1738772215692535800,4.541535888671875,0.0006640421925112605,-0.0000010225921869277954,0.0008857750799506903
1738772215702528000,4.551528076171875,-0.0002544820308685303,-0.0007472401484847069,0.00011452360195107758
1738772215712519000,4.561518798828125,0.00019379239529371262,-0.0007404962088912725,-0.000750069331843406
1738772215722509800,4.571509765625,0.0009163079084828496,-0.00023209862411022186,-0.00046644266694784164
1738772215732501000,4.5815009765625,0.0015590721741318703,-0.0015703144017606974,0.0006010577199049294
1738772215742492000,4.591491943359375,-0.0008540180278941989,0.00020894361659884453,-0.0018410610500723124
1738772215752482800,4.60148291015625,0.001616035238839686,0.0005640657618641853,-0.0007767496863380075
1738772215762475000,4.61147509765625,0.00012865976896137,0.0011270581744611263,-0.0007727548945695162
1738772215772466000,4.6214658203125,-0.0005476896185427904,-0.0014186229091137648,-0.000647842010948807
1738772215782456800,4.631456787109375,0.001304272678680718,0.00064852274954319,0.0006621669162996113
1738772215792448000,4.641447998046875,0.000825734343379736,0.0007168983574956656,0.00012864003656432033
1738772215802439000,4.65143896484375,-0.001884298399090767,0.00019385362975299358,0.00000533569254912436
1738772215812429800,4.661429931640625,-0.00012299371883273125,-0.001378216315060854,-0.00003327213926240802
1738772215822421000,4.6714208984375,-0.00040022871689870954,-0.0002210726961493492,0.002218164037913084
1738772215832413000,4.681412841796875,0.0010687230387702584,0.00002105673775076866,-0.0007445244118571281
1738772215842403800,4.69140380859375,0.0010207862360402942,0.0001696611288934946,0.0010331356897950172
1738772215852395000,4.70139501953125,0.00008814909961074591,-0.0005346166435629129,0.0001777239958755672
1738772215862386000,4.711385986328125,0.0006040034350007772,0.00038071186281740665,-0.0010830163955688477
1738772215872376800,4.721376953125,-0.00008733733557164669,0.0010864499490708113,-0.00010713271331042051
1738772215882367700,4.73136767578125,-0.0007227675523608923,0.00015114783309400082,-0.00021046336041763425
1738772215892360000,4.74135986328125,-0.00046111305709928274,0.0004304242320358753,-0.000045460619730874896
1738772215902350800,4.751350830078125,-0.0013828331138938665,0.002173196990042925,0.001213948242366314
1738772215912342000,4.761342041015625,0.0007989859441295266,0.0008393023163080215,0.0007403974886983633
1738772215922333000,4.7713330078125,-0.0006279356894083321,0.0006994865834712982,0.00026076220092363656
1738772215932323800,4.78132373046875,0.0016069574048742652,-0.00018766173161566257,0.0009964056080207229
1738772215942314800,4.791314697265625,0.0020421179942786694,0.001613167580217123,0.0016113296151161194
1738772215952307000,4.801306884765625,0.0003372455248609185,-0.0005058168899267912,0.0001066351542249322
1738772215962297900,4.8112978515625,-0.000327745801769197,-0.0008243308402597904,-0.0003943054180126637
1738772215972288800,4.821288818359375,-0.0009283203398808837,0.001168649410828948,0.0009544599452055991
1738772215982280000,4.831280029296875,-0.0015224715461954474,0.0002602452877908945,0.00038454344030469656
1738772215992270800,4.841270751953125,0.0024161171168088913,0.0001767303328961134,-0.0019762557931244373
1738772216002261800,4.85126171875,0.00040250096935778856,0.0007884586229920387,-0.002446570200845599
1738772216012253000,4.8612529296875,-0.0004226128803566098,0.00030368263833224773,0.0007040704949758947
1738772216022244900,4.871244873046875,0.0007473137229681015,0.001547645078971982,-0.0019178115762770176
1738772216032235800,4.88123583984375,-0.0011041647521778941,-0.00020543811842799187,0.0003175404854118824
1738772216042227000,4.89122705078125,0.0014982763677835464,0.0010459814220666885,0.0009950485546141863
1738772216052217900,4.9012177734375,0.0013118770439177752,0.0017330185510218143,-0.00042865407885983586
1738772216062208800,4.911208740234375,-0.0004926808760501444,-0.0002896520309150219,0.00014738767640665174
1738772216072200000,4.921199951171875,-0.0013833079719915986,0.0004602035041898489,0.0010285974713042378
1738772216082191600,4.931191650390625,-0.00003734638448804617,0.0003491498064249754,0.0009606869425624609
1738772216092182500,4.9411826171875,0.00010582769755274057,0.000850604148581624,-0.00023297402367461473
1738772216102173400,4.95117333984375,-0.0004787361831404269,-0.0001403579954057932,0.0013073983136564493
1738772216112164600,4.96116455078125,0.0003724050475284457,0.0012878633569926023,-0.0018558911979198456
1738772216122155800,4.97115576171875,0.00019876693841069937,0.0003219346981495619,0.00009647218394093215
1738772216132146700,4.981146728515625,-0.0004386574146337807,0.0003717453218996525,0.0002710383269004524
1738772216142138400,4.991138427734375,-0.0011561129940673709,0.00018851994536817074,-0.0003920887829735875
1738772216152129500,5.001129638671875,0.0004811924882233143,0.0005656150169670582,-0.00010721728904172778
1738772216162120700,5.01112060546875,-0.00021549034863710403,-0.000020546838641166687,-0.002080087084323168
1738772216172111600,5.021111572265625,-0.0011432711035013199,0.0009560685139149427,-0.0014874994521960616
1738772216182102800,5.031102783203125,-0.00012381316628307104,-0.0003270425368100405,-0.0007010679692029953
1738772216192093700,5.04109375,0.0004555040504783392,-0.00012484495528042316,-0.0002588833449408412
1738772216202084600,5.051084716796875,0.0010832111584022641,0.0012538738083094358,-0.00029270548839122057
1738772216212076500,5.06107666015625,0.0003515956923365593,-0.0008253767155110836,0.0003630368155427277
1738772216222067700,5.071067626953125,-0.0016473729629069567,0.0005762451328337193,0.0017220479203388095
1738772216232058600,5.08105859375,-0.0011557969264686108,-0.00021210056729614735,0.0007169012678787112
1738772216242049800,5.0910498046875,0.0015425179153680801,-0.0008621781598776579,0.001284687197767198
1738772216252040700,5.101040771484375,0.0002198399743065238,0.000594195444136858,0.000578276056330651
1738772216262031600,5.111031494140625,0.0008563353912904859,0.00008659693412482738,-0.0013509178534150124
1738772216272023600,5.1210234375,0.00037335208617150784,0.0012619884219020605,-0.0015543003100901842
1738772216282014700,5.1310146484375,0.0009113105479627848,-0.0000032791867852211,-0.00014042819384485483
1738772216292005600,5.141005615234375,-0.0014909341698512435,-0.00010986742563545704,0.0002079939004033804
1738772216301996800,5.150996826171875,-0.000888793496415019,0.000919444253668189,-0.0011004171101376414
1738772216311987700,5.16098779296875,0.00013704667799174786,-0.0009623267687857151,-0.0012278326321393251
1738772216321978600,5.170978515625,-0.000969230430200696,-0.0009034709073603153,-0.00006722702528350055
1738772216331969500,5.180969482421875,-0.0005599744035862386,-0.0015352906193584204,0.0003057954600080848
1738772216341961700,5.190961669921875,-0.0007863430655561388,0.0009955111891031265,-0.0002175156696466729
1738772216351952600,5.20095263671875,0.0011359776835888624,0.000585376750677824,-0.0012023062445223331
1738772216361943600,5.210943603515625,0.0008294477593153715,0.002005374524742365,0.0014257009606808424
1738772216371934700,5.220934814453125,-0.0009860077407211065,0.0007750208023935556,-0.001383206807076931
1738772216381925600,5.230925537109375,0.00025928637478500605,-0.00006653787568211555,-0.0027443484868854284
1738772216391916500,5.24091650390625,-0.00022276653908193111,-0.0006001035217195749,-0.0013801478780806065
1738772216401908700,5.25090869140625,-0.0012297077337279916,-0.00036414735950529575,-0.00032447086414322257
1738772216411899600,5.260899658203125,-0.0006858321721665561,0.0003727823495864868,0.000370228779502213
1738772216421890600,5.270890625,0.000010051880963146687,0.0005469531752169132,0.00016569800209254026
1738772216431881700,5.2808818359375,0.00003745080903172493,0.0004266370087862015,0.0008197869756259024
1738772216441872600,5.29087255859375,-0.00009011465590447187,0.000057789264246821404,-0.000707802246324718
1738772216451863600,5.300863525390625,-0.0004963497049175203,0.0007143262773752213,-0.000483199255540967
1738772216461855700,5.310855712890625,0.00003175507299602032,0.00023682182654738426,-0.00026135792722925544
1738772216471846700,5.3208466796875,-0.00043370696948841214,0.0008789116982370615,0.0005679770838469267
1738772216481837600,5.330837646484375,-0.0015269345603883266,-0.00070220697671175,-0.00025467335944995284
1738772216491828700,5.340828857421875,-0.00026873149909079075,-0.0021051382645964622,-0.0003673376049846411
1738772216501819600,5.350819580078125,-0.0006029581418260932,-0.00018499908037483692,0.00018713253666646779
1738772216511810600,5.360810546875,0.0003737694351002574,-0.0009672653395682573,0.0017515085637569427
1738772216521801500,5.370801513671875,-0.0000699132215231657,-0.0013100141659379005,-0.00014599377755075693
1738772216531793700,5.380793701171875,0.0013349461369216442,0.00008814572356641293,0.0008393115131184459
1738772216541784600,5.39078466796875,0.0009519835002720356,-0.0018202754436060786,0.0005650059320032597
1738772216551775700,5.400775634765625,0.00008516921661794186,0.001283795339986682,0.0005703275674022734
1738772216561766700,5.4107666015625,0.0019584367983043194,-0.0003852078225463629,0.0004534148029051721
1738772216571757600,5.420757568359375,0.00007695844396948814,0.00017949938774108887,0.0003102680784650147
1738772216581748500,5.43074853515625,-0.0004005462978966534,-0.00030040228739380836,-0.002068733796477318
1738772216591740700,5.44074072265625,0.0004257509717717767,0.0006183998193591833,-0.0011866157874464989
1738772216601731600,5.450731689453125,0.0008001914247870445,-0.00048441532999277115,-0.00025184627156704664
1738772216611722800,5.46072265625,0.0002132301451638341,0.00011602346785366535,-0.0000792859063949436
1738772216621713700,5.470713623046875,-0.00018970610108226538,0.00022175069898366928,-0.00016290915664285421
1738772216631704600,5.48070458984375,0.0008551491191610694,0.0007616288494318724,0.0018960463348776102
1738772216641695500,5.490695556640625,-0.0011166553013026714,0.0004391197580844164,-0.0017330432310700417
1738772216651687700,5.500687744140625,0.0004062552470713854,0.00028855097480118275,-0.000985916587524116
1738772216661678600,5.5106787109375,-0.000996431685052812,0.00039774063043296337,0.0002388711436651647
1738772216671669500,5.52066943359375,0.001402198919095099,-0.00009944220073521137,-0.0007607906591147184
1738772216681660700,5.53066064453125,0.0009457332780584693,0.0012076373677700758,-0.000851604447234422
1738772216691651600,5.540651611328125,0.0007298102136701345,-0.00020303530618548393,-0.0008859854424372315
1738772216701642500,5.550642578125,-0.000982868717983365,0.00012187031097710133,0.0016586650162935257
1738772216711633700,5.560633544921875,0.0003309014718979597,0.0011820383369922638,0.00023035198682919145
1738772216721625600,5.57062548828125,-0.00007043685764074326,-0.0004310382064431906,0.0004908090922981501
1738772216731616500,5.580616455078125,-0.00011695269495248795,-0.0007126214914023876,0.0001585891586728394
1738772216741607700,5.590607666015625,0.00022446457296609879,-0.0003413769882172346,-0.0008424930856563151
1738772216751598600,5.6005986328125,-0.0008585328469052911,-0.0005287779495120049,0.00020419107750058174
1738772216761589500,5.610589599609375,0.00008901988621801138,0.00011038081720471382,0.00035412702709436417
1738772216771580700,5.62058056640625,0.00022941443603485823,-0.000773995416238904,-0.0009339115931652486
1738772216781572600,5.630572509765625,0.0010928112315014005,0.0020654669497162104,-0.000378642522264272
1738772216791563500,5.6405634765625,-0.0006645357352681458,0.0019109328277409077,-0.0005158291314728558
1738772216801554700,5.6505546875,-0.0018768066074699163,-0.000350357498973608,-0.0008013199549168348
1738772216811545600,5.660545654296875,-0.00027255190070718527,0.000596196623519063,-0.0014073101337999105
1738772216821536500,5.67053662109375,0.001697388244792819,-0.0005505606532096863,-0.0011148951016366482
1738772216831527400,5.68052734375,0.00004011846613138914,-0.000008325325325131416,0.00046287052100524306
1738772216841518600,5.6905185546875,-0.0008017067448236048,0.00035519618541002274,-0.0002782871888484806
1738772216851510500,5.700510498046875,0.0003553489223122597,-0.00016626110300421715,-0.0007162762340158224
1738772216861501700,5.710501708984375,0.0013963786186650395,0.0016952885780483484,-0.0002893715281970799
1738772216871492600,5.72049267578125,-0.0011552630458027124,0.000012094387784600258,-0.0006585186347365379
1738772216881483500,5.7304833984375,0.000524126342497766,-0.00015302165411412716,-0.00020604758174158633
1738772216891474400,5.740474365234375,-0.00020274193957448006,-0.0005216845311224461,0.00008900190005078912
1738772216901465600,5.750465576171875,0.0012353650527074933,-0.0007672279607504606,-0.0015017042169347405
1738772216911457500,5.76045751953125,-0.0012691391166299582,0.0018058198038488626,-0.0012675663456320763
1738772216921448700,5.77044873046875,-0.0014491688925772905,0.0010231172200292349,0.00001048471312969923
1738772216931439600,5.780439697265625,-0.00008891825564205647,-0.00019274605438113213,0.00010081444634124637
1738772216941430500,5.790430419921875,-0.0005954515072517097,0.000809667631983757,-0.00014393002493306994
1738772216951421400,5.80042138671875,0.0018341423710808158,0.0007541910745203495,-0.0008886578725650907
1738772216961412600,5.81041259765625,0.00017898785881698132,-0.0003321124240756035,0.000030931609217077494
1738772216971404500,5.820404541015625,0.0003419565036892891,-0.00010680896230041981,0.000580541614908725
1738772216981395500,5.8303955078125,0.00034461962059140205,-0.0004570146556943655,0.00021755276247859
1738772216991386600,5.84038671875,0.0006498765433207154,-0.0007916712202131748,0.0008165218750946224
1738772217001377500,5.85037744140625,-0.0009040780132636428,0.0005489641334861517,0.0007334312540479004
1738772217011368400,5.860368408203125,0.00026507407892495394,0.0009565015789121389,0.0006628399714827538
1738772217021359600,5.870359619140625,-0.001136281294748187,0.0004947094712406397,-0.00029962637927383184
1738772217031350500,5.8803505859375,0.001988977426663041,0.00028527271933853626,-0.0009849584894254804
1738772217041342500,5.890342529296875,0.00014154263772070408,0.000404848949983716,0.0009375775116495788
1738772217051333600,5.900333740234375,0.000486606964841485,-0.00033047469332814217,0.00041261460864916444
1738772217061324500,5.910324462890625,0.0004914005985483527,0.0005334548186510801,-0.0000036374549381434917
1738772217071315500,5.9203154296875,0.000006603891961276531,0.0002793394960463047,0.00037583085941150784
1738772217081306400,5.930306396484375,0.00005906820297241211,0.000003435881808400154,-0.0015850546769797802
1738772217091297300,5.94029736328125,0.00043377955444157124,-0.00048801745288074017,-0.0008530645864084363
1738772217101289500,5.95028955078125,0.000042561208829283714,-0.0010664560832083225,-0.0007191076292656362
1738772217111280400,5.9602802734375,0.0006686621345579624,0.0009436060208827257,-0.0017698631854727864
1738772217121271300,5.970271240234375,0.0010702668223530054,0.0010578555520623922,0.0002807708806358278
1738772217131262500,5.980262451171875,-0.0006464873440563679,-0.0004734948743134737,-0.00034346437314525247
1738772217141253400,5.99025341796875,0.000032618758268654346,0.0006604788359254599,-0.00008114302181638777
1738772217151244300,6.000244384765625,-0.0005216499557718635,0.00023120432160794735,-0.0008925370639190078
1738772217161236500,6.010236572265625,0.00042803329415619373,0.000053304946050047874,0.0010214768117293715
1738772217171227400,6.020227294921875,-0.0011691323015838861,-0.001165561145171523,-0.0003108558594249189
1738772217181218300,6.03021826171875,0.00094408611766994,-0.00043771928176283836,-0.0005007392610423267
1738772217191209500,6.04020947265625,0.001369395642541349,0.0027992220129817724,-0.0004960124497301877
1738772217201200400,6.050200439453125,0.0003629870479926467,0.0008519182447344065,-0.000514654559083283
1738772217211191300,6.06019140625,-0.0001266950275748968,-0.0004539045039564371,-0.00040309561882168055
1738772217221182500,6.070182373046875,0.00200676335953176,0.000054759206250309944,0.0007282151491381228
1738772217231174400,6.08017431640625,-0.0012773176422342658,0.00007580802775919437,-0.0011748396791517735
1738772217241165300,6.090165283203125,-0.00037637026980519295,-0.0005849222652614117,0.0006494256667792797
1738772217251156500,6.100156494140625,-0.0015529817901551723,-0.0006600490305572748,-0.0004989369190298021
1738772217261147400,6.1101474609375,0.0012918069260194898,0.00024302885867655277,0.00019801227608695626
1738772217271138300,6.12013818359375,-0.0016126325353980064,0.00045039597898721695,0.00017141149146482348
1738772217281129500,6.13012939453125,-0.00034150585997849703,-0.00020820368081331253,-0.0022621850948780775
1738772217291120600,6.14012060546875,-0.0007200610707513988,0.0006696165073662996,0.0007093879976309836
1738772217301112300,6.1501123046875,-0.0019395225681364536,0.0002754686865955591,-0.00020247831707820296
1738772217311103500,6.160103515625,0.00023427361156791449,-0.00016081170178949833,-0.00046290221507661045
1738772217321094400,6.170094482421875,0.00028487364761531353,0.000940938014537096,0.00025055865989997983
1738772217331085600,6.18008544921875,-0.001291385036893189,0.0009197492618113756,-0.0000343828578479588
1738772217341076500,6.190076416015625,-0.002086338587105274,-0.0005377987399697304,-0.0009092312538996339
1738772217351067600,6.200067626953125,-0.000842602807097137,-0.001052437350153923,-0.00022011203691363335
1738772217361059300,6.210059326171875,-0.0004758855211548507,-0.0012247436679899693,0.0014824469108134508
1738772217371050200,6.22005029296875,-0.0005048579187132418,-0.0016811853274703026,-0.0006353021017275751
1738772217381041400,6.23004150390625,0.0014142160071060061,-0.0010923603549599648,-0.0002733785368036479
1738772217391032600,6.240032470703125,-0.0015428282786160707,-0.00008476735092699528,0.0005055391229689121
1738772217401023500,6.2500234375,-0.0015718566719442606,-0.0005683975759893656,-0.0001650448830332607
1738772217411014700,6.2600146484375,0.000688621774315834,-0.001767149893566966,-0.0010236245580017567
1738772217421006300,6.27000634765625,-0.000992099056020379,-0.0003056072164326906,0.0007878575706854463
1738772217430997200,6.279997314453125,-1.126900315284729e-7,0.0012905665207654238,0.001981123583391309
1738772217440988400,6.289988525390625,-0.000849394709803164,0.00011531333439052105,0.0005193143151700497
1738772217450979600,6.2999794921875,-0.00028270622715353966,-0.00043981033377349377,0.0003284348640590906
1738772217460970500,6.309970458984375,0.0008486045990139246,-0.0011079974938184023,0.001421129796653986
1738772217470961700,6.319961669921875,0.001056254142895341,0.0012879623100161552,0.00024096548440866172
1738772217480952600,6.32995263671875,0.0013172440230846405,-0.0009043519385159016,-0.002121524652466178
1738772217490944500,6.339944580078125,0.00020074169151484966,-0.0004121907986700535,0.0020011491142213345
1738772217500935700,6.349935791015625,0.0010375069687142968,0.00026584998704493046,-0.0016108963172882795
1738772217510926600,6.359926513671875,-0.00036292802542448044,-0.0010064742527902126,-0.00228181853890419
1738772217520917500,6.36991748046875,-0.0003046047640964389,0.0002966106403619051,0.00043886678759008646
1738772217530908700,6.37990869140625,-0.000143333338201046,-0.00027888338081538677,0.0015440264251083136
1738772217540899600,6.389899658203125,0.00008037220686674118,0.0006028893403708935,-0.00002377663622610271
1738772217550891500,6.3998916015625,0.0008010556921362877,0.0000015294644981622696,-0.0019833717960864305
1738772217560882700,6.409882568359375,0.0002689560642465949,0.0008257778827100992,-0.0015085302293300629
1738772217570873600,6.41987353515625,-0.00019898510072380304,0.0011828793212771416,-0.001219561556354165
1738772217580864500,6.429864501953125,0.0014740126207470894,-0.000645114341750741,0.00030456556123681366
1738772217590855400,6.43985546875,0.0018683051457628608,0.0005941581912338734,0.00016222958220168948
1738772217600846600,6.4498466796875,0.00029384426306933165,-0.0003315566573292017,-0.0008210094529204071
1738772217610838500,6.459838623046875,-0.00007838534656912088,-0.0002384553663432598,0.00043212081072852015
1738772217620829700,6.46982958984375,0.0009754275670275092,-0.0005614967085421085,0.0008379865903407335
1738772217630820600,6.479820556640625,0.00007849559187889099,-0.00017340946942567825,-0.0006034594844095409
1738772217640811500,6.4898115234375,-0.001917543588206172,0.0010367308277636766,0.0007835148135200143
1738772217650802400,6.499802490234375,0.00021730281878262758,-0.00007934495806694031,-0.0008993746596388519
1738772217660793600,6.509793701171875,-0.0004186601145192981,-0.0005797529593110085,-0.0012048392090946436
1738772217670784500,6.519784423828125,0.000791718834079802,0.0005191918462514877,0.0016158095095306635
1738772217680776400,6.5297763671875,-0.0007278808043338358,0.00032504741102457047,-0.000414584472309798
1738772217690767600,6.539767578125,0.00022889079991728067,0.00012013036757707596,-0.0008093946380540729
1738772217700758500,6.549758544921875,0.00022676028311252594,0.0004687383770942688,0.00016851810505613685
1738772217710749400,6.55974951171875,0.0012295593041926622,0.0002802829258143902,0.00029667362105101347
1738772217720740600,6.56974072265625,0.00034805305767804384,0.001085889060050249,-0.0008357025217264891
1738772217730731500,6.5797314453125,-0.00010530336294323206,0.00035487907007336617,0.0006527896039187908
1738772217740723500,6.589723388671875,-0.0007399346213787794,-0.00018041604198515415,0.0004405356594361365
1738772217750714600,6.599714599609375,0.00046035670675337315,0.00006490014493465424,-0.0012234228197485209
1738772217760705500,6.60970556640625,-0.00040517060551792383,-0.0001486854162067175,-0.0005014398484490812
1738772217770696400,6.619696533203125,-0.0013553492026403546,-0.00003370875492691994,-0.0006151170819066465
1738772217780687600,6.6296875,0.00006677873898297548,-0.000010272953659296036,-0.0002356166223762557
1738772217790678500,6.639678466796875,0.0008503388380631804,-0.0013208517339080572,-0.0024427995085716248
1738772217800669400,6.64966943359375,0.00015844963490962982,0.000004070810973644257,0.0002629721420817077
1738772217810661600,6.65966162109375,-0.0007911756983958185,-0.0005880703683942556,-0.0011456613428890705
1738772217820652500,6.669652587890625,0.00020404753740876913,0.000007945112884044647,-0.0003254078037571162
1738772217830643500,6.6796435546875,-0.0007011329289525747,-0.000508586410433054,-0.0011126294266432524
1738772217840634400,6.68963427734375,0.0002666597720235586,0.00028157327324151993,-0.0015669646672904491
1738772217850625500,6.69962548828125,-0.0008239058661274612,-0.0003132023848593235,0.000526667688973248
1738772217860616400,6.709616455078125,-0.0011075325310230255,0.0004535214975476265,-0.0008994550444185734
1738772217870608600,6.719608642578125,-0.0006295189959928393,-0.0006596359889954329,-0.0002636514836922288
1738772217880599600,6.729599609375,0.00044772971887141466,0.0003808611072599888,-0.0001249007909791544
1738772217890590500,6.739590576171875,0.001254550414159894,-0.0005842051468789577,0.00013807491632178426
1738772217900581400,6.749581298828125,-0.0004642537678591907,-0.0009778204839676619,-0.000008132628863677382
1738772217910572500,6.759572509765625,-0.0012378602987155318,-0.0006527705118060112,0.00001597491791471839
1738772217920563500,6.7695634765625,-0.002118567703291774,-0.0010762130841612816,-0.001368868863210082
1738772217930555600,6.7795556640625,-0.0001562819816172123,-0.000613201642408967,-0.00040102636558003724
1738772217940546600,6.789546630859375,-0.001993863144889474,-0.0004680594429373741,-0.001187457819469273
1738772217950537500,6.799537353515625,0.0011895663337782025,-0.0007658316753804684,-0.0013294311938807368
1738772217960528400,6.8095283203125,-0.0006549390382133424,0.0012203538790345192,-0.0002441930118948221
1738772217970519600,6.81951953125,-0.0009359248215332627,-0.00024740747176110744,-0.0017851839074864984
1738772217980510500,6.829510498046875,-0.0009412511717528105,-0.0011222558096051216,-0.0011521505657583475
1738772217990501400,6.83950146484375,-0.0020141969434916973,0.0020495974458754063,-0.0003951659018639475
1738772218000493600,6.84949365234375,0.000768007361330092,-0.000250041950494051,-0.0012918522115796804
1738772218010484500,6.859484375,0.0011774422600865364,0.0011736478190869093,-0.000028717651730403304
1738772218020475400,6.869475341796875,0.0005745026282966137,0.0002838859800249338,-0.00018664311210159212
1738772218030466600,6.879466552734375,0.0005114859668537974,-0.0005298531614243984,-0.00022025316138751805
1738772218040457500,6.88945751953125,0.0002773940796032548,-0.00022705178707838058,0.00015818202518858016
1738772218050448400,6.899448486328125,-0.0005828807479701936,6.600748747587204e-7,0.0004910462303087115
1738772218060440600,6.909440673828125,-0.0008462673285976052,0.0004941439256072044,-0.0005702234338968992
1738772218070431500,6.919431396484375,0.00023690995294600725,0.0006743152625858784,0.0004940314684063196
1738772218080423000,6.9294228515625,0.00002545490860939026,-0.00023302389308810234,0.0006948337540961802
1738772218090414000,6.9394140625,-0.000034327502362430096,-0.0010910667479038239,0.0013740294380113482
1738772218100405000,6.949405029296875,0.000480994232930243,0.000010416610166430473,-0.00012266715930309147
1738772218110396000,6.95939599609375,-0.001461257110349834,0.0004217366222292185,-0.000019387458451092243
1738772218120388000,6.96938818359375,-0.0003035810077562928,-0.0006637678015977144,-0.002276682760566473
1738772218130379000,6.97937890625,-0.0002087935572490096,-0.0003367476165294647,-0.0004201712436042726
1738772218140370000,6.989369873046875,-0.000929977570194751,0.0004912291187793016,-0.00006810134800616652
1738772218150361000,6.999361083984375,0.0006231737788766623,0.0005542370490729809,-0.000534231192432344
1738772218160352000,7.00935205078125,-0.0014711361145600677,-0.0008029099553823471,-0.0015323839616030455
1738772218170343000,7.019343017578125,0.0005290820263326168,0.0002456523943692446,0.0008695644792169333
1738772218180333800,7.029333740234375,-0.0021290192380547523,0.000044583575800061226,0.0006133684073574841
1738772218190326000,7.039325927734375,0.0012775964569300413,-0.0015336675569415092,0.0006335547077469528
1738772218200317000,7.04931689453125,0.0011263287160545588,-0.000944576459005475,-0.00047858135076239705
1738772218210308000,7.05930810546875,0.0005569676868617535,0.0009585972875356674,0.0014222896425053477
1738772218220299000,7.069299072265625,0.0010962577071040869,-0.0013295907992869616,-0.000742860313039273
1738772218230290000,7.0792900390625,-0.0001134809572249651,0.0003666833508759737,-0.00189723982475698
1738772218240280800,7.08928076171875,-0.0017084480496123433,0.0010511155705899,-0.0005656592547893524
1738772218250273000,7.09927294921875,0.0010422090999782085,0.0003330253530293703,-0.0017017031786963344
1738772218260264000,7.109263916015625,-0.0010907164542004466,0.0003828264307230711,0.0007665145676583052
1738772218270254800,7.1192548828125,-0.00013377005234360695,-0.0009874890092760324,0.0003644787648227066
1738772218280246000,7.12924609375,0.00040338956750929356,0.0008333141449838877,0.00005581841105595231
1738772218290237000,7.13923681640625,0.0006659638602286577,0.0011124867014586926,-0.00035521097015589476
1738772218300227800,7.149227783203125,0.0008787503466010094,-0.0003463928587734699,0.0018339073285460472
1738772218310219000,7.159218994140625,-0.00048400298692286015,-0.0026387088000774384,-0.001179661019705236
1738772218320211000,7.1692109375,-0.0010067815892398357,-0.0014530695043504238,0.000011038326192647219
1738772218330201900,7.179201904296875,-0.0009323519188910723,-0.0003987615928053856,-0.00034733989741653204
1738772218340193000,7.189193115234375,-0.0003160964697599411,-0.0003899731673300266,-0.000677571864798665
1738772218350184000,7.199183837890625,0.00072247046045959,0.0010968227870762348,-0.0009534081909805536
1738772218360174800,7.2091748046875,-0.0006953964475542307,-0.0007575363852083683,-0.00023408839479088783
1738772218370166000,7.219166015625,0.0013677339302375913,0.00019394350238144398,-0.0004819496243726462
1738772218380158000,7.229157958984375,0.00018742086831480265,0.00007942738011479378,0.0003359071270097047
1738772218390148900,7.23914892578125,0.0004953949246555567,0.0005714609287679195,0.0006579728215001523
1738772218400140000,7.24914013671875,0.0005127054173499346,-0.00026956526562571526,-0.00017399870557710528
1738772218410131000,7.259130859375,0.002012993209064007,0.001006358303129673,-0.0005019520176574588
1738772218420121900,7.269121826171875,-0.0012813368812203407,0.0005275220610201359,-0.00032112339977175
1738772218430113000,7.279113037109375,-0.0008893489721231163,0.0003237859345972538,-0.00021680418285541236
1738772218440105000,7.28910498046875,0.0006683339597657323,0.00009342259727418423,-0.00005461767432279885
1738772218450095900,7.299095947265625,-0.001024175202473998,-0.0011049213353544474,-0.0006262878305278718
1738772218460087000,7.309087158203125,0.0008648049551993608,0.00029430328868329525,0.00042353023309260607
1738772218470078000,7.319077880859375,0.0007549431174993515,-0.0006363049615174532,0.00018295548215974122
1738772218480068900,7.32906884765625,-0.000579833285883069,0.0003344174474477768,0.0012918957509100437
1738772218490059800,7.339059814453125,-0.0006105794454924762,-0.0005137866828590631,-0.0017572077922523022
1738772218500051000,7.349051025390625,0.001153764664195478,-0.0008008754812180996,-0.0006525286007672548
1738772218510043000,7.35904296875,-0.0005243316991254687,0.0003725059796124697,0.00035982474219053984
1738772218520034000,7.369033935546875,0.001842952100560069,0.0007847633678466082,0.0003331931075081229
1738772218530025000,7.37902490234375,0.0004731373628601432,0.0017484223935753107,-0.00024585906066931784
1738772218540015900,7.389015869140625,0.0009698170470073819,0.0012410904746502638,-0.00044319930020719767
1738772218550006800,7.3990068359375,-0.0000337695237249136,0.00028081005439162254,-0.0013726025354117155
1738772218559998000,7.408998046875,0.00009779061656445265,-0.00006406917236745358,-0.00004794623237103224
1738772218569990000,7.418989990234375,-0.0005907792365178466,0.0006658798083662987,0.0007237718673422933
1738772218579980800,7.428980712890625,0.0009767574956640601,0.0004552239552140236,0.0003738325322046876
1738772218589972000,7.438971923828125,-0.0004076267941854894,-0.000505899079144001,0.000980863464064896
1738772218599963000,7.448962890625,0.0012312826002016664,0.0004043690860271454,0.0008330580312758684
1738772218609953800,7.458953857421875,0.00037286081351339817,0.0011733844876289368,-0.0006934782722964883
1738772218619945000,7.468945068359375,0.0005486294394358993,0.0003925459459424019,0.0005552779184654355
1738772218629937000,7.47893701171875,0.0008245127974078059,-0.00010624760761857033,0.00025301927234977484
1738772218639927800,7.488927734375,0.00043435965199023485,-0.0007704398594796658,-0.0007640419062227011
1738772218649919000,7.4989189453125,-0.001241204678080976,-0.0004323979374021292,-0.0005327577237039804
1738772218659910000,7.508909912109375,-0.00196079071611166,-0.00036581908352673054,0.000982847181148827
1738772218669900800,7.51890087890625,0.001175410463474691,-0.00017435266636312008,-0.0013585776323452592
1738772218679892000,7.52889208984375,0.0013754138490185142,0.00016120565123856068,0.0012883382150903344
1738772218689884000,7.5388837890625,-0.0007169510936364532,0.000019322847947478294,0.0005165920592844486
1738772218699874800,7.548874755859375,-0.00020722206681966782,-0.0011761700734496117,0.0014039573725312948
1738772218709866000,7.558865966796875,0.0006479031872004271,0.000609351322054863,-0.0009813880315050483
1738772218719857000,7.56885693359375,-0.00022081995848566294,0.0009864550083875656,0.0006750981556251645
1738772218729847800,7.578847900390625,-0.0003753612982109189,-0.00006180955097079277,-0.0005839619552716613
1738772218739839000,7.5888388671875,-0.0008960092673078179,-0.0005917784292250872,0.0002067305613309145
1738772218749830000,7.598829833984375,0.0001141267130151391,0.0003869403153657913,0.001130472170189023
1738772218759821800,7.60882177734375,0.0009386413730680943,0.0001637674868106842,-0.0006202898221090436
1738772218769813000,7.61881298828125,0.0008850495796650648,0.00042789080180227757,-0.0006353175267577171
1738772218779804000,7.628803955078125,-0.00031603610841557384,-0.0004640016704797745,-0.0008180104196071625
1738772218789794800,7.638794921875,0.0008317653555423021,-0.00029765861108899117,0.0003022673772647977
1738772218799785700,7.64878564453125,-0.0013485646340996027,0.00005787331610918045,0.0016756594413891435
1738772218809777000,7.65877685546875,0.0011759486515074968,-0.001141560496762395,-0.0007867607055231929
1738772218819768800,7.668768798828125,-0.0012698983773589134,0.0004382268525660038,0.0012135396245867014
1738772218829760000,7.678760009765625,0.0009517460130155087,0.0008412774186581373,-0.0009716764907352626
1738772218839751000,7.6887509765625,0.0008276426233351231,-0.0016988455317914486,0.0008027877192944288
1738772218849741800,7.698741943359375,-0.0000882130116224289,-0.0004867485258728266,-0.0003233549068681896
1738772218859733000,7.70873291015625,0.000009258626960217953,0.0017606932669878006,-0.0013326929183676839
1738772218869724200,7.71872412109375,-0.00018972123507410288,0.00033234129659831524,0.0007466517854481936
1738772218879715800,7.7287158203125,0.00003931066021323204,-0.0006463706959038973,0.00030536603298969567
1738772218889706800,7.738706787109375,-0.0006762546836398542,-0.0010617785155773163,0.00006526443758048117
1738772218899698000,7.748697998046875,0.0015685238176956773,-0.000353111419826746,0.0000516823201905936
1738772218909688800,7.758688720703125,-0.00024379324167966843,-0.001498458907008171,0.001244627172127366
1738772218919680000,7.768679931640625,0.000298958970233798,0.0003425844479352236,-0.000600410858169198
1738772218929671200,7.778671142578125,0.00016461708582937717,0.00012468243949115276,-0.0003291613538749516
1738772218939662000,7.788662109375,0.00045037432573735714,-0.00012778537347912788,0.00043250274029560387
1738772218949653800,7.79865380859375,0.0020337244495749474,0.0006784496363252401,0.00027113768737763166
1738772218959645000,7.80864501953125,-0.0011141318827867508,-0.00017243041656911373,0.00017739442409947515
1738772218969635800,7.8186357421875,-0.001801864244043827,0.0005056567024439573,0.001048567472025752
1738772218979627000,7.828626953125,0.0006093617994338274,0.0002944681327790022,-0.0009325580904260278
1738772218989618200,7.8386181640625,0.0010096034966409206,-0.00020475010387599468,0.00038732599932700396
1738772218999609000,7.848609130859375,-0.0004207802703604102,0.0003731558099389076,-0.0005564983002841473
1738772219009600800,7.858600830078125,-0.0005294679431244731,-0.0015292835887521505,0.0008203560137189925
1738772219019592000,7.868592041015625,0.0007459198823198676,-0.0012882673181593418,-0.00015382833953481168
1738772219029583000,7.8785830078125,-0.00007374456617981195,-0.0010421057231724262,-0.0006978270830586553
1738772219039574000,7.888573974609375,0.002107384381815791,0.0021739276126027107,0.00044360372703522444
1738772219049565200,7.898565185546875,0.0005455417558550835,-0.0005226221401244402,0.00011055497452616692
1738772219059556000,7.90855615234375,-0.0007634018547832966,0.00008537760004401207,0.0001491708098910749
1738772219069547800,7.9185478515625,0.0005380093352869153,0.0006179171614348888,-0.000009169336408376694
1738772219079539000,7.9285390625,0.00014146463945508003,0.0005848938599228859,0.000250222539762035
1738772219089530400,7.9385302734375,-0.00011749821715056896,-0.0014198760036379099,-0.0007854175055399537
1738772219099521300,7.948521240234375,-0.0016541420482099056,-0.00014741765335202217,0.0010455057490617037
1738772219109512400,7.958512451171875,-0.0007122709648683667,0.0009398751426488161,-0.0007042641518637538
1738772219119503600,7.968503662109375,-0.0012638116022571921,0.0008245601784437895,0.00019295484526082873
1738772219129494500,7.97849462890625,-0.0013058613985776901,0.0005791550502181053,0.00010533063323237002
1738772219139486500,7.988486572265625,0.0005202681059017777,-0.0004573473706841469,-0.0005940154660493135
1738772219149477400,7.998477294921875,0.0009453459642827511,0.0005071312189102173,0.0017340531339868903
1738772219159468300,8.00846826171875,0.0010785041376948357,0.00039794156327843666,0.0004943517269566655
1738772219169459500,8.01845947265625,0.0009120728354901075,0.0007373346015810966,-0.00024368833692278713
1738772219179450600,8.02845068359375,0.0017472400795668364,-0.00008851173333823681,0.0002103806473314762
1738772219189441500,8.038441650390626,0.0010911140125244856,0.0016032860148698092,0.00025534696760587394
1738772219199433500,8.04843359375,-0.0003821466816589236,-0.0010457602329552174,-0.00042828646837733686
1738772219209424400,8.05842431640625,0.0006813788786530495,0.0016800693701952696,0.000865242094732821
1738772219219415600,8.06841552734375,0.0005383671959862113,-0.0007410102989524603,-0.0018991191172972322
1738772219229406500,8.078406494140625,0.001369279925711453,-0.0005851949099451303,0.00017291028052568436
1738772219239397600,8.088397705078124,0.00008137524127960205,-0.0009465857874602079,-0.0017355108866468072
1738772219249388500,8.098388427734376,0.0006488490616902709,-0.0007533289026468992,-0.00041525985579937696
1738772219259379500,8.10837939453125,-0.0003053615801036358,-0.000027084723114967346,-0.0003500124148558825
1738772219269371400,8.118371337890625,0.0004728318890556693,-0.00041052279993891716,0.00017929432215169072
1738772219279362600,8.128362548828125,-0.00023823219817131758,-0.0014486229047179222,-0.00034508208045735955
1738772219289353500,8.138353515625,0.0004895009333267808,0.0014143078587949276,-0.000918507925234735
1738772219299344600,8.1483447265625,-0.0012546032667160034,0.000026002060621976852,-0.0006079833256080747
1738772219309335600,8.15833544921875,-0.0011472041951492429,0.0005631099920719862,-0.0010187375592067838
1738772219319326500,8.168326416015624,0.0001963605172932148,0.000035804230719804764,0.00003214579191990197
1738772219329318400,8.178318359375,0.00024031172506511211,0.000579561572521925,-0.0009330804459750652
1738772219339309600,8.1883095703125,-0.0009565128711983562,-0.0010497604962438345,-0.0007147012511268258
1738772219349300500,8.198300537109375,0.00014580460265278816,-0.0005745997186750174,-0.0007098080241121352
1738772219359291600,8.208291748046875,0.0002153130481019616,9.094364941120148e-7,-0.00041393080027773976
1738772219369282600,8.218282470703125,0.0011360056232661009,-0.0002259484026581049,0.0007560066878795624
1738772219379273500,8.2282734375,0.0008204211480915546,-0.00039212964475154877,-0.00022350394283421338
1738772219389265700,8.238265625,-0.00045123614836484194,0.0017193590756505728,0.0003246153937652707
1738772219399256600,8.248256591796874,-0.001132739125750959,-0.00084712915122509,-0.00007512506272178143
1738772219409247500,8.25824755859375,-0.00044560583774000406,0.0004360191524028778,-0.0014516612282022834
1738772219419238700,8.26823876953125,0.0005224532214924693,-0.0004691891372203827,0.0006061632884666324
1738772219429229600,8.2782294921875,0.0007595887873321772,-0.0007226231973618269,0.001135773491114378
1738772219439220500,8.288220458984375,-0.0006124718929640949,-0.00017907191067934036,0.0010990218725055456
1738772219449211400,8.29821142578125,-0.0005036788061261177,-0.00020021875388920307,-0.0009742252295836806
1738772219459202600,8.30820263671875,0.00021697254851460457,-0.0006625435780733824,0.00003537912562023848
1738772219469194500,8.318194580078124,-0.0005331364227458835,0.0004917783662676811,0.00044576061191037297
1738772219479185700,8.328185546875,-0.0006519134039990604,0.0016800807788968086,0.0009301896207034588
1738772219489176600,8.338176513671876,-0.0005678636953234673,-0.0003861465957015753,-0.0001534724433440715
1738772219499167500,8.34816748046875,-0.0006469595828093588,-0.00031344243325293064,0.00016504163795616478
1738772219509158400,8.358158447265625,0.000170903280377388,0.0009248675778508186,-0.001118313753977418
1738772219519149600,8.368149658203125,0.00006863789167255163,-0.000011233380064368248,-0.0000634356911177747
1738772219529140500,8.378140380859374,0.00016977312043309212,-0.0010530625004321337,0.000004253379302099347
1738772219539132400,8.38813232421875,0.00045339984353631735,-0.000023218104615807533,0.0007728416239842772
1738772219549123600,8.39812353515625,0.0012527862563729286,-0.0009587930981069803,-0.0007930920110084116
1738772219559114500,8.408114501953126,-0.00003911321982741356,0.00043723592534661293,-0.0008644646732136607
1738772219569105400,8.41810546875,0.0008568041957914829,0.0006201285868883133,0.001284909201785922
1738772219579096600,8.4280966796875,0.0015862439759075642,-0.0005484665744006634,-0.0008200532756745815
1738772219589087500,8.43808740234375,-0.0009065690101124346,0.00025514978915452957,-0.0012385365553200245
1738772219599079400,8.448079345703125,-0.0013486538082361221,0.0005148081108927727,-0.0008960540289990604
1738772219609070600,8.458070556640624,0.0007794421399012208,-0.0005169154610484838,0.000331520801410079
1738772219619061500,8.4680615234375,-0.00011591252405196428,-0.0005547325126826763,-0.0011790242278948426
1738772219629052400,8.478052490234376,-0.00019172264728695154,0.0000046570785343647,0.0003910704399459064
1738772219639043600,8.488043701171875,0.00035342643968760967,-0.0012861769646406174,-0.0007676709210500121
1738772219649034500,8.498034423828125,-0.001071627950295806,0.0003782152198255062,-0.000577289261855185
1738772219659026400,8.5080263671875,0.00005542172584682703,-0.00003244401887059212,-0.003040446899831295
1738772219669017600,8.518017578125,-0.0016824164194986224,-0.0010673485230654478,0.0006889665964990854
1738772219679008500,8.528008544921875,-0.0002965073799714446,-0.0001749233342707157,-0.0005805622786283493
1738772219688999400,8.53799951171875,-0.001294414047151804,0.000011671800166368484,-0.0011279736645519733
1738772219698990600,8.547990478515626,-0.0006760280812159181,0.0004076836630702019,0.0010576826753094792
1738772219708981500,8.5579814453125,0.0005624165059998631,-0.00088534876704216,0.00013655339716933668
1738772219718973400,8.567973388671875,0.00006413902156054974,-0.0008922731503844261,0.0006619950872845948
1738772219728964600,8.577964599609375,-0.0008697294979356229,0.000243437010794878,0.0015094131231307983
1738772219738955500,8.58795556640625,0.0007223081775009632,-0.00130918575450778,0.0007682553841732442
1738772219748946400,8.597946533203125,-0.0010846734512597322,0.00022149505093693733,0.00032234805985353887
1738772219758937300,8.607937255859374,0.0014168337220326066,-0.000633113319054246,0.0003242122766096145
1738772219768928500,8.617928466796876,0.0012786105507984757,0.0009206472896039486,0.0016564553370699286
1738772219778920400,8.62792041015625,0.000196035485714674,0.00045912154018878937,-0.0006170852575451136
1738772219788911600,8.63791162109375,0.0004449015250429511,-0.0001389689277857542,-0.00024235330056399107
1738772219798902500,8.647902587890625,-0.0008472641929984093,-0.0015001106075942516,0.00020798725017812103
1738772219808893400,8.6578935546875,-0.0007303919410333037,0.0016393987461924553,-0.00021500588627532125
1738772219818884400,8.66788427734375,0.00043420842848718166,-0.0005340070929378271,-0.00018411321798339486
1738772219828875500,8.67787548828125,-0.0006137711461633444,0.0016743596643209457,-0.001248399494215846
1738772219838867500,8.687867431640624,-0.0010116474004462361,-0.001487611560150981,-0.0007341429591178894
1738772219848858400,8.6978583984375,-0.0006159336771816015,0.0006803772412240505,0.0009832512587308884
1738772219858849500,8.707849609375,0.0006141804624348879,0.00016106106340885162,0.0006098761805333197
1738772219868840400,8.71784033203125,0.00018983392510563135,-0.000461706193163991,0.00043356360401958227
1738772219878831400,8.727831298828125,-0.0009116494911722839,0.00040648411959409714,0.0005619279691018164
1738772219888822500,8.737822509765625,0.0008453273912891746,-0.0013697275426238775,0.002441287972033024
1738772219898814500,8.747814453125,-0.00037360150599852204,-0.00024960190057754517,0.0014673700788989663
1738772219908805400,8.757805419921874,0.00036282441578805447,-0.0011899883393198252,0.0006629254785366356
1738772219918796500,8.767796630859374,-0.00017300364561378956,-0.00012552272528409958,0.00038063034298829734
1738772219928787500,8.777787353515626,0.0003959769383072853,-0.00042763748206198215,-0.0010752707021310925
1738772219938778400,8.7877783203125,0.0006859953282400966,0.0014344449155032635,0.000979091739282012
1738772219948769500,8.79776953125,0.0015335833886638284,-0.00024275388568639755,-0.0002739413466770202
1738772219958761500,8.807761474609375,0.0007303740130737424,0.0006949454545974731,-0.0007173576741479337
1738772219968752400,8.81775244140625,-0.0001524980179965496,-0.00020122178830206394,0.0005084393778815866
1738772219978743600,8.82774365234375,-0.0008627631468698382,-0.0005783254746347666,0.0005566425970755517
1738772219988734500,8.837734375,0.0008099062833935022,-0.0006412910297513008,-0.000242084453930147
1738772219998725400,8.847725341796876,-0.0001821212936192751,-0.0007486164104193449,0.0010056064929813147
1738772220008716500,8.857716552734376,0.000061565893702209,0.00005368003621697426,-0.0012004534946754575
1738772220018708500,8.86770849609375,-0.000005545793101191521,-0.0002893349155783653,0.001079745008610189
1738772220028699400,8.877699462890625,-0.0012681231601163745,-0.0003286851570010185,0.00020294306159485132
1738772220038690600,8.887690673828125,-0.0005280307377688587,-0.00043467897921800613,-0.0005134472739882767
1738772220048681500,8.897681396484375,-0.00044949445873498917,0.00031907763332128525,0.0016009865794330835
1738772220058672400,8.90767236328125,0.0009246965637430549,-0.00029850960709154606,0.0015977907460182905
1738772220068663300,8.917663330078126,0.00020026788115501404,-0.0009600927587598562,0.0009460472501814365
1738772220078654500,8.927654541015626,0.0005960136186331511,-0.0008796651381999254,-0.0012976658763363957
1738772220088645600,8.937645751953125,0.0011632286477833986,-0.0006710968445986509,0.0008404179243370891
1738772220098636500,8.947636474609375,-0.000024541164748370647,-0.000903324456885457,-0.0007558808429166675
1738772220108627500,8.95762744140625,-0.00017983175348490477,0.00003714160993695259,0.00013967629638500512
1738772220118618600,8.96761865234375,0.00014480750542134047,-0.0015224057715386152,0.000014507706509903073
1738772220128609500,8.977609619140624,0.000007675029337406158,0.0000027294736355543137,-0.00033324514515697956
1738772220138601500,8.9876015625,-0.00012841250281780958,0.0005406879354268312,-0.0003042166936211288
1738772220148592600,8.997592529296876,-0.0011326012900099158,0.00019399402663111687,-0.000982465222477913
1738772220158583600,9.00758349609375,-0.0009589631808921695,-0.00034343171864748,-0.0007246712339110672
1738772220168574500,9.017574462890625,0.0010332275414839387,-0.0009207760449498892,0.0007453617872670293
1738772220178565600,9.027565673828125,-0.0007585472776554525,-0.0007513989694416523,-0.0012560037430375814
1738772220188556500,9.037556640625,-0.00024816999211907387,0.000568390591070056,0.0009137395536527038
1738772220198548500,9.047548583984375,0.001038935617543757,-0.0004526653792709112,0.00021226296667009592
1738772220208539600,9.05753955078125,-0.0015627271495759487,-0.000624737236648798,0.0010636714287102222
1738772220218530600,9.067530517578126,-0.0008772295550443232,0.0009095096029341221,0.0007230532355606556
1738772220228521500,9.077521484375,-0.000467205245513469,-0.0000651027075946331,0.0009885096224024892
1738772220238512600,9.0875126953125,-0.00008530798368155956,-0.00047629489563405514,0.00024175926228053868
1738772220248503800,9.09750390625,0.0028967922553420067,-0.0006880566943436861,0.00031155894976109266
1738772220258495500,9.10749560546875,-0.00025079771876335144,0.0004041055217385292,-0.0007236117380671203
1738772220268486700,9.117486572265625,0.0018948204815387726,0.0010616900399327278,0.00005943187716184184
1738772220278477600,9.1274775390625,-0.00020375056192278862,0.0000768532045185566,0.000998196192085743
1738772220288468500,9.137468505859376,-0.0008066302980296314,0.00006273621693253517,0.0011336628813296556
1738772220298459600,9.147459716796876,0.0008567802142351866,0.0003397050313651562,0.0007712066872045398
1738772220308450800,9.157450927734375,-0.001309519517235458,0.000022664666175842285,-0.0003751061740331352
1738772220318442500,9.1674423828125,0.0019336779369041324,-0.001010908279567957,0.0010419618338346481
1738772220328433400,9.177433349609375,0.0006383494473993778,-0.00048279366455972195,0.00014840398216620088
1738772220338424600,9.187424560546875,0.0009810983901843429,-0.0006569644901901484,0.001008605002425611
1738772220348415500,9.19741552734375,-0.0013131077867001295,0.0007376561406999826,0.002016907325014472
1738772220358406700,9.20740673828125,-0.0002028358867391944,-0.00007567345164716244,0.00025123136583715677
1738772220368397800,9.217397705078126,0.000417651841416955,0.0006852573715150356,-0.0009225828689523041
1738772220378388700,9.227388671875,-0.0005828977446071804,0.0014756834134459496,0.001032177358865738
1738772220388380400,9.23738037109375,0.0012821780983358622,-0.0019507505930960178,0.00021577122970484197
1738772220398371600,9.24737158203125,0.00005925470031797886,0.00012172129936516285,-0.000523522263392806
1738772220408362800,9.25736279296875,-0.000481620489154011,-0.001079995883628726,0.0002059714461211115
1738772220418353700,9.267353759765625,-0.0018614042783156037,0.0008976676035672426,-0.000011342490324750543
1738772220428344800,9.2773447265625,0.00009918061550706625,-0.0004949183203279972,0.0003749856841750443
1738772220438335700,9.287335693359376,-0.0005045579746365547,0.000045969849452376366,0.000014127377653494477
1738772220448327400,9.297327392578126,0.0012064198963344097,-0.000534500228241086,0.0006088497466407716
1738772220458318600,9.307318603515625,0.0005648643709719181,0.0009651258587837219,0.0008863511029630899
1738772220468309800,9.317309814453125,-0.0006022206507623196,0.00003496604040265083,-0.0003629339043982327
1738772220478300700,9.32730078125,0.0002739593619480729,-0.0006257642526179552,0.0005870156455785036
1738772220488291800,9.337291748046875,0.001710873912088573,-0.00031304103322327137,0.0014897083165124059
1738772220498282800,9.34728271484375,0.0003702386748045683,-0.00007309019565582275,0.0013528218260034919
1738772220508274400,9.3572744140625,-0.0002359839854761958,0.0009610885754227638,0.0009258044883608818
1738772220518265600,9.367265625,-0.00027273560408502817,0.00017172796651721,-0.00020816946926061064
1738772220528256800,9.3772568359375,-0.0007407308439724147,0.0009358453098684549,-0.0010135002667084336
1738772220538247700,9.38724755859375,0.0007679499685764313,-0.0001336799468845129,0.0005250078393146396
1738772220548238600,9.397238525390625,0.0005265341605991125,0.000494473846629262,-0.00004800457099918276
1738772220558229800,9.407229736328125,0.00073372817132622,-0.0006016832776367664,-0.0005476135993376374
1738772220568221700,9.4172216796875,-0.00006974209100008011,-0.00010811700485646725,0.0005320528871379793
1738772220578212900,9.427212890625,0.0008716853335499763,-0.0005757680628448725,0.000213805164094083
1738772220588203800,9.437203857421874,0.00036706612445414066,0.0002672185655683279,-0.0008608695352450013
1738772220598194700,9.447194580078126,-0.0009741017711348832,0.00014231656678020954,0.00030772556783631444
1738772220608185600,9.457185546875,0.0006475802510976791,0.0005128341726958752,0.0008657258003950119
1738772220618176800,9.4671767578125,-0.0005226125940680504,0.0004625003784894943,0.000008986840839497745
1738772220628168700,9.477168701171875,0.001140378531999886,0.0005576654803007841,0.0011236508144065738
1738772220638159600,9.48715966796875,0.0007371759274974465,0.0002537991385906935,0.0011052750051021576
1738772220648150800,9.49715087890625,0.0007927793776616454,0.00016305409371852875,-0.0012727928115054965
1738772220658141700,9.5071416015625,0.0011589642381295562,0.00014600995928049088,0.00022177315258886665
1738772220668132600,9.517132568359376,0.00019158306531608105,-0.0020165666937828064,0.0016781940357759595
1738772220678123800,9.527123779296875,0.0002017030492424965,-0.0005763291846960783,-0.0005402191309258342
1738772220688115700,9.53711572265625,-0.0002890849718824029,-0.00008687004446983337,-0.0006926849018782377
1738772220698106600,9.547106689453125,0.0002619230654090643,0.0006391075439751148,0.000707605155184865
1738772220708097800,9.557097900390625,0.0003214403986930847,-0.0006552070844918489,0.0010740755824372172
1738772220718088700,9.567088623046875,-0.0006660597864538431,-0.00013003172352910042,-0.00024605344515293837
1738772220728079600,9.57707958984375,0.0005187457427382469,0.00013249879702925682,-0.00025071518030017614
1738772220738070800,9.58707080078125,0.00018105690833181143,-0.0004179768729954958,-0.0001854677393566817
1738772220748062700,9.597062744140626,0.00003076181747019291,0.00013016094453632832,-0.0011147708864882588
1738772220758053600,9.6070537109375,-0.00034980394411832094,-0.000009655021131038666,0.0014932628255337477
1738772220768044800,9.617044921875,-0.000026919646188616753,0.0008995693642646074,0.00019374587282072753
1738772220778035700,9.62703564453125,-0.00021014513913542032,0.0005229983944445848,-0.0008816385525278747
1738772220788026600,9.637026611328125,-0.0006637763581238687,-0.0001205061562359333,0.0007005882798694074
1738772220798017800,9.647017822265624,-0.000029943999834358692,0.0001402171328663826,-0.00031114660669118166
1738772220808008700,9.6570087890625,0.0005280793411657214,-0.0004749787040054798,0.0014865323901176453
1738772220818000600,9.667000732421876,-0.0008258717716671526,-0.0009958930313587189,-0.000113228517875541
1738772220827991800,9.67699169921875,0.00045222847256809473,0.0005733331199735403,0.000660709454677999
1738772220837982700,9.686982666015625,0.00007965217810124159,-0.0005790167488157749,0.0010471341665834188
1738772220847973600,9.6969736328125,-0.000021094223484396935,0.00015830155462026596,0.0009940896416082978
1738772220857964500,9.706964599609375,-0.0005334864254109561,0.0006286157295107841,-0.001099953893572092
1738772220867955700,9.716955810546875,-0.0006730176974087954,-0.0007099688518792391,-0.0015973526751622558
1738772220877947600,9.72694775390625,0.0008146240143105388,0.0001819238532334566,0.0008295858860947192
1738772220887938800,9.736938720703124,-0.0009991909610107541,0.00005926145240664482,-0.00010144449333893135
1738772220897929700,9.7469296875,-0.002103071194142103,0.00005553290247917175,0.0018719579093158245
1738772220907920600,9.756920654296875,-0.0012635929742828012,0.0008122208528220654,0.00025626400019973516
1738772220917911600,9.76691162109375,0.001991588855162263,-0.0004272144287824631,-0.0008976836688816547
1738772220927902700,9.77690283203125,-0.0006725811981596053,0.0010695743840187788,0.0006706351996399462
1738772220937894700,9.786894775390625,0.00045366957783699036,-0.0009962394833564758,0.000687679392285645
1738772220947885600,9.796885498046874,-0.0011915299110114574,0.000326724024489522,0.00017750549886841327
1738772220957876700,9.806876708984374,0.0005986469332128763,0.0009080918971449137,0.0010414349380880594
1738772220967867600,9.81686767578125,0.00027439813129603863,0.0016168518923223019,0.000754909822717309
1738772220977858600,9.826858642578125,0.00032499816734343767,-0.00016027549281716347,-0.0000672080204822123
1738772220987849700,9.836849609375,0.001374038984067738,-0.0003472203388810158,0.0005655423155985773
1738772220997841700,9.846841552734375,0.0008914741920307279,0.0008658494334667921,0.0006347845192067325
1738772221007832600,9.85683251953125,0.0006178186740726233,0.00029716501012444496,-0.0003955498104915023
1738772221017823700,9.86682373046875,0.0002945109736174345,0.0010476438328623772,0.00009074338595382869
1738772221027814700,9.876814697265624,0.0008731696289032698,0.0012933688703924417,-0.0019144921097904444
1738772221037805600,9.8868056640625,-0.000351884460542351,-0.0005878880620002747,-0.00005640453309752047
1738772221047796700,9.896796630859376,-0.0004539104411378503,-0.0006807404570281506,-0.000014342367649078369
1738772221057788700,9.90678857421875,0.0016049793921411037,-0.0005973835941404104,-0.00008385087858187035
1738772221067779600,9.916779541015625,0.000021110870875418186,-0.0008373425807803869,-0.0016297256806865335
1738772221077770800,9.926770751953125,0.00017477525398135185,-0.0014109874609857798,-0.001012671273201704
1738772221087762200,9.93676220703125,0.00040930474642664194,-0.0006212075240910053,0.0017326527740806341
1738772221097753000,9.946753173828125,-0.00039070879574865103,-0.0009333300404250622,-0.0003715108323376626
1738772221107744000,9.956743896484374,0.0005184048786759377,-0.0006109138485044241,-0.0008392548770643771
1738772221117736200,9.966736083984374,-0.0008246272336691618,0.0003502208273857832,0.0008321450441144407
1738772221127727000,9.97672705078125,-0.00021608464885503054,0.00010921899229288101,0.0016186053398996592
1738772221137718000,9.986718017578125,0.0011317412136122584,-0.00008013169281184673,-0.0011239178711548448
1738772221147709000,9.996708984375,-0.0004202430718578398,-0.00089054717682302,0.0010384496999904513
1738772221157700000,10.0067001953125,0.0010048142867162824,-0.0009925463236868382,-0.0003682319656945765
1738772221167691000,10.01669091796875,-0.0008695037104189396,0.0004852155689150095,0.00022463520872406662
1738772221177683200,10.02668310546875,-0.0013779011787846684,-0.0004671309143304825,0.0005300997872836888
1738772221187674000,10.036674072265624,-0.0007450874545611441,0.0006641896907240152,0.0004560544330161065
1738772221197665000,10.0466650390625,0.0005233761621639132,-0.0007819065358489752,-0.0007887070532888174
1738772221207656000,10.056656005859375,0.0002750653075054288,0.00006872974336147308,0.00006596207094844431
1738772221217647000,10.066647216796875,0.0006495057605206966,0.001306300750002265,-0.0008938411483541131
1738772221227638000,10.076637939453125,0.00029426789842545986,0.00029917224310338497,0.00031157274497672915
1738772221237630000,10.0866298828125,-0.0008540870621800423,-0.00025742826983332634,-0.0005430356250144541
1738772221247621000,10.09662109375,0.0012123322812840343,-0.0008365237154066563,-0.0005290586268529296
1738772221257612000,10.106612060546874,-0.0009339092066511512,0.0001389922108501196,0.00043500566971488297
1738772221267603000,10.11660302734375,0.00035009393468499184,-0.001046846155077219,0.0005242201150394976
1738772221277594000,10.126593994140626,0.0004558213986456394,0.0001782076433300972,0.0006730908062309027
1738772221287585000,10.1365849609375,0.0008152580121532083,0.0004943711683154106,-0.0002331455034436658
1738772221297576000,10.146575927734375,0.0006461472949013114,-0.0004308109637349844,-0.00015112014079932123
1738772221307568000,10.156568115234375,0.0005129972705617547,0.0009557155426591635,0.00034420614247210324
1738772221317559000,10.16655908203125,-0.0008758412441238761,0.00030590384267270565,-0.00035247678169980645
1738772221327550000,10.176550048828124,-0.0004507432458922267,0.0002519546542316675,0.0017471967730671167
1738772221337541000,10.186541015625,0.001018789131194353,0.0005337174516171217,-0.00028319726698100567
1738772221347532000,10.196531982421876,0.0005937285022810102,-0.0003200913779437542,0.0015118953306227922
1738772221357523000,10.20652294921875,0.0002379302168264985,0.0008314596489071846,0.0013454477302730083
1738772221367515100,10.21651513671875,-0.0012781773693859577,0.0004299578722566366,-0.0016701776767149568
1738772221377506000,10.226506103515625,-0.000562319706659764,0.0003982663620263338,0.0006305270362645388
1738772221387497000,10.2364970703125,-0.000647040840703994,0.0008831769227981567,0.0006017909036017954
1738772221397488000,10.246488037109375,0.0015524638583883643,0.0005849027074873447,0.0012484063627198339
1738772221407479000,10.25647900390625,-0.0007485497044399381,-0.0004654994700103998,-0.0018218648619949818
1738772221417470000,10.266469970703126,0.0009329702006652951,0.0018213570583611727,0.0003073324332945049
1738772221427462100,10.276462158203126,-0.00018653366714715958,0.0008151642978191376,0.0012237743940204382
1738772221437453000,10.286453125,0.001338658737950027,-0.00016088434495031834,0.0006352157797664404
1738772221447444000,10.29644384765625,0.00125831866171211,0.00004742620512843132,-0.0008384559769183397
1738772221457435000,10.306434814453125,-0.00009083864279091358,-0.00030411104671657085,0.000006564994691871107
1738772221467426000,10.316426025390625,0.0008473154157400131,-0.0005910759791731834,-0.001149943214841187
1738772221477417000,10.3264169921875,-0.000937801378313452,-0.0007798941805958748,0.0005054777720943093
1738772221487409200,10.3364091796875,-0.00010480242781341076,0.00016767717897891998,-0.0003367262543179095
1738772221497400000,10.346400146484376,0.000697874347679317,-0.0003271382302045822,-0.0013772232923656702
1738772221507391000,10.356390869140625,0.0015877302503213286,0.0008299883920699358,0.0007666238816455007
1738772221517382000,10.3663818359375,0.0011480423854663968,0.00015461095608770847,-0.000600909348577261
1738772221527373000,10.376373046875,0.0004307685885578394,-0.00005686795338988304,0.0019355571130290627
1738772221537364000,10.386364013671875,0.0009988209931179881,-0.0007602088153362274,-0.000026393638108856976
1738772221547356000,10.39635595703125,0.0014909559395164251,0.0019635555800050497,-0.0007121250382624567
1738772221557347000,10.40634716796875,-0.0001724545145407319,-0.0008495415095239878,0.00034701410913839936
1738772221567338000,10.416337890625,0.001210381044074893,0.00033313920721411705,0.0011752076679840684
1738772221577329000,10.426328857421876,0.0009749575983732939,0.000356841366738081,0.0006953059928491712
1738772221587320000,10.436320068359375,-0.00047164305578917265,0.0001683917362242937,-0.00006812752690166235
1738772221597311000,10.44631103515625,0.0007089362479746342,0.00035428046248853207,-0.0005099459667690098
1738772221607303000,10.456302978515625,-0.001656598993577063,0.00015955884009599686,0.0011814722092822194
1738772221617294000,10.466294189453125,-0.0003596395836211741,-0.0006535041611641645,0.00036361542879603803
1738772221627285000,10.476284912109374,0.0011496812803670764,-0.00031856587156653404,0.00016105317627079785
1738772221637276000,10.48627587890625,0.0003145140362903476,-0.000165966572239995,0.00006171726272441447
1738772221647267000,10.49626708984375,-0.000294785073492676,-0.00044676801189780235,-0.0007202692795544863
1738772221657258000,10.506258056640625,-0.001059644971974194,-0.0002307856921106577,-0.00036260674824006855
1738772221667250000,10.51625,-0.0012776621151715517,0.0011765467934310436,-0.0018518567085266113
1738772221677241000,10.526240966796875,-0.00047498533967882395,0.001055372878909111,0.00029278695001266897
1738772221687232000,10.53623193359375,-0.0008477616356685758,-0.00025648903101682663,-0.00038468983257189393
1738772221697223000,10.546222900390624,0.0009496057173237205,0.00018000323325395584,0.0013519574422389269
1738772221707214000,10.556214111328124,0.0014925693394616246,0.00008036522194743156,-0.0001049235652317293
1738772221717205000,10.566205078125,0.0006243787938728929,0.00039009074680507183,0.001087373704649508
1738772221727196000,10.57619580078125,0.0004214614164084196,0.00004494260065257549,-0.00030621845507994294
1738772221737188000,10.58618798828125,0.0017956525553017855,-0.0006035370752215385,0.0011489327298477292
1738772221747179000,10.596178955078125,0.00023751461412757635,0.00009713112376630306,-0.0013756409753113985
1738772221757170000,10.606169921875,0.0007935825269669294,0.00027769338339567184,0.0013237390667200089
1738772221767160800,10.616160888671875,0.0013986814301460981,0.0011309231631457806,0.0014350594719871879
1738772221777152000,10.626152099609374,-0.0021939228754490614,-0.001961006782948971,0.00022918012109585106
1738772221787143000,10.636142822265626,-0.0003150578704662621,0.0004725302569568157,0.0008847546996548772
1738772221797135000,10.646135009765626,-0.0012508926447480917,-0.000726691447198391,-0.00023989827604964375
1738772221807126000,10.6561259765625,0.0012451346265152097,-0.0012893190141767263,0.0006912287208251655
1738772221817117000,10.666116943359375,-0.000051292241550982,0.0004904712550342083,0.0007452908903360367
1738772221827107800,10.67610791015625,0.00011546607129275799,0.0005409219302237034,0.0006353921489790082
1738772221837099000,10.68609912109375,-0.0008392771705985069,-0.0007664239965379238,0.000917687255423516
1738772221847090000,10.69608984375,-0.0006002532318234444,-0.0003863524179905653,-0.00038264767499640584
1738772221857081900,10.706081787109374,0.0006490356754511595,-0.00021271430887281895,-0.00044363405322656035
1738772221867073000,10.716072998046876,-0.0010488901752978563,-0.00029725232161581516,-0.00010135513002751395
1738772221877064000,10.72606396484375,0.00147472124081105,0.0012974482960999012,0.000018220802303403616
1738772221887054800,10.736054931640625,-0.002259101951494813,-0.00030693551525473595,0.00023837485059630126
1738772221897046000,10.7460458984375,0.0006429447093978524,-0.0007815107237547636,-0.0013523312518373132
1738772221907037000,10.756036865234375,-0.00013543653767555952,0.0008830730803310871,0.00005694309948012233
1738772221917028900,10.76602880859375,-0.0014411844313144684,0.00020902673713862896,-0.00020378036424517632
1738772221927020000,10.77602001953125,0.0006346378941088915,-0.00004072091542184353,-0.00046533282147720456
1738772221937011000,10.786010986328124,-0.00034540542401373386,-0.0004143624100834131,0.0012489439686760306
1738772221947001900,10.796001953125,0.00028231902979314327,0.0002165660262107849,-0.00010070623829960823
1738772221956993000,10.805992919921875,0.001034129410982132,0.0002775522880256176,0.00030835531651973724
1738772221966984000,10.81598388671875,-0.0005457738880068064,-0.00031960615888237953,-0.0004416461451910436
1738772221976976000,10.825975830078125,0.0006675622425973415,0.000025539426133036613,-0.0003340544644743204
1738772221986967000,10.835967041015625,0.0011819961946457624,-0.0009480204898864031,0.0011594623792916536
1738772221996958000,10.8459580078125,-0.0000736842630431056,-0.00026092492043972015,0.00022922016796655953
1738772222006948900,10.855948974609374,0.0011827594134956598,-0.0006718763615936041,-0.0002030098985414952
1738772222016940000,10.86593994140625,-0.0009898474672809243,0.0006834063678979874,0.000801534450147301
1738772222026931000,10.875930908203125,-0.0030313648749142885,0.0006474729161709547,-0.00046753682545386255
1738772222036921900,10.885921875,0.0019095977768301964,0.00009273644536733627,0.0014020022936165333
1738772222046914000,10.8959140625,-0.0007817323785275221,-0.0003411401994526386,0.000188164267456159
1738772222056905000,10.905905029296875,-0.00036867609014734626,0.00015021301805973053,0.00018843059660866857
1738772222066896000,10.915895751953125,0.0005576423136517406,-0.0004536753986030817,-0.00022265363077167422
1738772222076886800,10.92588671875,-0.0001939017092809081,-0.000016650650650262833,0.0009091898100450635
1738772222086877700,10.935877685546876,0.001399013795889914,0.0007706726901233196,-0.0008316409075632691
1738772222096868900,10.945868896484376,0.0010655861115083098,-0.0001606347505003214,0.0003971416153945029
1738772222106860500,10.955860595703125,-0.0002962835133075714,-0.00038189301267266273,-0.00040449685184285045
1738772222116851700,10.965851806640625,0.00024513714015483856,0.0009763191919773817,-0.0011786777758970857
1738772222126842600,10.975842529296875,-0.0003407095209695399,0.00048425118438899517,-0.0002533446531742811
1738772222136833800,10.985833740234375,-0.00007679022382944822,0.000522334361448884,0.00015598323079757392
1738772222146825000,10.995824951171874,0.0005500296829268336,-0.0003194205928593874,0.0002557605621404946
1738772222156816000,11.00581591796875,0.001494652940891683,0.0000899073202162981,-0.00030004113796167076
1738772222166807600,11.0158076171875,0.0015985758509486914,-0.0009077456779778004,0.0018515709089115262
1738772222176798700,11.025798828125,-0.001407333998940885,-0.0003194534219801426,-0.0004693739174399525
1738772222186789600,11.03578955078125,-0.0004387577064335346,-0.0014220739249140024,0.00003921648021787405
1738772222196780800,11.04578076171875,0.0001889494014903903,-0.001954173669219017,-0.0012734555639326572
1738772222206772000,11.05577197265625,-0.0011599356075748801,0.0002799895592033863,0.0006712014437653124
1738772222216763000,11.065762939453125,-0.00022969342535361648,0.0008320626802742481,-0.00028647127328440547
1738772222226754600,11.075754638671874,0.00016966357361525297,-0.0006122852209955454,0.0008167463820427656
1738772222236745700,11.085745849609374,0.0003880427684634924,0.0012071863748133183,-0.0008008576696738601
1738772222246736600,11.095736572265626,-0.00040722673293203115,0.000383774284273386,-0.0011501808185130358
1738772222256727800,11.105727783203125,-0.0007342629251070321,-0.0007062577642500401,-0.0002801260561682284
1738772222266719000,11.115718994140625,0.0012334734201431274,-0.00047818059101700783,0.00028300052508711815
1738772222276710000,11.1257099609375,0.00039005023427307606,-0.0004771151579916477,-0.0006698785582557321
1738772222286701600,11.13570166015625,-0.0004369622911326587,0.000776433851569891,-0.0004573311598505825
1738772222296692700,11.145692626953124,-0.0007898311596363783,0.001074175350368023,0.00021511700470000505
1738772222306684000,11.155683837890624,0.0003514639101922512,-0.00023242621682584286,0.0012015923857688904
1738772222316674800,11.1656748046875,0.001612737076357007,-0.0001922126393765211,-0.00005488710303325206
1738772222326665700,11.175665771484375,-0.001523020793683827,-0.0006124782375991344,-0.000473441876238212
1738772222336657000,11.185656982421875,0.0001353296684101224,0.0012373533099889755,0.0004016728780698031
1738772222346648600,11.195648681640625,0.0016242157435044646,0.0010186182335019112,0.0007455446175299585
1738772222356639700,11.2056396484375,-0.0009140431066043675,0.0003182068467140198,0.0005106537719257176
1738772222366631000,11.215630859375,0.000876538222655654,0.000020431820303201675,-0.00009978018351830542
1738772222376621800,11.225621826171874,-0.0003527769586071372,0.0008414844051003456,-0.00011096546950284392
1738772222386612700,11.23561279296875,-0.0002506761811673641,0.00018914882093667984,-0.001035961788147688
1738772222396604000,11.24560400390625,-0.0003263099351897836,-0.00005080224946141243,0.0010471628047525883
1738772222406595600,11.255595703125,0.00012996629811823368,-0.0006907552015036345,0.0012010968057438731
1738772222416586800,11.265586669921875,0.0006612668512389064,-0.00005399342626333237,-0.0003201007202733308
1738772222426578000,11.275577880859375,0.00017443322576582432,0.0008511212654411793,-0.0000325734872603789
1738772222436568800,11.28556884765625,0.0008317013271152973,0.00001249159686267376,0.00044919236097484827
1738772222446559700,11.295559814453124,-0.0012220278149470687,-0.0005984206218272448,-0.000799549394287169
1738772222456551000,11.305551025390624,-0.00018446031026542187,0.0005222377367317677,-0.00042217952432110906
1738772222466541800,11.315541748046876,-0.002073218347504735,0.0005691254045814276,-0.00003811901842709631
1738772222476533800,11.32553369140625,-0.000024714856408536434,-0.0005510000046342611,0.0007009081891737878
1738772222486525000,11.33552490234375,-0.00015176850138232112,-0.0008339204359799623,0.0012558019952848554
1738772222496515800,11.345515869140625,-0.0007565723499283195,0.0008207014761865139,-0.0011559566482901573
1738772222506506800,11.3555068359375,0.0005352130392566323,-0.00003859656862914562,0.0005344523815438151
1738772222516498000,11.365497802734374,0.0003959296736866236,0.0002599440049380064,-0.0002842032699845731
1738772222526488800,11.37548876953125,0.0000777543755248189,-0.0008904438000172377,-0.00040425360202789307
1738772222536480800,11.385480712890624,0.0006948087830096483,-0.0003365064039826393,0.0003566115046851337
1738772222546472000,11.395471923828126,0.002099455799907446,0.0002750295680016279,-0.0005526350578293204
1738772222556462800,11.405462890625,-0.0007677034591324627,-0.0002946204040199518,0.00018559319141786546
