time,seconds_elapsed,z,y,x
1738772211172788000,0.0217880859375,0.0015939018921926618,0.0028876655269414186,0.001377919572405517
1738772211182780000,0.03177978515625,0.0024445154704153538,0.0037816886324435472,0.00021012341312598437
1738772211192771000,0.04177099609375,0.0014732606941834092,0.004948153160512447,0.0010037453612312675
1738772211202762000,0.051761962890625,0.0009882990270853043,0.0035627768374979496,0.0013225257862359285
1738772211212753000,0.0617529296875,0.0005185174522921443,0.0028900622855871916,-0.000791491474956274
1738772211222743800,0.071743896484375,-0.000319845654303208,0.003961452282965183,0.001064998097717762
1738772211232735000,0.08173486328125,0.0014405038673430681,0.0036093820817768574,-0.00028815402765758336
1738772211242726000,0.091725830078125,0.0016218650853261352,0.0043891556560993195,0.0007536745979450643
1738772211252717800,0.1017177734375,0.0024141555186361074,0.002779008587822318,0.0011507519520819187
1738772211262709000,0.111708984375,0.0015315839555114508,0.003826962551102042,-0.000922252656891942
1738772211272700000,0.121699951171875,0.002246110001578927,0.003876230912283063,0.0004040015337523073
1738772211282690800,0.13169091796875,0.000005326322025211994,0.004061320796608925,0.001939313835464418
1738772211292682000,0.141681884765625,0.0011763182701542974,0.0033241575583815575,0.0010242518037557602
1738772211302673000,0.1516728515625,0.00005912217602599412,0.004384628497064114,-0.00029774141148664057
1738772211312663800,0.161663818359375,0.000985103310085833,0.004846686962991953,0.0011044129496440291
1738772211322656000,0.171656005859375,0.0002668487431947142,0.003438939806073904,0.0002567287301644683
1738772211332647000,0.18164697265625,0.0013464941876009107,0.003952131140977144,0.0009366337326355278
1738772211342637800,0.191637939453125,0.0023126890882849693,0.001535046030767262,0.0018053569365292788
1738772211352629000,0.20162890625,0.0017813884187489748,0.0033926009200513363,-0.0012841762509196997
1738772211362620000,0.211619873046875,0.0010524812387302518,0.004505536053329706,0.0014226606581360102
1738772211372610800,0.22161083984375,0.0005872269975952804,0.003980626817792654,-0.0009957558941096067
1738772211382601700,0.231601806640625,-0.00020266656065359712,0.004424042999744415,-0.0009755159262567759
1738772211392594000,0.241593994140625,0.00046339002437889576,0.0037004624027758837,0.0013262542197480798
1738772211402584800,0.251584716796875,0.0014500912511721253,0.0029758161399513483,0.00012303804396651685
1738772211412575700,0.26157568359375,0.0027028422337025404,0.0048826392740011215,0.002469016704708338
1738772211422567000,0.27156689453125,-0.00043276368523947895,0.0043505397625267506,0.0011819108622148633
1738772211432557800,0.281557861328125,0.00042290997225791216,0.002695651724934578,0.00003781688792514615
1738772211442548700,0.291548828125,0.0011582087026908994,0.003178216516971588,0.00008468852320220321
1738772211452540000,0.301539794921875,0.002350772265344858,0.0028535770252346992,0.0013755226973444223
1738772211462531800,0.31153173828125,0.0003832288784906268,0.0017534252256155014,-0.00010359696898376569
1738772211472522800,0.321522705078125,0.003562244353815913,0.0015717976493760943,0.0032730249222368
1738772211482514000,0.331513916015625,0.001377653214149177,0.003579554846510291,0.00005752427750849165
1738772211492504800,0.3415048828125,0.0008559399866499007,0.0038719698786735535,0.0006359628750942647
1738772211502495700,0.351495849609375,0.0006114617572166026,0.001659948262386024,0.0015837819082662463
1738772211512487000,0.36148681640625,0.0001584580895723775,0.002380067016929388,-0.0008655273704789579
1738772211522478800,0.371478759765625,0.002365153282880783,0.004707669839262962,0.001529187080450356
1738772211532469800,0.3814697265625,0.0010729875648394227,0.0028732845094054937,0.00028868665685877204
1738772211542461000,0.3914609375,0.001356347929686308,0.003032541600987315,-0.0005752427969127893
1738772211552451800,0.401451904296875,0.0026559706311672926,0.005092496518045664,0.001166198286227882
1738772211562442800,0.41144287109375,0.00177899154368788,0.0030389330349862576,-0.000031957933970261365
1738772211572434000,0.421433837890625,0.0016050871927291155,0.004686364438384771,-0.0009949569357559085
1738772211582424800,0.4314248046875,0.0009715211344882846,0.003177151083946228,0.00049082055920735
1738772211592416800,0.441416748046875,0.004026167094707489,0.0013246563030406833,-0.0016679377295076847
1738772211602408000,0.451407958984375,0.0031039142049849033,0.004710599314421415,-0.000511593243572861
1738772211612398800,0.46139892578125,0.001505484920926392,0.004000334069132805,0.0010996191995218396
1738772211622389800,0.4713896484375,0.0014769891276955605,0.002779541304334998,0.0003051982494071126
1738772211632380700,0.481380615234375,0.001939580193720758,0.0034237599465996027,-0.00002157160452043172
1738772211642371800,0.491371826171875,0.0028703550342470407,0.002799248555675149,0.000809068325906992
1738772211652363800,0.50136376953125,0.0015006912872195244,0.003102849004790187,-0.0009123989730142057
1738772211662355000,0.51135498046875,0.0023917849175632,0.0033449302427470684,0.0005179848521947861
1738772211672345900,0.521345947265625,0.0016202671686187387,0.0032945964485406876,0.0023526365403085947
1738772211682336800,0.531336669921875,0.0021526331547647715,0.003992877434939146,0.00023302659974433482
1738772211692327700,0.54132763671875,-0.0009366337326355278,0.004030694253742695,0.0007784419576637447
1738772211702318800,0.55131884765625,0.002606435678899288,0.00199337606318295,0.0006101301987655461
1738772211712309800,0.561309814453125,0.002808569697663188,0.003469033632427454,0.0005824333056807518
1738772211722301700,0.5713017578125,0.0005025385180488229,0.0037875475827604532,0.0009624664089642465
1738772211732292900,0.58129296875,0.0008476841612718999,0.0033505228348076344,0.001148355077020824
1738772211742283800,0.59128369140625,0.0011203918838873506,0.004411792848259211,0.0006290386663749814
1738772211752274700,0.601274658203125,0.0018551580142229795,0.002478870330378413,-0.0003038666909560561
1738772211762265900,0.611265869140625,0.0005118595436215401,0.004738296382129192,0.0006016080733388662
1738772211772256800,0.6212568359375,0.0003203782835043967,0.004723382648080587,0.00004713794987765141
1738772211782247700,0.63124755859375,0.0012658004416152835,0.004994226153939962,0.0008990831556729972
1738772211792239900,0.641239990234375,0.0005872269975952804,0.004764928016811609,0.0015483618481084704
1738772211802230800,0.651230712890625,0.0013486248208209872,0.003859453136101365,-0.0009448895580135286
1738772211812221700,0.6612216796875,0.0014586133183911443,0.0049430932849645615,-0.0011193265672773123
1738772211822212900,0.671212890625,0.0029619678389281034,0.004143878817558289,-0.0006325007416307926
1738772211832203800,0.681203857421875,0.002626675646752119,0.003772367723286152,-0.0007920240750536323
1738772211842194700,0.691194580078125,0.0015166702214628458,0.004525776021182537,-0.001186970854178071
1738772211852185600,0.701185546875,0.0008578042034059763,0.003870638320222497,-0.0012839100090786815
1738772211862177800,0.711177734375,0.0010269149206578732,0.0036418726667761803,0.0007270429632626474
1738772211872168700,0.721168701171875,0.0013073458103463054,0.004196076653897762,-0.00005299690383253619
1738772211882159900,0.731159912109375,-0.000041278995922766626,0.004308195784687996,0.0007206514128483832
1738772211892150800,0.74115087890625,0.00035926041891798377,0.004562793765217066,0.00045912896166555583
1738772211902141700,0.7511416015625,0.003093261504545808,0.005065598525106907,-0.0006388923502527177
1738772211912132900,0.7611328125,0.0018972359830513597,0.005050418432801962,-0.0012101404136046767
1738772211922124800,0.771124755859375,0.0025129588320851326,0.003322825999930501,0.000999484327621758
1738772211932115700,0.78111572265625,-0.00007004113285802305,0.004299673717468977,0.0002663161139935255
1738772211942106600,0.791106689453125,0.000360059377271682,0.0031158984638750553,-0.0008269115351140499
1738772211952097800,0.801097900390625,0.0007896272582001984,0.0037446708884090185,-0.0009361011325381696
1738772211962088700,0.811088623046875,0.0030916635878384113,0.004056526813656092,0.0010162622202187777
1738772211972079900,0.821079833984375,0.001980859087780118,0.0037699707318097353,0.0003755057114176452
1738772211982071000,0.831071044921875,0.0012993563432246447,0.003953462466597557,0.0028455876745283604
1738772211992062700,0.841062744140625,0.0024557008873671293,0.002460228279232979,-0.0005211806274019182
1738772212002053600,0.8510537109375,0.0007107976707629859,0.003436276689171791,0.0004743089957628399
1738772212012044800,0.861044921875,0.0016077503096312284,0.003888481529429555,-0.0005864280392415822
1738772212022035700,0.87103564453125,0.0015097459545359015,0.004011785611510277,0.0005195827106945217
1738772212032027000,0.88102685546875,0.0020777983590960503,0.004241084214299917,-0.00003914846820407547
1738772212042018000,0.89101806640625,0.0004846953088417649,0.0035502600949257612,0.00045140579459257424
1738772212052009700,0.901009765625,0.0017891116440296173,0.003991545643657446,0.0006250438746064901
1738772212062000600,0.911000732421875,0.0009587379754520953,0.003887682454660535,0.0005584649043157697
1738772212071991600,0.920991455078125,0.00070493872044608,0.0029814087320119143,0.00044794369023293257
1738772212081982500,0.930982421875,0.002570749493315816,0.0034788872580975294,-0.00013448962999973446
1738772212091973600,0.9409736328125,0.00034967303508892655,0.0027230822015553713,0.00021837920940015465
1738772212101964500,0.950964599609375,0.0013246563030406833,0.00495188171043992,0.0006500775925815105
1738772212111955500,0.96095556640625,0.0016349145444110036,0.0034554514568299055,0.000036751622246811166
1738772212121947600,0.97094775390625,0.0027776770293712616,0.002642388455569744,-0.0005286374944262207
1738772212131938600,0.9809384765625,0.0021145499777048826,0.004064782522618771,0.00038642468280158937
1738772212141929500,0.990929443359375,0.0015017564874142408,0.003917243797332048,0.0006599313346669078
1738772212151920600,1.000920654296875,0.0017592841759324074,0.005370264407247305,-0.00031185615807771683
1738772212161911600,1.01091162109375,0.000480434246128425,0.003093794221058488,0.00041305628838017583
1738772212171902500,1.02090234375,0.0010602044640108943,0.003976631909608841,-0.0009741843095980585
1738772212181893400,1.030893310546875,0.0005856291390955448,0.0029891319572925568,-0.0006588660762645304
1738772212191885600,1.040885498046875,0.001130245509557426,0.003582484321668744,-0.00013608753215521574
1738772212201876500,1.05087646484375,0.0024764735717326403,0.00361683894880116,0.0019883159548044205
1738772212211867600,1.06086767578125,0.00025513084256090224,0.0038962047547101974,-0.00030067088664509356
1738772212221858600,1.070858642578125,0.0018322548130527139,0.004275705199688673,-0.001333178486675024
1738772212231849500,1.080849365234375,0.0012386362068355083,0.0037404096219688654,-0.0008649947121739388
1738772212241840400,1.09084033203125,0.002968092914670706,0.0012146678054705262,0.0014136058744043112
1738772212251832600,1.10083251953125,0.0008021441171877086,0.0046173888258636,-0.0006064017652533948
1738772212261823500,1.110823486328125,-0.00006258428766159341,0.003832288784906268,-0.0004958806093782187
1738772212271814400,1.120814453125,0.0017749968683347106,0.002700977958738804,-0.00003834952076431364
1738772212281805600,1.1308056640625,0.0011078750248998404,0.003850398352369666,-0.0014852449530735612
1738772212291796500,1.14079638671875,0.0008767126128077507,0.004322310443967581,0.00012197277828818187
1738772212301787400,1.150787353515625,0.0017667410429567099,0.004071174189448357,-0.00008255799184553325
1738772212311778600,1.160778564453125,0.0008886968716979027,0.0031124362722039223,-0.0006676545017398894
1738772212321770500,1.1707705078125,0.0014026869321241975,0.003993143793195486,0.0010671286145225167
1738772212331761400,1.180761474609375,0.0007560714147984982,0.003896737238392234,0.002210956299677491
1738772212341752600,1.190752685546875,0.0014058827655389905,0.0038804919458925724,-0.00005832322858623229
1738772212351743500,1.200743408203125,0.001677791471593082,0.0032232238445430994,0.00026791400159709156
1738772212361734400,1.210734375,0.0035366779193282127,0.004565190523862839,0.0009049421059899032
1738772212371725600,1.2207255859375,0.00007616640505148098,0.0023758059833198786,0.0013137373607605696
1738772212381717500,1.230717529296875,0.0008548747282475233,0.0033478597179055214,-0.0007012102869339287
1738772212391708400,1.24070849609375,0.0016391756944358349,0.0038895467296242714,0.000322775129461661
1738772212401699600,1.250699462890625,0.00126766471657902,0.003600327530875802,-0.00023169501218944788
1738772212411690500,1.2606904296875,-0.00007776429993100464,0.004229099955409765,-0.0004522047529462725
1738772212421681400,1.270681396484375,-0.00022610237647313625,0.0032836776226758957,0.0012034825049340725
1738772212431672600,1.280672607421875,0.0002085255109705031,0.00361790438182652,0.0018383801216259599
1738772212441663500,1.29066357421875,0.0012863067677244544,0.003576359013095498,-0.00011451592581579462
1738772212451655400,1.300655517578125,-0.00018801917030941695,0.0033041839487850666,0.0006282397080212831
1738772212461646600,1.310646484375,0.0017957695527002215,0.004402471706271172,-0.00006125270738266408
1738772212471637500,1.320637451171875,0.0014426343841478229,0.004782238509505987,0.00040027310024015605
1738772212481628400,1.33062841796875,0.0006167881074361503,0.005115665961056948,0.001365402713418007
1738772212491619300,1.340619384765625,0.002886333968490362,0.004404069390147924,-0.0004159857635386288
1738772212501610500,1.350610595703125,0.001222390914335847,0.0020682108588516712,0.0006356965750455856
1738772212511602400,1.3606025390625,0.0019233349012210965,0.004107393324375153,-0.00015100123709999025
1738772212521593600,1.370593505859375,0.0027987160719931126,0.0032767534721642733,-0.0003150519623886794
1738772212531584500,1.38058447265625,0.0024109596852213144,0.0035683694295585155,0.0001656486128922552
1738772212541575400,1.390575439453125,0.0017691379180178046,0.00398648576810956,-0.0005866943974979222
1738772212551566300,1.40056640625,0.0011110707418993115,0.004521248396486044,0.001094825565814972
1738772212561557500,1.4105576171875,0.0008500810363329947,0.0035803536884486675,0.000928377965465188
1738772212571548400,1.42054833984375,0.0016133430181071162,0.003908987622708082,0.0009824400767683983
1738772212581540600,1.43054052734375,0.0007430219557136297,0.004079962614923716,0.0005214469274505973
1738772212591531500,1.440531494140625,0.001961151836439967,0.0029678267892450094,0.0012607404496520758
1738772212601522400,1.4505224609375,0.002666090615093708,0.0035004590172320604,0.0021944446489214897
1738772212611513300,1.460513427734375,0.0014631407102569938,0.003870904678478837,0.0014367754338309169
1738772212621504500,1.47050439453125,0.0000327568814100232,0.004257861990481615,-0.0009539442835375667
1738772212631495400,1.480495361328125,0.0002085255109705031,0.003922836389392614,0.00048176583368331194
1738772212641487400,1.4904873046875,0.002067678142338991,0.0014631407102569938,-0.0008644621120765805
1738772212651478500,1.500478515625,-0.00019920444174204022,0.004009122494608164,-0.0008154599345289171
1738772212661469400,1.510469482421875,0.0023883229587227106,0.003038134193047881,-0.0012354403734207153
1738772212671460400,1.52046044921875,0.0005672533297911286,0.004703408572822809,-0.0003507383225951344
1738772212681451500,1.530451416015625,0.0003802994033321738,0.0036693033762276173,0.00038535939529538155
1738772212691442400,1.5404423828125,0.00036724991514347494,0.00535561703145504,0.0007225155713967979
1738772212701433300,1.550433349609375,0.00213638786226511,0.002561694709584117,0.0006194512825459242
1738772212711425500,1.560425537109375,0.0013318468118086457,0.004501807503402233,0.0008048072922974825
1738772212721416400,1.57041650390625,0.0014631407102569938,0.004323908127844334,0.0007211840129457414
1738772212731407400,1.580407470703125,0.0016620787791907787,0.0033811493776738644,0.0014650048688054085
1738772212741398500,1.5903984375,-0.0005944175645709038,0.003328684950247407,-0.0001978728687390685
1738772212751389400,1.600389404296875,0.0011853729374706745,0.003069559345021844,0.0011528824688866735
1738772212761380400,1.61038037109375,0.0015241270884871483,0.0028999161440879107,0.0005789712304249406
1738772212771372500,1.62037255859375,0.0015582155901938677,0.004436559975147247,0.0006767092272639275
1738772212781363500,1.630363525390625,0.00009214537567459047,0.005193963181227446,0.000502804818097502
1738772212791354400,1.640354248046875,0.002712429501116276,0.00336117553524673,0.0001347559446003288
1738772212801345300,1.65034521484375,0.00021385183208622038,0.0032533176708966494,-0.0003270361921750009
1738772212811336400,1.66033642578125,0.002394714392721653,0.00449807895347476,-0.0003579288604669273
1738772212821327400,1.670327392578125,0.0004063983797095716,0.00418302696198225,0.0004601942200679332
1738772212831319600,1.680319580078125,0.0009555422002449632,0.004126035608351231,0.0006207828409969807
1738772212841310500,1.690310546875,0.0014181332662701607,0.003231213428080082,0.0009424926829524338
1738772212851301400,1.70030126953125,0.0008146609761752188,0.0033537186682224274,-0.0006340986583381891
1738772212861292300,1.710292236328125,0.0017305220244452357,0.004611796233803034,0.0014351775171235204
1738772212871283500,1.720283447265625,0.0020064255222678185,0.003734284546226263,-0.0014599448768422008
1738772212881274400,1.7302744140625,0.001326786819845438,0.003593935864046216,0.0013116068439558148
1738772212891266300,1.740266357421875,0.002347310073673725,0.004618986509740353,0.0009515474666841328
1738772212901257500,1.750257568359375,0.0004932174342684448,0.003035471076145768,-0.0005677859298884869
1738772212911248400,1.760248291015625,0.0018285263795405626,0.0035510589368641376,0.00030892668291926384
1738772212921239300,1.7702392578125,0.0020008329302072525,0.004000600427389145,0.0010245180455967784
1738772212931230500,1.78023046875,0.0016860472969710827,0.003739877138286829,-0.00034408041392453015
1738772212941221400,1.790221435546875,0.002046639332547784,0.00404507527127862,0.0004982774262316525
1738772212951212300,1.80021240234375,0.003135872073471546,0.0041010016575455666,0.0008791094878688455
1738772212961204500,1.81020458984375,0.0014245248166844249,0.0043931505642831326,0.0018216022290289402
1738772212971195400,1.8201953125,0.0007656587986275554,0.0030890004709362984,0.00014221279707271606
1738772212981186300,1.830186279296875,0.0003347593592479825,0.0035081820096820593,-0.0005629922379739583
1738772212991177500,1.840177490234375,0.0019539613276720047,0.0020034960471093655,-0.00023142869758885354
1738772213001168400,1.85016845703125,0.003254649229347706,0.004403004422783852,-0.000030360035452758893
1738772213011159300,1.8601591796875,0.00019627496658358723,0.0031433289404958487,-0.001020257011987269
1738772213021151500,1.8701513671875,0.001315335277467966,0.0028748824261128902,-0.00015233281010296196
1738772213031142400,1.880142333984375,0.0027081684675067663,0.0029254823457449675,0.0006330333999358118
1738772213041133300,1.89013330078125,0.0025800704024732113,0.002919357270002365,0.0005624596378766
1738772213051124500,1.90012451171875,0.0024740765802562237,0.00472524669021368,0.000532365869730711
1738772213061115400,1.910115478515625,0.0007547398563474417,0.0032826124224811792,-0.0016982977977022529
1738772213071106600,1.9201064453125,0.002594451420009136,0.0026082999538630247,-0.0002103897277265787
1738772213081098500,1.930098388671875,0.001586178783327341,0.002805373864248395,-0.00004820321555598639
1738772213091089400,1.94008935546875,0.0006583334179595113,0.004493285436183214,-0.0008966863388195634
1738772213101080600,1.95008056640625,0.0017917747609317303,0.0033862092532217503,0.0007161240209825337
1738772213111071500,1.960071533203125,0.002005360322073102,0.0035172367934137583,0.0005209143273532391
1738772213121062400,1.9700625,0.00213585514575243,0.003710848744958639,0.0006436860421672463
1738772213131053600,1.980053466796875,0.001329716295003891,0.005250954534858465,0.00048123320448212326
1738772213141044700,1.990044677734375,0.0013148026773706079,0.0038903458043932915,-0.0010183927370235324
1738772213151036400,2.000036376953125,0.0006556702428497374,0.005249356850981712,-0.0003842941368930042
1738772213161027600,2.010027587890625,-0.00012303804396651685,0.003951332066208124,0.0008594020619057119
1738772213171018500,2.0200185546875,0.000681236619129777,0.00478277076035738,-0.0004034689045511186
1738772213181009400,2.030009521484375,0.000606934423558414,0.005332979839295149,0.0012897689593955874
1738772213191000600,2.04000048828125,0.002401106059551239,0.002837864449247718,-0.0004772384709212929
1738772213200991700,2.04999169921875,0.00021784658019896597,0.002956375014036894,0.0007073355955071747
1738772213210983400,2.0599833984375,0.0013725932221859694,0.004260525107383728,0.0010439591715112329
1738772213220974600,2.069974609375,0.0012903015594929457,0.00245117349550128,-0.0007984156836755574
1738772213230965500,2.079965576171875,0.0006554039428010583,0.005260808393359184,0.000987500068731606
1738772213240956700,2.089956787109375,0.00039494677912443876,0.0041643851436674595,0.0000655137628200464
1738772213250947600,2.099947509765625,0.0009028115891851485,0.003781156148761511,0.0005669869715347886
1738772213260938800,2.109938720703125,0.0025648903101682663,0.0046999468468129635,0.000008788431841821875
1738772213270930400,2.119930419921875,0.0008554073283448815,0.0029459886718541384,-0.00042796999332495034
1738772213280921600,2.129921630859375,0.0018429075134918094,0.002118811011314392,0.0008362325606867671
1738772213290912500,2.13991259765625,0.0019228023011237383,0.005419266410171986,0.0006317017832770944
1738772213300903700,2.149903564453125,0.0004652542411349714,0.004211523104459047,0.000060986389144090936
1738772213310894600,2.15989453125,0.0021670141723006964,0.0023467775899916887,-0.0006165218073874712
1738772213320885800,2.1698857421875,0.0020418455824255943,0.00341550400480628,-0.0005403553950600326
1738772213330877400,2.17987744140625,0.0019984361715614796,0.0036165728233754635,0.00007936220208648592
1738772213340868400,2.189868408203125,0.0030562435276806355,0.0028011128306388855,-0.00016431703988928348
1738772213350859500,2.199859619140625,0.0019912454299628735,0.005009139887988567,0.0005462143453769386
1738772213360850700,2.2098505859375,0.0009078715811483562,0.003931358456611633,0.0006221143994480371
1738772213370841600,2.219841552734375,0.001517469179816544,0.0029614351224154234,0.0008625978953205049
1738772213380832800,2.229832763671875,0.002435993403196335,0.0037976677995175123,-0.00027297402266412973
1738772213390823700,2.23982373046875,0.0016048208344727755,0.0026647590566426516,0.0009515474666841328
1738772213400815400,2.2498154296875,0.0023377228062599897,0.003907123580574989,0.001190166687592864
1738772213410806500,2.259806640625,0.0019076223252341151,0.004393949639052153,0.0015219965716823936
1738772213420797700,2.269797607421875,0.0024045680183917284,0.004473045468330383,-0.0007981493836268783
1738772213430788600,2.27978857421875,0.0009824400767683983,0.004960670135915279,0.0005195827106945217
1738772213440779800,2.28977978515625,0.000850879936479032,0.0028911277186125517,-0.0008729841792955995
1738772213450770700,2.299770751953125,0.0017752632265910506,0.0033726270776242018,0.00020240024605300277
1738772213460762600,2.3097626953125,0.00227913330309093,0.003436276689171791,0.0005214469274505973
1738772213470753800,2.31975390625,0.0006258428329601884,0.004477572627365589,-0.000059388490626588464
1738772213480744700,2.32974462890625,0.0017470336752012372,0.004802212119102478,0.001418932224623859
1738772213490735600,2.339735595703125,0.0006878945278003812,0.004546548705548048,0.0017558221006765962
1738772213500726800,2.349726806640625,0.00293400464579463,0.004539890680462122,0.0005725796218030155
1738772213510717700,2.3597177734375,0.0026343988720327616,0.004511128645390272,-0.00006258428766159341
1738772213520708600,2.36970849609375,0.001253017340786755,0.0030061763245612383,0.000895621080417186
1738772213530700800,2.37970068359375,0.0028905950020998716,0.0025771409273147583,0.00035127095179632306
1738772213540691700,2.389691650390625,0.000984570593573153,0.0034677020739763975,0.0001294296234846115
1738772213550682600,2.3996826171875,0.0013374395202845335,0.0035065840929746628,-0.00012383698776829988
1738772213560673500,2.409673583984375,0.0012982910266146064,0.002576342085376382,0.0006652576266787946
1738772213570664700,2.419664794921875,0.00046605319948866963,0.0024194817524403334,0.0007853662245906889
1738772213580655600,2.429655517578125,0.0011153318919241428,0.003483148291707039,-0.0007627293234691024
1738772213590647800,2.439647705078125,0.0017454357584938407,0.0039867521263659,0.0005374259199015796
1738772213600638700,2.449638671875,0.00019094864546786994,0.0041127195581793785,-0.0005387574783526361
1738772213610629600,2.459629638671875,-0.000022370553779182956,0.003984888084232807,0.0003834952076431364
1738772213620620500,2.46962060546875,0.0023909860756248236,0.0033715618774294853,0.00013156015484128147
1738772213630611700,2.47961181640625,0.0014282532501965761,0.003652791725471616,0.000553404854144901
1738772213640602600,2.4896025390625,0.0007827030494809151,0.004069310147315264,-0.00022290658671408892
1738772213650593500,2.499593505859375,0.00017603494052309543,0.0027483822777867317,-0.0003201119543518871
1738772213660585700,2.509585693359375,0.0020652813836932182,0.004200603812932968,0.00046046054922044277
1738772213670576600,2.51957666015625,0.0013646037550643086,0.004854409955441952,0.0013286510948091745
1738772213680567600,2.529567626953125,0.002491120947524905,0.0044077979400753975,0.0007821703911758959
1738772213690558700,2.539558837890625,0.00020240024605300277,0.0029020465444773436,-0.00039015308720991015
1738772213700549600,2.549549560546875,-0.00018375810759607702,0.004898618441075087,-0.0007323693134821951
1738772213710540500,2.55954052734375,0.0013491574209183455,0.004926049150526524,0.0013640711549669504
1738772213720532700,2.56953271484375,0.0009275790071114898,0.004293282050639391,-0.0004625910660251975
1738772213730523600,2.579523681640625,0.0019379822770133615,0.0025957829784601927,-0.00019920444174204022
1738772213740514600,2.5895146484375,0.002266616327688098,0.0034269557800143957,-0.00020959076937288046
1738772213750505700,2.599505615234375,0.002734001260250807,0.00333241350017488,0.0009592706337571144
1738772213760496600,2.60949658203125,0.0007776430575177073,0.003001915058121085,-0.0009632653673179448
1738772213770487600,2.619487548828125,0.0024053670931607485,0.0016729978378862143,-0.0001555285998620093
1738772213780479700,2.629479736328125,0.0016391756944358349,0.00401551416143775,-0.0003206445835530758
1738772213790470700,2.639470703125,0.0013369068037718534,0.005392102058976889,0.0000013315805063029984
1738772213800461600,2.649461669921875,0.0022354573011398315,0.004258661065250635,0.0006436860421672463
1738772213810452700,2.65945263671875,0.00205276464112103,0.00336197461001575,0.0013720606220886111
1738772213820443600,2.669443603515625,-0.00005885586142539978,0.003099386813119054,0.0018647453980520368
1738772213830434600,2.6794345703125,0.0008743157959543169,0.003344131400808692,0.0006197175825946033
1738772213840425500,2.689425537109375,0.0005813680472783744,0.0031944618094712496,0.0014349111588671803
1738772213850417700,2.699417724609375,0.0008535431115888059,0.0036645096261054277,0.000003994741746282671
1738772213860408600,2.70940869140625,0.002406698651611805,0.0039084553718566895,0.00042051312630064785
1738772213870399500,2.7193994140625,-0.0012679309584200382,0.0036615801509469748,-0.00022423815971706063
1738772213880390700,2.729390625,0.002645051572471857,0.0038397456519305706,0.000004793690095539205
1738772213890381600,2.739381591796875,0.0012950951931998134,0.0014058827655389905,0.0008239820599555969
1738772213900372500,2.74937255859375,0.0006460828590206802,0.002825880190357566,0.00047590688336640596
1738772213910363600,2.75936376953125,0.0010287790792062879,0.003051982494071126,0.0015704660909250379
1738772213920355600,2.76935546875,0.00170761882327497,0.004048004746437073,0.0016045545926317573
1738772213930346500,2.779346435546875,0.0016309198690578341,0.0028607675340026617,0.0006034722900949419
1738772213940337700,2.789337646484375,0.0029262814205139875,0.0022913836874067783,0.002427471335977316
1738772213950328600,2.79932861328125,-0.00019361180602572858,0.003419232554733753,-0.00065460498444736
1738772213960319500,2.809319580078125,0.0013347762869670987,0.004451473709195852,-0.00016831177345011383
1738772213970310700,2.819310546875,0.0004362257895991206,0.003025883575901389,-0.0007270429632626474
1738772213980302600,2.829302490234375,0.003560912562534213,0.003082609036937356,-0.0011206581257283688
1738772213990293500,2.83929345703125,0.0017712684348225594,0.0035979305393993855,-0.0004652542411349714
1738772214000284700,2.84928466796875,0.0016138756182044744,0.003739877138286829,0.00023409185814671218
1738772214010275600,2.859275634765625,0.002255164785310626,0.003087136195972562,-0.0007576693315058947
1738772214020266500,2.8692666015625,0.0018967032665386796,0.004303934518247843,-0.0007004113867878914
1738772214030257700,2.879257568359375,0.0025989788118749857,0.00404640706256032,-0.00016165387933142483
1738772214040248600,2.88924853515625,0.0029356025625020266,0.0031313446816056967,0.0003880225704051554
1738772214050240500,2.899240478515625,0.0008436894277110696,0.003590473672375083,0.00006311691686278209
1738772214060231700,2.909231689453125,0.00001304948909819359,0.004923918284475803,0.0007270429632626474
1738772214070222600,2.91922265625,0.002216815249994397,0.004220843780785799,-0.0009867012267932296
1738772214080213500,2.929213623046875,0.000474575295811519,0.0038778288289904594,0.0016562198288738728
1738772214090204400,2.939204345703125,0.0003531351685523987,0.00222027744166553,0.0003483414766378701
1738772214100195600,2.949195556640625,0.0017872473690658808,0.004037618637084961,-0.0007976167253218591
1738772214110187500,2.9591875,0.0005573995877057314,0.00526586826890707,0.00009241169027518481
1738772214120178700,2.9691787109375,0.00010519486386328936,0.00264798104763031,0.00023568976030219346
1738772214130169600,2.979169677734375,0.0003432814555708319,0.00461579067632556,-0.0012373046483844519
1738772214140160500,2.989160400390625,0.0027651600539684296,0.003162770066410303,0.000672448193654418
1738772214150151400,2.9991513671875,0.0017547567840665579,0.00407490273937583,-0.0002644518972374499
1738772214160142600,3.009142578125,0.0004215783847030252,0.002602973720058799,0.0013691311469301581
1738772214170133500,3.019133544921875,0.0015877765836194158,0.004727377090603113,0.0017638115677982569
1738772214180125400,3.02912548828125,0.00028336033574305475,0.004989698529243469,0.001752093667164445
1738772214190116600,3.03911669921875,0.0015190670965239406,0.005496498197317123,0.0017504957504570484
1738772214200107500,3.049107421875,0.001050350721925497,0.005111937876790762,0.0006681871018372476
1738772214210098400,3.059098388671875,0.0029033781029284,0.005298891570419073,-0.0005896238726563752
1738772214220089600,3.069089599609375,-0.0003102582704741508,0.0038543930277228355,0.0013462279457598925
1738772214230080500,3.07908056640625,0.0016980315558612347,0.004688761197030544,-0.00009906959166983142
1738772214240072400,3.089072509765625,0.00038988678716123104,0.0022865901701152325,0.00003408846168895252
1738772214250063600,3.099063720703125,0.0018559569725766778,0.0038125813007354736,-0.0009451558580622077
1738772214260054500,3.109054443359375,0.0005281048361212015,0.00401657959446311,0.0019094864837825298
1738772214270045400,3.11904541015625,0.0029848709236830473,0.0035486621782183647,0.0010727213229984045
1738772214280036600,3.12903662109375,0.0000250337143370416,0.005586246494203806,0.0015646071406081319
1738772214290027500,3.139027587890625,0.0011968245962634683,0.004218979738652706,0.000003994741746282671
1738772214300018400,3.149018310546875,0.0007403587806038558,0.0029939257074147463,0.000023968450477696024
1738772214310010600,3.1590107421875,0.001871136948466301,0.004578772932291031,-0.0005992112564854324
1738772214320001500,3.16900146484375,0.00222001108340919,0.0037028591614216566,-0.0014719291357323527
1738772214329992400,3.178992431640625,-0.0010452907299622893,0.003935619257390499,-0.00022796659322921187
1738772214339983600,3.188983642578125,0.0016953683225437999,0.002773149637505412,0.00006285060226218775
1738772214349974500,3.198974609375,0.001591505017131567,0.0033489251509308815,-0.0005973470397293568
1738772214359965400,3.20896533203125,0.0018634138396009803,0.0044176517985761166,0.000107858024421148
1738772214369957600,3.21895751953125,0.002154231071472168,0.004049070179462433,-0.0009033442474901676
1738772214379948500,3.228948486328125,0.000565389113035053,0.0022421153262257576,-0.00020053602929692715
1738772214389939500,3.238939453125,0.0006799050024710596,0.004833637271076441,0.00020213393145240843
1738772214399930400,3.248930419921875,0.0009645969257690012,0.0041156490333378315,-0.00034408041392453015
1738772214409921500,3.258921630859375,0.0031470574904233217,0.003635747591033578,0.00019627496658358723
1738772214419912700,3.26891259765625,0.0005723133217543364,0.004623514134436846,-0.00015659387281630188
1738772214429903600,3.278903564453125,0.0017747305100783706,0.004340153653174639,-0.0007853662245906889
1738772214439895600,3.2888955078125,0.00019361180602572858,0.002862365450710058,-0.0016346483025699854
1738772214449886500,3.298886474609375,0.0030780816450715065,0.004403536673635244,-0.0013006879016757011
1738772214459877400,3.30887744140625,0.0011760519118979573,0.003317499766126275,0.000553404854144901
1738772214469868500,3.31886865234375,-0.001130511867813766,0.003439472522586584,-0.0004308994684834033
1738772214479859700,3.328859619140625,0.00138084904756397,0.004247209057211876,-0.0003504719934426248
1738772214489850600,3.3388505859375,0.000811997801065445,0.005182511638849974,0.0005014732014387846
1738772214499841800,3.348841796875,0.0012628709664568305,0.001933454885147512,-0.00038642468280158937
1738772214509833500,3.35883349609375,-0.000014913702216290403,0.0024719461798667908,0.00015286543930415064
1738772214519824400,3.368824462890625,0.003296993440017104,0.004433896858245134,-0.00031798143754713237
1738772214529815600,3.378815673828125,0.0010002832859754562,0.002114816103130579,0.0015507587231695652
1738772214539806700,3.388806640625,0.0008932242053560913,0.0038748993538320065,-0.00013688647595699877
1738772214549797600,3.398797607421875,0.001719603082165122,0.004681038204580545,0.00037284253630787134
1738772214559788800,3.408788818359375,0.003471696749329567,0.004777710884809494,0.0017417073249816895
1738772214569779700,3.41877978515625,0.000303334032651037,0.0032447953708469868,-0.0005142564186826348
1738772214579771400,3.428771484375,0.002930276095867157,0.003665042342618108,-0.0005283711361698806
1738772214589762600,3.438762451171875,0.0016828514635562897,0.0037558560725301504,0.0005406216951087117
1738772214599753700,3.448753662109375,0.0018690064316615462,0.0038250982761383057,-0.000824248360004276
1738772214609744600,3.45874462890625,0.0007590008899569511,0.005674663465470076,0.0004886900424025953
1738772214619735600,3.468735595703125,0.001276186783798039,0.004827778320759535,-0.00170761882327497
1738772214629726700,3.478726806640625,0.0015877765836194158,0.0032826124224811792,0.00045619948650710285
1738772214639718700,3.48871875,0.0020125508308410645,0.003975034225732088,0.0009323726990260184
1738772214649709800,3.498709716796875,0.0012751214671880007,0.002889796160161495,0.000018908443962573074
1738772214659700700,3.50870068359375,0.0008631304954178631,0.004465588368475437,0.0005816344055347145
1738772214669691600,3.518691650390625,0.0010692591313272715,0.004584631882607937,0.0007728493656031787
1738772214679682600,3.5286826171875,-0.0016045545926317573,0.002674879040569067,0.0005352954030968249
1738772214689673700,3.538673828125,0.0020040287636220455,0.004595284350216389,0.0007723167072981596
1738772214699664600,3.54866455078125,0.0008604673203080893,0.00358807691372931,0.0003834952076431364
1738772214709656600,3.558656494140625,0.0004921521758660674,0.003561711637303233,0.000556334329303354
1738772214719647700,3.568647705078125,0.0002490055630914867,0.00341550400480628,-0.0016445019282400608
1738772214729638700,3.578638671875,0.0017835189355537295,0.0033691651187837124,0.0004338289436418563
1738772214739629600,3.588629638671875,0.0015475628897547722,0.003733751829713583,0.0021811288315802813
1738772214749620700,3.598620849609375,0.001606685109436512,0.002971821464598179,-0.001330249011516571
1738772214759611600,3.608611572265625,0.0009390306076966226,0.0021574266720563173,0.001996571896597743
1738772214769603600,3.618603515625,0.0005350290448404849,0.0041010016575455666,-0.001603755634278059
1738772214779594800,3.6285947265625,0.0020450414158403873,0.005204082932323217,-0.000284159294096753
1738772214789585700,3.638585693359375,0.0016407734947279096,0.0036389431916177273,-0.0015486282063648105
1738772214799576600,3.64857666015625,0.0017156084068119526,0.0017515610670670867,0.00039840888348408043
1738772214809567700,3.658567626953125,0.001386707997880876,0.0024141555186361074,-0.0003486077766865492
1738772214819558700,3.66855859375,0.0003275688213761896,0.00504109775647521,0.0012599414912983775
1738772214829549600,3.678549560546875,0.0012474246323108673,0.0033044503070414066,0.0010426276130601764
1738772214839541800,3.688541748046875,0.0009614011505618691,0.004032292403280735,0.0019832560792565346
1738772214849532700,3.69853271484375,0.0015401060227304697,0.003192064817994833,0.0008732505375519395
1738772214859523600,3.708523681640625,0.0006287723081186414,0.003605121048167348,0.00006364954606397077
1738772214869514800,3.7185146484375,0.003174221608787775,0.0037462685722857714,0.001127848750911653
1738772214879505700,3.728505615234375,0.0027896612882614136,0.003662645351141691,0.00020000340009573847
1738772214889496600,3.73849658203125,0.00037497308221645653,0.0032866070978343487,-0.000012783173588104546
1738772214899487500,3.748487548828125,0.003686081152409315,0.0032626385800540447,-0.0012892362428829074
1738772214909479700,3.758479736328125,0.00023329291434492916,0.0036573191173374653,0.00020213393145240843
1738772214919470600,3.768470703125,0.0012024171883240342,0.005543103441596031,0.00023222764139063656
1738772214929461500,3.77846142578125,0.003067428944632411,0.003751861397176981,0.0004194478678982705
1738772214939452700,3.78845263671875,0.0026847326662391424,0.003552390495315194,0.000368847802747041
1738772214949443600,3.798443603515625,0.002668221015483141,0.002990197157487273,0.0010223875287920237
1738772214959434500,3.8084345703125,0.0008263788768090308,0.0036991306114941835,0.000743820914067328
1738772214969426700,3.8184267578125,0.0006908240029588342,0.004487959202378988,-0.00008921589324017987
1738772214979417600,3.82841748046875,0.00024767397553659976,0.004035221878439188,-0.00012916330888401717
1738772214989408500,3.838408447265625,0.0024088292848318815,0.004057592246681452,-0.00045327001134864986
1738772214999399700,3.848399658203125,0.0016229304019361734,0.0046607982367277145,0.0005526058957912028
1738772215009390600,3.858390625,0.001859152689576149,0.003459712490439415,0.0000852211524033919
1738772215019381500,3.868381591796875,0.0032748891972005367,0.0031499869655817747,-0.0006223807577043772
1738772215029372700,3.87837255859375,0.0006807039608247578,0.0038101845420897007,0.0009486179915256798
1738772215039364600,3.888364501953125,0.0006380933918990195,0.004693288821727037,0.0011150655336678028
1738772215049355500,3.89835546875,0.0005808354471810162,0.00410419749096036,0.001324123702943325
1738772215059346700,3.9083466796875,0.002240783767774701,0.0031068436801433563,-0.0012354403734207153
1738772215069337600,3.918337646484375,0.0023331954143941402,0.004584365524351597,-0.00013795174891129136
1738772215079329000,3.9283291015625,0.0009094694978557527,0.003909786697477102,0.0006103964988142252
1738772215089320000,3.93831982421875,0.0020756677258759737,0.004126834217458963,0.0004926847759634256
1738772215103058000,3.952057861328125,0.0011725898366421461,0.003948136232793331,-0.001199221471324563
1738772215113049900,3.9620498046875,0.000461259507574141,0.0024748756550252438,0.0007773766992613673
1738772215123041000,3.972041015625,0.0005065332516096532,0.003108175238594413,-0.00017869810108095407
1738772215133032200,3.9820322265625,0.0008484831196255982,0.005178516730666161,-0.0012916331179440022
1738772215143023000,3.992023193359375,0.001615207176655531,0.003352919826284051,0.0007283745799213648
1738772215153014000,4.002013916015625,0.0027481159195303917,0.0038831550627946854,-0.000261788722127676
1738772215163005000,4.0120048828125,-0.00017363809456583112,0.00478436890989542,0.0013227921444922686
1738772215172996000,4.02199609375,0.003403519745916128,0.003796602366492152,0.00027750138542614877
1738772215182988000,4.031988037109375,0.0015507587231695652,0.004177434369921684,0.00001917476038215682
1738772215192979000,4.04197900390625,0.000853809411637485,0.0036096484400331974,0.00017177389236167073
1738772215202970000,4.05197021484375,0.000928377965465188,0.0037404096219688654,0.001065264455974102
1738772215212961000,4.0619609375,0.002372077666223049,0.0033744913525879383,0.0007637945818714797
1738772215222952000,4.071951904296875,0.002055694116279483,0.0038874163292348385,0.0005518069956451654
1738772215232943000,4.081943115234375,0.0028280108235776424,0.005283711478114128,0.00040666470886208117
1738772215242935000,4.09193505859375,0.0010631339391693473,0.0029696908313781023,0.000966727442573756
1738772215252926000,4.101926025390625,0.0009211873984895647,0.004292216617614031,0.0002580603177193552
1738772215262917000,4.111917236328125,0.0017696705181151628,0.0038543930277228355,0.0015733955660834908
1738772215272908000,4.121907958984375,0.0008602010202594101,0.0052325790748000145,-0.00010333064710721374
1738772215282899000,4.13189892578125,0.0014711301773786545,0.0035808864049613476,0.0006154565489850938
1738772215292890000,4.14189013671875,0.0009795106016099453,0.003649862250313163,0.00024447820032946765
1738772215302881000,4.151881103515625,0.0017787253018468618,0.0036213663406670094,0.0006503439508378506
1738772215312873000,4.161873046875,0.0007246461464092135,0.00418489146977663,0.00013022858183830976
1738772215322864000,4.171864013671875,0.0024256070610135794,0.004415254574269056,0.0010394317796453834
1738772215332855000,4.18185498046875,0.0010972223244607449,0.003973968792706728,0.0008450209861621261
1738772215342846000,4.191845947265625,0.0014242585748434067,0.003282079705968499,0.0003635214816313237
1738772215352836900,4.2018369140625,0.0018255969043821096,0.003905259305611253,0.00004420847471919842
1738772215362828000,4.211828125,0.0013683321885764599,0.004049070179462433,0.0015627428656443954
1738772215372819000,4.22181884765625,-0.00012516857532318681,0.002374474424868822,-0.00008229167724493891
1738772215382811100,4.23181103515625,-0.0005954828229732811,0.0041406829841434956,-0.00017550231132190675
1738772215392802000,4.241802001953125,0.0017781927017495036,0.003949734382331371,0.000979244359768927
1738772215402793000,4.25179296875,0.0012889700010418892,0.0035382758360356092,-0.0010902981739491224
1738772215412783900,4.261783935546875,0.002347842790186405,0.003626426449045539,0.00008096009696600959
1738772215422775000,4.271775146484375,0.002862365450710058,0.0038365498185157776,0.000532632227987051
1738772215432766000,4.281765869140625,0.0020237360149621964,0.003608849598094821,-0.00032730249222368
1738772215442758100,4.291758056640625,0.0020514330826699734,0.003909253980964422,-0.0007390272221527994
1738772215452749000,4.3017490234375,0.0021321268286556005,0.004226969089359045,-0.00027031084755435586
1738772215462740000,4.311739990234375,0.0012825783342123032,0.004169711377471685,0.0010924286907538772
1738772215472731000,4.32173095703125,0.0017973673529922962,0.0037907434161752462,-0.0010996191995218396
1738772215482722000,4.33172216796875,0.0017592841759324074,0.004369981121271849,-0.0005928196478635073
1738772215492713000,4.341712890625,0.001802693703211844,0.004309260752052069,-0.0005528722540475428
1738772215502703900,4.351703857421875,0.00006391586794052273,0.0029846045654267073,0.0005025385180488229
1738772215512696000,4.361696044921875,0.00007669904152862728,0.003177417442202568,0.0014900385867804289
1738772215522687000,4.37168701171875,0.003288205014541745,0.004247741773724556,0.00032730249222368
1738772215532678000,4.381677978515625,0.001740642124786973,0.004285026341676712,0.0003557983145583421
1738772215542669000,4.3916689453125,0.002549710450693965,0.003501790575683117,-0.0007523429812863469
1738772215552660000,4.401659912109375,0.002475142013281584,0.0035302862524986267,0.001336107961833477
1738772215562651000,4.41165087890625,0.000934236915782094,0.00424241553992033,-0.000002663161012605997
1738772215572643000,4.42164306640625,0.002305764937773347,0.0031068436801433563,-0.0009209210984408855
1738772215582634000,4.431634033203125,0.00006418218254111707,0.00464588450267911,0.0008162588928826153
1738772215592625000,4.441625,0.0011113371001556516,0.003052515210583806,0.0009709885343909264
1738772215602616000,4.451615966796875,0.003150519449263811,0.0034293525386601686,0.0009717874927446246
1738772215612607000,4.46160693359375,-0.00021944446780253202,0.00506985979154706,0.0007667240570299327
1738772215622598000,4.471597900390625,0.0008269115351140499,0.0038477350026369095,0.00035686357296071947
1738772215632588800,4.4815888671875,0.0003270361921750009,0.003996872343122959,-0.0003254382754676044
1738772215642581000,4.4915810546875,0.0012945625931024551,0.00410419749096036,0.0002697782183531672
1738772215652572000,4.501572021484375,0.002612827345728874,0.004288754425942898,0.00028069718973711133
1738772215662562800,4.511562744140625,0.0010282464791089296,0.00373055599629879,0.00020240024605300277
1738772215672554000,4.521553955078125,0.0005222458858042955,0.0033779535442590714,0.00008974852971732616
1738772215682545000,4.531544921875,0.00020373181905597448,0.0031409321818500757,-0.0010522148804739118
1738772215692535800,4.541535888671875,0.0019651465117931366,0.0036639769095927477,0.0012961605098098516
1738772215702528000,4.551528076171875,0.0010466222884133458,0.0029177593532949686,0.0005249090609140694
1738772215712519000,4.561518798828125,0.0014924354618415236,0.0029196233954280615,-0.0003379551344551146
1738772215722509800,4.571509765625,0.0022149509750306606,0.003428020980209112,-0.000054328484111465514
1738772215732501000,4.5815009765625,0.0028594359755516052,0.0020871192682534456,0.0010165285784751177
1738772215742492000,4.591491943359375,0.0004463458026293665,0.0038663772866129875,-0.0014255901332944632
1738772215752482800,4.60148291015625,0.002915895078331232,0.004218447022140026,-0.00035899411886930466
1738772215762475000,4.61147509765625,0.0014285196084529161,0.004781439434736967,-0.00035499935620464385
1738772215772466000,4.6214658203125,0.0007526093395426869,0.002231196267530322,-0.00022796659322921187
1738772215782456800,4.631456787109375,0.0026045716367661953,0.004298341926187277,0.0010820423485711217
1738772215792448000,4.641447998046875,0.00213612150400877,0.004362790379673243,0.000550475378986448
1738772215802439000,4.65143896484375,-0.0005739112384617329,0.0038397456519305706,0.0004271710349712521
1738772215812429800,4.661429931640625,0.0012008192716166377,0.0022623552940785885,0.0003885551996063441
1738772215822421000,4.6714208984375,0.0009235842735506594,0.0034194989129900932,0.0026399914640933275
1738772215832413000,4.681412841796875,0.002397643867880106,0.0036535905674099922,-0.0003246393462177366
1738772215842403800,4.69140380859375,0.0023497070651501417,0.003802194958552718,0.0014530207263305783
1738772215852395000,4.70139501953125,0.0014237258583307266,0.0030929953791201115,0.0005914880894124508
1738772215862386000,4.711385986328125,0.001939580193720758,0.004008323885500431,-0.000669252360239625
1738772215872376800,4.721376953125,0.0012516856659203768,0.004710332956165075,0.000297475082334131
1738772215882367700,4.73136767578125,0.0006162554491311312,0.003775030840188265,0.00019414443522691727
1738772215892360000,4.74135986328125,0.0008828379213809967,0.004050401505082846,0.000355532014509663
1738772215902350800,4.751350830078125,-0.00003888214996550232,0.005793174263089895,0.001614940818399191
1738772215912342000,4.761342041015625,0.0021489046048372984,0.004459463059902191,0.001139300293289125
1738772215922333000,4.7713330078125,0.0007219829712994397,0.004319647327065468,0.0006596649764105678
1738772215932323800,4.78132373046875,0.0029579729307442904,0.0034320156555622816,0.001392300589941442
1738772215942314800,4.791314697265625,0.0033931334037333727,0.005232844967395067,0.0020072245970368385
1738772215952307000,4.801306884765625,0.001689509372226894,0.0031137678306549788,0.0005012069013901055
1738772215962297900,4.8112978515625,0.0010245180455967784,0.0027952538803219795,2.6631610694494157e-7
1738772215972288800,4.821288818359375,0.0004237089306116104,0.004789695143699646,0.0013470269041135907
1738772215982280000,4.831280029296875,-0.0001704423048067838,0.0038812910206615925,0.0007771103992126882
1738772215992270800,4.841270751953125,0.003765443339943886,0.0037971350830048323,-0.0015869776252657175
1738772216002261800,4.85126171875,0.001751827308908105,0.004408863373100758,-0.0020572920329868793
1738772216012253000,4.8612529296875,0.0009321063989773393,0.003924966789782047,0.0010929612908512354
1738772216022244900,4.871244873046875,0.0021020330023020506,0.0051689292304217815,-0.001528920722194016
1738772216032235800,4.88123583984375,0.00025060345069505274,0.00341603672131896,0.0007036071619950235
1738772216042227000,4.89122705078125,0.002853044541552663,0.004667456261813641,0.0013811152894049883
1738772216052217900,4.9012177734375,0.002668487373739481,0.00535375252366066,-0.00004234426160110161
1738772216062208800,4.911208740234375,0.0008639294537715614,0.0033310819417238235,0.0005336974863894284
1738772216072200000,4.921199951171875,-0.000028495824153651483,0.004078631289303303,0.0014136058744043112
1738772216082191600,4.931191650390625,0.0013174657942727208,0.003967577591538429,0.0013456953456625342
1738772216092182500,4.9411826171875,0.001461010193452239,0.00446851784363389,0.0001531317684566602
1738772216102173400,4.95117333984375,0.0008764463127590716,0.003477555699646473,0.0016935041639953852
1738772216112164600,4.96116455078125,0.0017238641157746315,0.0049074068665504456,-0.0014700648607686162
1738772216122155800,4.97115576171875,0.0015502260066568851,0.003941478207707405,0.0004822984628845006
1738772216132146700,4.981146728515625,0.0009110674145631492,0.003994208760559559,0.0006583334179595113
1738772216142138400,4.991138427734375,0.00019361180602572858,0.003810983384028077,-0.000004793690095539205
1738772216152129500,5.001129638671875,0.0018282600212842226,0.004193946253508329,0.00028069718973711133
1738772216162120700,5.01112060546875,0.0011315771844238043,0.0036077843979001045,-0.0016921724891290069
1738772216172111600,5.021111572265625,0.00019973708549514413,0.004589691758155823,-0.0010998855577781796
1738772216182102800,5.031102783203125,0.0012191950809210539,0.0033065807074308395,-0.0003134540456812829
1738772216192093700,5.04109375,0.0017984326696023345,0.0035156388767063618,0.00013022858183830976
1738772216202084600,5.051084716796875,0.0024261397775262594,0.004894357640296221,0.00009640643111197278
1738772216212076500,5.06107666015625,0.00169563468080014,0.0028245486319065094,0.0007534082396887243
1738772216222067700,5.071067626953125,-0.000303334032651037,0.004226170480251312,0.002112419344484806
1738772216232058600,5.08105859375,0.00018668759730644524,0.0034471957478672266,0.0011076086666435003
1738772216242049800,5.0910498046875,0.0028850024100393057,0.002797118155285716,0.0016753945965319872
1738772216252040700,5.101040771484375,0.0015576828736811876,0.004260791465640068,0.0009685916593298316
1738772216262031600,5.111031494140625,0.0021941782906651497,0.0037531929556280375,-0.0009606021922081709
1738772216272023600,5.1210234375,0.001711081014946103,0.004932973068207502,-0.0011619371362030506
1738772216282014700,5.1310146484375,0.00224903947673738,0.0036677054595202208,0.0002519350382499397
1738772216292005600,5.141005615234375,-0.0001536643976578489,0.0035625104792416096,0.0006034722900949419
1738772216301996800,5.150996826171875,0.00044847631943412125,0.004591822158545256,-0.00070493872044608
1738772216311987700,5.16098779296875,0.0014732606941834092,0.0027121631428599358,-0.0008290420519188046
1738772216321978600,5.170978515625,0.00036698358599096537,0.0027710190042853355,0.00033156355493701994
1738772216331969500,5.180969482421875,0.0007771103992126882,0.0021403825376182795,0.0007089334540069103
1738772216341961700,5.190961669921875,0.0005507417372427881,0.004671184346079826,0.00018562232435215265
1738772216351952600,5.20095263671875,0.0024684839881956577,0.004262655507773161,-0.00079735042527318
1738772216361943600,5.210943603515625,0.002161954063922167,0.005682653281837702,0.0018306568963453174
1738772216371934700,5.220934814453125,0.0003454120014794171,0.004456533584743738,-0.0009752495680004358
1738772216381925600,5.230925537109375,0.0015907060587778687,0.003614974906668067,-0.0023363912478089333
1738772216391916500,5.24091650390625,0.0011049455497413874,0.003084739437326789,-0.000969923275988549
1738772216401908700,5.25090869140625,0.00009800432599149644,0.003320695599541068,0.0000857537888805382
1738772216411899600,5.260899658203125,0.0006431533838622272,0.004062652122229338,0.0007858988246880472
1738772216421890600,5.270890625,0.00133903743699193,0.004236822947859764,0.0005813680472783744
1738772216431881700,5.2808818359375,0.001365402713418007,0.0041252365335822105,0.0012397015234455466
1738772216441872600,5.29087255859375,0.00123783724848181,0.0037563887890428305,-0.0002878876985050738
1738772216451863600,5.300863525390625,0.0008258462767116725,0.004418184049427509,-0.00005885586142539978
1738772216461855700,5.310855712890625,0.0013539510546252131,0.003940679598599672,0.00016298545233439654
1738772216471846700,5.3208466796875,0.0008852347382344306,0.00458702864125371,0.0010000169277191162
1738772216481837600,5.330837646484375,-0.0002079928817693144,0.0030059099663048983,0.00017736652807798237
1738772216491828700,5.340828857421875,0.001050084363669157,0.0016072177095338702,0.00007376955909421667
1738772216501819600,5.350819580078125,0.0007158577209338546,0.0035273567773401737,0.0006282397080212831
1738772216511810600,5.360810546875,0.0016913736471906304,0.0027486486360430717,0.0022011026740074158
1738772216521801500,5.370801513671875,0.0012476909905672073,0.0024058998096734285,0.00030360036180354655
1738772216531793700,5.380793701171875,0.0026495789643377066,0.0038037928752601147,0.0012945625931024551
1738772216541784600,5.39078466796875,0.002266616327688098,0.0018953717080876231,0.001020257011987269
1738772216551775700,5.400775634765625,0.0014002900570631027,0.004996889270842075,0.0010319749126210809
1738772216561766700,5.4107666015625,0.0032735576387494802,0.0033278861083090305,0.0009150621481239796
1738772216571757600,5.420757568359375,0.001389371114782989,0.0038892803713679314,0.0007781756576150656
1738772216581748500,5.43074853515625,0.0009118663729168475,0.003409378696233034,-0.001600826159119606
1738772216591740700,5.44074072265625,0.0017393104499205947,0.004325772635638714,-0.000713993504177779
1738772216601731600,5.450731689453125,0.0021137509029358625,0.0032229574862867594,0.00022077605535741895
1738772216611722800,5.46072265625,0.0015307849971577525,0.003824033075943589,0.0004013383586425334
1738772216621713700,5.470713623046875,0.001127848750911653,0.003929760307073593,0.0003177151083946228
1738772216631704600,5.48070458984375,0.002171008847653866,0.00446958327665925,0.002383262850344181
1738772216641695500,5.490695556640625,0.00019920444174204022,0.004147074185311794,-0.0012458267156034708
1738772216651687700,5.500687744140625,0.0017190704820677638,0.003998470026999712,-0.000493750034365803
1738772216661678600,5.5106787109375,0.00031638352083973587,0.004107659682631493,0.0007310376968234777
1738772216671669500,5.52066943359375,0.0027180220931768417,0.0036160401068627834,-0.00026072346372529864
1738772216681660700,5.53066064453125,0.002261556452140212,0.004923119675368071,-0.0003515372518450022
1738772216691651600,5.540651611328125,0.002049835165962577,0.0035180358681827784,-0.0003818972909357399
1738772216701642500,5.550642578125,0.0003371562052052468,0.0038429414853453636,0.002162753138691187
1738772216711633700,5.560633544921875,0.0016503608785569668,0.0049066077917814255,0.0007360977469943464
1738772216721625600,5.57062548828125,0.0012490225490182638,0.003293531248345971,0.000996554852463305
1738772216731616500,5.580616455078125,0.0012053466634824872,0.0030160299502313137,0.0006671218434348702
1738772216741607700,5.590607666015625,0.001546763931401074,0.0033872744534164667,-0.00033396040089428425
1738772216751598600,5.6005986328125,0.00046578687033616006,0.003200853243470192,0.0007142598042264581
1738772216761589500,5.610589599609375,0.001413339632563293,0.0038400120101869106,0.0008641957538202405
1738772216771580700,5.62058056640625,0.0015523566398769617,0.002953978255391121,-0.00042557314736768603
1738772216781572600,5.630572509765625,0.002415753435343504,0.005793440621346235,0.00012969593808520585
1738772216791563500,5.6405634765625,0.0006631271098740399,0.005638711154460907,-0.000003728425554072601
1738772216801554700,5.6505546875,-0.0005491438205353916,0.0033774208277463913,-0.0002892192860599607
1738772216811545600,5.660545654296875,0.0010554107138887048,0.004323375876992941,-0.0008945558220148087
1738772216821536500,5.67053662109375,0.003025350859388709,0.0031766186002641916,-0.0006021407316438854
1738772216831527400,5.68052734375,0.0013651363551616669,0.0037177728954702616,0.0009752495680004358
1738772216841518600,5.6905185546875,0.0005233111442066729,0.004081294406205416,0.00023409185814671218
1738772216851510500,5.700510498046875,0.0016849819803610444,0.003561977995559573,-0.00020453077740967274
1738772216861501700,5.710501708984375,0.0027260116767138243,0.005423527676612139,0.000222373942960985
1738772216871492600,5.72049267578125,0.0001776328426785767,0.0037444045301526785,-0.00014700648898724467
1738772216881483500,5.7304833984375,0.0018570221727713943,0.003579288488253951,0.00030546457855962217
1738772216891474400,5.740474365234375,0.001133441342972219,0.003215766977518797,0.0006005428149364889
1738772216901465600,5.750465576171875,0.0025715483352541924,0.0029702235478907824,-0.0009901633020490408
1738772216911457500,5.76045751953125,0.00006870955257909372,0.005547630600631237,-0.0007566040731035173
1738772216921448700,5.77044873046875,-0.00011132013605674729,0.004764928016811609,0.0005214469274505973
1738772216931439600,5.780439697265625,0.0012543488992378116,0.0035566515289247036,0.0006114617572166026
1738772216941430500,5.790430419921875,0.0007478156476281583,0.004559065215289593,0.00036671728594228625
1738772216951421400,5.80042138671875,0.0031784826423972845,0.004511128645390272,-0.0003789678157772869
1738772216961412600,5.81041259765625,0.00152332813013345,0.003424825146794319,0.0005406216951087117
1738772216971404500,5.820404541015625,0.0016889767721295357,0.003656253917142749,0.0010929612908512354
1738772216981395500,5.8303955078125,0.0016916398890316486,0.003306048223748803,0.0007299724384211004
1738772216991386600,5.84038671875,0.0020013656467199326,0.0029766152147203684,0.0013313142117112875
1738772217001377500,5.85037744140625,0.0004474110610317439,0.004317250568419695,0.0012482235906645656
1738772217011368400,5.860368408203125,0.0016197345685213804,0.004729241598397493,0.0011803129455074668
1738772217021359600,5.870359619140625,0.00021837920940015465,0.004267449490725994,0.00021784658019896597
1738772217031350500,5.8803505859375,0.0033507891930639744,0.004059189930558205,-0.0004647216119337827
1738772217041342500,5.890342529296875,0.0015033544041216373,0.004178766161203384,0.001457814360037446
1738772217051333600,5.900333740234375,0.0018522285390645266,0.0034439999144524336,0.0009326389990746975
1738772217061324500,5.910324462890625,0.0018570221727713943,0.004307929426431656,0.0005163869354873896
1738772217071315500,5.9203154296875,0.0013763216556981206,0.004051733296364546,0.0008950884221121669
1738772217081306400,5.930306396484375,0.0014287859667092562,0.0037758296821266413,-0.0010657970560714602
1738772217091297300,5.94029736328125,0.0018050905782729387,0.0032836776226758957,-0.00033635724685154855
1738772217101289500,5.95028955078125,0.0014138722326606512,0.0027052389923483133,-0.00020240024605300277
1738772217111280400,5.9602802734375,0.0020450414158403873,0.004714594222605228,-0.0012572783743962646
1738772217121271300,5.970271240234375,0.0024466461036354303,0.004828843753784895,0.0007933556917123497
1738772217131262500,5.980262451171875,0.0007342335302382708,0.0033017871901392937,0.00016591492749284953
1738772217141253400,5.99025341796875,0.001413339632563293,0.004435760900378227,0.00042823629337362945
1738772217151244300,6.000244384765625,0.000862864195369184,0.004014182835817337,-0.0003856257244478911
1738772217161236500,6.010236572265625,0.0018125474452972412,0.0038362834602594376,0.0015283881220966578
1738772217171227400,6.020227294921875,0.00021598236344289035,0.002625077962875366,0.0001930791768245399
1738772217181218300,6.03021826171875,0.002329200739040971,0.003352919826284051,0.0000031957933970261365
1738772217191209500,6.04020947265625,0.002755572786554694,0.006597715429961681,0.000007190534688561456
1738772217201200400,6.050200439453125,0.001749164192005992,0.004650411661714315,-0.000011451592399680521
1738772217211191300,6.06019140625,0.0012620720081031322,0.003349990351125598,0.00009827064059209079
1738772217221182500,6.070182373046875,0.0033955303952097893,0.003858654061332345,0.0012295814231038094
1738772217231174400,6.08017431640625,0.00011345066013745964,0.003882888937368989,-0.000675377668812871
1738772217241165300,6.090165283203125,0.001014398061670363,0.003222158644348383,0.0011488876771181822
1738772217251156500,6.100156494140625,-0.0001613875647308305,0.003150785807520151,-0.0000023968450477696024
1738772217261147400,6.1101474609375,0.002683401107788086,0.004053863696753979,0.0006945523782633245
1738772217271138300,6.12013818359375,-0.0002210423699580133,0.004266384057700634,0.0006644586683250964
1738772217281129500,6.13012939453125,0.001050084363669157,0.0036077843979001045,-0.0017691379180178046
1738772217291120600,6.14012060546875,0.0006777744856663048,0.004492752719670534,0.0012024171883240342
1738772217301112300,6.1501123046875,-0.0005416869535110891,0.004098604898899794,0.00029055087361484766
1738772217311103500,6.160103515625,0.0016306535108014941,0.0036671727430075407,0.000024767397917457856
1738772217321094400,6.170094482421875,0.0016812535468488932,0.004768922459334135,0.0007382282637991011
1738772217331085600,6.18008544921875,0.00010439591278554872,0.00475454144179821,0.0004442152567207813
1738772217341076500,6.190076416015625,-0.0006905576447024941,0.003296993440017104,-0.00043063313933089375
1738772217351067600,6.200067626953125,0.0005576659459620714,0.0027915253303945065,0.000251402409048751
1738772217361059300,6.210059326171875,0.0009243832319043577,0.0026192190125584602,0.0019539613276720047
1738772217371050200,6.22005029296875,0.0008940231637097895,0.002170742489397526,-0.00017070861940737814
1738772217381041400,6.23004150390625,0.0028130970895290375,0.0027595674619078636,0.00019121496006846428
1738772217391032600,6.240032470703125,-0.00013848437811248004,0.0037739656399935484,0.0009622001089155674
1738772217401023500,6.2500234375,-0.0001675128296483308,0.003290335414931178,0.000291616132017225
1738772217411014700,6.2600146484375,0.002094309777021408,0.0020964404102414846,-0.0005736448802053928
1738772217421006300,6.27000634765625,0.0004135889175813645,0.00355798308737576,0.00123783724848181
1738772217430997200,6.279997314453125,0.001404018490575254,0.00515880947932601,0.0024234766606241465
1738772217440988400,6.289988525390625,0.0005547364708036184,0.003983556292951107,0.0009616674506105483
1738772217450979600,6.2999794921875,0.0011225224006921053,0.003433613572269678,0.0007696535321883857
1738772217460970500,6.309970458984375,0.0022538332268595695,0.0027654264122247696,0.001862348522990942
1738772217470961700,6.319961669921875,0.002463690238073468,0.005164402071386576,0.0006828344776295125
1738772217480952600,6.32995263671875,0.002724680118262768,0.002972087822854519,-0.0016796556301414967
1738772217490944500,6.339944580078125,0.0016056197928264737,0.0034674357157200575,0.0024410535115748644
1738772217500935700,6.349935791015625,0.002442385070025921,0.004145476501435041,-0.0011709919199347496
1738772217510926600,6.359926513671875,0.0010428938549011946,0.0028762139845639467,-0.0018453042721375823
1738772217520917500,6.36991748046875,0.0011012171162292361,0.0041792988777160645,0.0008753810543566942
1738772217530908700,6.37990869140625,0.0012623383663594723,0.003605121048167348,0.0019776634871959686
1738772217540899600,6.389899658203125,0.0014860439114272594,0.004486893769353628,0.00040986048406921327
1738772217550891500,6.3998916015625,0.0022082931827753782,0.0038860845379531384,-0.0015512913232669234
1738772217560882700,6.409882568359375,0.0016761935548856854,0.004710332956165075,-0.0010764497565105557
1738772217570873600,6.41987353515625,0.0012088088551536202,0.00506906071677804,-0.0007912251749075949
1738772217580864500,6.429864501953125,0.0028818065766245127,0.0032410670537501574,0.0007329019135795534
1738772217590855400,6.43985546875,0.003276220755651593,0.004482100252062082,0.0005872269975952804
1738772217600846600,6.4498466796875,0.001701759872958064,0.0035563854034990072,-0.00039601203752681613
1738772217610838500,6.459838623046875,0.0013313142117112875,0.003652791725471616,0.0008543420699425042
1738772217620829700,6.46982958984375,0.0023851271253079176,0.003329750383272767,0.0012602078495547175
1738772217630820600,6.479820556640625,0.0014868428697809577,0.0037228327710181475,-0.00018508969515096396
1738772217640811500,6.4898115234375,-0.0005091963685117662,0.004932973068207502,0.001201884588226676
1738772217650802400,6.499802490234375,0.0016279903938993812,0.0038250982761383057,-0.0004846953088417649
1738772217660793600,6.509793701171875,0.0009920274605974555,0.0033246902748942375,-0.0007901599165052176
1738772217670784500,6.519784423828125,0.002201901515945792,0.004433097783476114,0.00202267081476748
1738772217680776400,6.5297763671875,0.0006823018775321543,0.004238953348249197,-0.000007723167072981596
1738772217690767600,6.539767578125,0.0016381103778257966,0.004041613079607487,-0.0004087952256668359
1738772217700758500,6.549758544921875,0.0016359798610210419,0.0043902210891246796,0.0005691175465472043
1738772217710749400,6.55974951171875,0.002641589380800724,0.004209924954921007,0.0006937534781172872
1738772217720740600,6.56974072265625,0.0017600831342861056,0.005015531089156866,-0.0004386226355563849
1738772217730731500,6.5797314453125,0.001306280493736267,0.004291417542845011,0.0010423612548038363
1738772217740723500,6.589723388671875,0.0006716492353007197,0.0037561224307864904,0.000830107310321182
1738772217750714600,6.599714599609375,0.0018761969404295087,0.004007791168987751,-0.0008402272942475975
1738772217760705500,6.60970556640625,0.0010106696281582117,0.0037942056078463793,-0.00011824435205198824
1738772217770696400,6.619696533203125,0.00006498113361885771,0.003916178364306688,-0.0002388855500612408
1738772217780687600,6.6296875,0.001487109111621976,0.003939614165574312,0.00014061490946915
1738772217790678500,6.639678466796875,0.002269545802846551,0.0026349315885454416,-0.0020754013676196337
1738772217800669400,6.64966943359375,0.0015776565996930003,0.003959854133427143,0.0006303702248260379
1738772217810661600,6.65966162109375,0.0006293049664236605,0.003373692510649562,-0.0007858988246880472
1738772217820652500,6.669652587890625,0.0016245282022282481,0.003969707991927862,0.00003435477628954686
1738772217830643500,6.6796435546875,0.0007238471880555153,0.003457582090049982,-0.0007611314067617059
1738772217840634400,6.68963427734375,0.0016916398890316486,0.004247741773724556,-0.0012154667638242245
1738772217850625500,6.69962548828125,0.0006005428149364889,0.0036519928835332394,0.0008679241873323917
1738772217860616400,6.709616455078125,0.000316916179144755,0.004418716765940189,-0.0005581985460594296
1738772217870608600,6.719608642578125,0.0007920240750536323,0.003300189273431897,0.00006764429417671636
1738772217880599600,6.729599609375,0.0018692727899178863,0.004340686369687319,0.00020639497961383313
1738772217890590500,6.739590576171875,0.00267754215747118,0.0033691651187837124,0.000464188982732594
1738772217900581400,6.749581298828125,0.0009587379754520953,0.0029755497816950083,0.00031798143754713237
1738772217910572500,6.759572509765625,0.00018455706594977528,0.0032927324064075947,0.0003376888344064355
1738772217920563500,6.7695634765625,-0.000696150294970721,0.0028692898340523243,-0.001047154888510704
1738772217930555600,6.7795556640625,0.001261805766262114,0.003320162883028388,-0.00008149272616719827
1738772217940546600,6.789546630859375,-0.0005757753970101476,0.003465305082499981,-0.0008679241873323917
1738772217950537500,6.799537353515625,0.0026053704787045717,0.0031547807157039642,-0.0010109359864145517
1738772217960528400,6.8095283203125,0.0007608651067130268,0.005140966270118952,0.00007430219557136297
1738772217970519600,6.81951953125,0.000477504770969972,0.0036642432678490877,-0.0014689996605738997
1738772217980510500,6.829510498046875,0.0004721784498542547,0.0027893949300050735,-0.000835966260638088
1738772217990501400,6.83950146484375,-0.000603738590143621,0.00595429539680481,-0.0000804274677648209
1738772218000493600,6.84949365234375,0.0021784657146781683,0.0036546560004353523,-0.0009771138429641724
1738772218010484500,6.859484375,0.0025835325941443443,0.005071723833680153,0.00028069718973711133
1738772218020475400,6.869475341796875,0.0019805929623544216,0.004181961994618177,0.0001227717293659225
1738772218030466600,6.879466552734375,0.0019185412675142288,0.0033633061684668064,0.00008388957212446257
1738772218040457500,6.88945751953125,0.0016844493802636862,0.0036661075428128242,0.0004623247659765184
1738772218050448400,6.899448486328125,0.0008218514849431813,0.003888215171173215,0.0007858988246880472
1738772218060440600,6.909440673828125,0.0005584649043157697,0.004381699021905661,-0.00027537086862139404
1738772218070431500,6.919431396484375,0.0016391756944358349,0.00455800024792552,0.0007779093575663865
1738772218080423000,6.9294228515625,0.001427720650099218,0.0036506610922515392,0.000978711643256247
1738772218090414000,6.9394140625,0.001365668955259025,0.0027896612882614136,0.0016471651615574956
1738772218100405000,6.949405029296875,0.0018809906905516982,0.003891144646331668,0.00015046859334688634
1738772218110396000,6.95939599609375,-0.00006524744821945205,0.00430100504308939,0.00024527712957933545
1738772218120388000,6.96938818359375,0.0010924286907538772,0.003215500619262457,-0.0020120181143283844
1738772218130379000,6.97937890625,0.0011885687708854675,0.0035414716694504023,-0.00016218650853261352
1738772218140370000,6.989369873046875,0.0004673847579397261,0.004369448404759169,0.00018988338706549257
1738772218150361000,6.999361083984375,0.002016811864450574,0.004431233741343021,-0.0002844255941454321
1738772218160352000,7.00935205078125,-0.0000774979853304103,0.0030740867368876934,-0.0012825783342123032
1738772218170343000,7.019343017578125,0.0019142802339047194,0.0041188448667526245,0.0011089402250945568
1738772218180333800,7.029333740234375,-0.000743820914067328,0.003917776048183441,0.0008527441532351077
1738772218190326000,7.039325927734375,0.0026589001063257456,0.0023366576060652733,0.0008681904873810709
1738772218200317000,7.04931689453125,0.002507632365450263,0.0029257487040013075,-0.00024394555657636374
1738772218210308000,7.05930810546875,0.0019299928098917007,0.004823251161724329,0.001651159836910665
1738772218220299000,7.069299072265625,0.002469282830134034,0.0025350630749017,-0.0005139900604262948
1738772218230290000,7.0792900390625,0.0012546151410788298,0.004225105047225952,-0.0016711335629224777
1738772218240280800,7.08928076171875,-0.0003403519804123789,0.0049095372669398785,-0.00033955302205868065
1738772218250273000,7.09927294921875,0.0024045680183917284,0.00418329332023859,-0.0014772554859519005
1738772218260264000,7.109263916015625,0.0002716424351092428,0.004233094397932291,0.000990962260402739
1738772218270254800,7.1192548828125,0.0012239888310432434,0.0028543761000037193,0.000589091214351356
1738772218280246000,7.12924609375,0.001761148450896144,0.0046751792542636395,0.00028043086058460176
1738772218290237000,7.13923681640625,0.00202293717302382,0.004948153160512447,-0.00012863067968282849
1738772218300227800,7.149227783203125,0.0022357236593961716,0.003489273600280285,0.0020604876335710287
1738772218310219000,7.159218994140625,0.0008703210623934865,0.0011914982460439205,-0.000952080066781491
1738772218320211000,7.1692109375,0.0003475425182841718,0.002377137541770935,0.00023861923546064645
1738772218330201900,7.179201904296875,0.00041758365114219487,0.0034232272300869226,-0.00011877698125317693
1738772218340193000,7.189193115234375,0.0010338390711694956,0.0034320156555622816,-0.00044900894863530993
1738772218350184000,7.199183837890625,0.0020652813836932182,0.004910602699965239,-0.00072597770486027
1738772218360174800,7.2091748046875,0.0006474144756793976,0.0030562435276806355,-0.0000066579027588886674
1738772218370166000,7.219166015625,0.002704440150409937,0.003999002743512392,-0.0002537992550060153
1738772218380158000,7.229157958984375,0.0015241270884871483,0.003884486621245742,0.0005640574963763356
1738772218390148900,7.23914892578125,0.0018216022290289402,0.0043683829717338085,0.0008862999966368079
1738772218400140000,7.24914013671875,0.001838912721723318,0.0035273567773401737,0.000054328484111465514
1738772218410131000,7.259130859375,0.003328418591991067,0.004798749927431345,-0.0002724413643591106
1738772218420121900,7.269121826171875,0.00003408846168895252,0.004319913685321808,-0.00009161273919744417
1738772218430113000,7.279113037109375,0.0004122573300264776,0.0041132522746920586,0.00001304948909819359
1738772218440105000,7.28910498046875,0.001969940261915326,0.003882888937368989,0.0001752359967213124
1738772218450095900,7.299095947265625,0.00027377295191399753,0.002686064224690199,-0.0003944141499232501
1738772218460087000,7.309087158203125,0.002162753138691187,0.0040852888487279415,0.0006554039428010583
1738772218470078000,7.319077880859375,0.002049568807706237,0.0031579763162881136,0.0004159857635386288
1738772218480068900,7.32906884765625,0.0007147924043238163,0.004128698725253344,0.0015249260468408465
1738772218490059800,7.339059814453125,0.0006785734440200031,0.003285275539383292,-0.0015246596885845065
1738772218500051000,7.349051025390625,0.0024429175537079573,0.0029981867410242558,-0.00041998049709945917
1738772218510043000,7.35904296875,0.0007613977650180459,0.004177967086434364,0.0005936186062172055
1738772218520034000,7.369033935546875,0.0031286815647035837,0.004590224474668503,0.0005669869715347886
1738772218530025000,7.37902490234375,0.0017547567840665579,0.005560147576034069,-0.0000125168571685208
1738772218540015900,7.389015869140625,0.0022514364682137966,0.005052815657109022,-0.00020985709852539003
1738772218550006800,7.3990068359375,0.0012474246323108673,0.0041004689410328865,-0.0011382350930944085
1738772218559998000,7.408998046875,0.0013789847726002336,0.0037555897142738104,0.00018642126815393567
1738772218569990000,7.418989990234375,0.0006868292111903429,0.004489556886255741,0.0009576727170497179
1738772218579980800,7.428980712890625,0.0022543659433722496,0.004278901033103466,0.0006077333819121122
1738772218589972000,7.438971923828125,0.0008727178792469203,0.0033222935162484646,0.0012183962389826775
1738772218599963000,7.448962890625,0.002511627273634076,0.004232561681419611,0.0010705908061936498
1738772218609953800,7.458953857421875,0.0016580841038376093,0.005006742663681507,-0.0004487426485866308
1738772218619945000,7.468945068359375,0.0018338527297601104,0.004225904121994972,0.0008000136003829539
1738772218629937000,7.47893701171875,0.002109756227582693,0.00373002327978611,0.0005060005933046341
1738772218639927800,7.488927734375,0.001719603082165122,0.0030658310279250145,-0.0005110605852678418
1738772218649919000,7.4989189453125,0.00004713794987765141,0.0034077810123562813,-0.0002713761059567332
1738772218659910000,7.508909912109375,-0.000672448193654418,0.00347435986623168,0.0012442287988960743
1738772218669900800,7.51890087890625,0.0024596955627202988,0.0036695697344839573,-0.0010881676571443677
1738772218679892000,7.52889208984375,0.002659698948264122,0.004005128052085638,0.001558748190291226
1738772218689884000,7.5388837890625,0.0005664543714374304,0.0038661109283566475,0.0007938882918097079
1738772218699874800,7.548874755859375,0.0010761833982542157,0.0026706180069595575,0.0016812535468488932
1738772218709866000,7.558865966796875,0.001927862293086946,0.004456799943000078,-0.0007001450285315514
1738772218719857000,7.56885693359375,0.001059139147400856,0.004833903629332781,0.0009563411585986614
1738772218729847800,7.578847900390625,0.0009041432058438659,0.0037888791412115097,-0.00029587719473056495
1738772218739839000,7.5888388671875,0.0003834952076431364,0.0032589102629572153,0.0004948153509758413
1738772218749830000,7.598829833984375,0.0013907026732340455,0.004239219706505537,0.0014239922165870667
1738772218759821800,7.60882177734375,0.0022152173332870007,0.00401604687795043,-0.00032676986302249134
1738772218769813000,7.61881298828125,0.0021614215802401304,0.004282895475625992,-0.00033396040089428425
1738772218779804000,7.628803955078125,0.0009603358921594918,0.0033910030033439398,-0.0005166532355360687
1738772218789794800,7.638794921875,0.0021108214277774096,0.0035601137205958366,0.0006074670236557722
1738772218799785700,7.64878564453125,-0.00006950850365683436,0.003915645647794008,0.001980859087780118
1738772218809777000,7.65877685546875,0.0024578312877565622,0.0027198863681405783,-0.0004777711001224816
1738772218819768800,7.668768798828125,0.000011984225238848012,0.004299673717468977,0.0015225291717797518
1738772218829760000,7.678760009765625,0.0022333269007503986,0.004706604406237602,-0.0006601976347155869
1738772218839751000,7.6887509765625,0.002109223511070013,0.0021664814557880163,0.0011142665753141046
1738772218849741800,7.698741943359375,0.0011925635626539588,0.0033814155030995607,-0.000010918960470007733
1738772218859733000,7.70873291015625,0.0012900352012366056,0.005628857295960188,-0.001020257011987269
1738772218869724200,7.71872412109375,0.0010879012988880277,0.004202734678983688,0.0010607370641082525
1738772218879715800,7.7287158203125,0.0013169331941753626,0.003224022686481476,0.0006194512825459242
1738772218889706800,7.738706787109375,0.0006005428149364889,0.002808836055919528,0.0003808320325333625
1738772218899698000,7.748697998046875,0.0028453213162720203,0.0035175031516700983,0.00036724991514347494
1738772218909688800,7.758688720703125,0.0010306433541700244,0.0023675502743571997,0.001561677665449679
1738772218919680000,7.768679931640625,0.0015733955660834908,0.004208593629300594,-0.00028336033574305475
1738772218929671200,7.778671142578125,0.0014357101172208786,0.00398701848462224,-0.000010120012120751198
1738772218939662000,7.788662109375,0.0017214673571288586,0.0037345506716519594,0.0007515440811403096
1738772218949653800,7.79865380859375,0.003299390198662877,0.004537760280072689,0.0005938849062658846
1738772218959645000,7.80864501953125,0.00015153386630117893,0.003686880227178335,0.0005001416429877281
1738772218969635800,7.8186357421875,-0.0005366269615478814,0.0043625240214169025,0.0013723268639296293
1738772218979627000,7.828626953125,0.0018745990237221122,0.004151335451751947,-0.0006087986403144896
1738772218989618200,7.8386181640625,0.002272475278005004,0.00364693277515471,0.0007086671539582312
1738772218999609000,7.848609130859375,0.0008420915110036731,0.004224838688969612,-0.00023515711654908955
1738772219009600800,7.858600830078125,0.0007339671719819307,0.0023164174053817987,0.0011403656098991632
1738772219019592000,7.868592041015625,0.0020093549974262714,0.0025574336759746075,0.0001661812566453591
1738772219029583000,7.8785830078125,0.0011912320042029023,0.0027973842807114124,-0.00037950044497847557
1738772219039574000,7.888573974609375,0.0033723609521985054,0.006013417616486549,0.0007619303651154041
1738772219049565200,7.898565185546875,0.001814411603845656,0.003311640815809369,0.00042876892257481813
1738772219059556000,7.90855615234375,0.0005054679932072759,0.003919640555977821,0.0004673847579397261
1738772219069547800,7.9185478515625,0.0018074874533340335,0.004446147475391626,0.0003073287953156978
1738772219079539000,7.9285390625,0.0014109427575021982,0.004413124173879623,0.0005667206714861095
1738772219089530400,7.9385302734375,0.0011552792275324464,0.002403769176453352,-0.000472977408207953
1738772219099521300,7.948521240234375,-0.0003813646617345512,0.0036762275267392397,0.0013579458463937044
1738772219109512400,7.958512451171875,0.0005672533297911286,0.004760134033858776,-0.00039840888348408043
1738772219119503600,7.968503662109375,0.000015712650565546937,0.0046448190696537495,0.0004988100845366716
1738772219129494500,7.97849462890625,-0.000016777914424892515,0.0043990095146000385,0.0004069310089107603
1738772219139486500,7.988486572265625,0.0018093516118824482,0.0033625070936977863,-0.0002924150903709233
1738772219149477400,7.998477294921875,0.0022415826097130775,0.004326305352151394,0.0020295949652791023
1738772219159468300,8.00846826171875,0.002374740783125162,0.004217115696519613,0.0007898935582488775
1738772219169459500,8.01845947265625,0.0022186795249581337,0.0045585329644382,0.00004660531703848392
1738772219179450600,8.02845068359375,0.0030538467690348625,0.0037326866295188665,0.0005006743012927473
1738772219189441500,8.038441650390626,0.0024053670931607485,0.005428054835647345,0.0005398227367550135
1738772219199433500,8.04843359375,0.0009321063989773393,0.002779008587822318,-0.00014381069922819734
1738772219209424400,8.05842431640625,0.0020034960471093655,0.005507683381438255,0.0011472897604107857
1738772219219415600,8.06841552734375,0.0018604843644425273,0.0030866037122905254,-0.0016170714516192675
1738772219229406500,8.078406494140625,0.002698048483580351,0.0032466596458107233,0.0004492752777878195
1738772219239397600,8.088397705078124,0.0014101437991485,0.0028852687682956457,-0.0014591459184885025
1738772219249388500,8.098388427734376,0.0019829897210001945,0.0030828751623630524,-0.0001483380765421316
1738772219259379500,8.10837939453125,0.0010287790792062879,0.0038091193418949842,-0.00008309062832267955
1738772219269371400,8.118371337890625,0.0018258632626384497,0.0034293525386601686,0.000437291048001498
1738772219279362600,8.128362548828125,0.0011147991754114628,0.0023912524338811636,-0.00008708536915946752
1738772219289353500,8.138353515625,0.0018580874893814325,0.005257079843431711,-0.0006676545017398894
1738772219299344600,8.1483447265625,0.00011398329661460593,0.0038687740452587605,-0.00035712990211322904
1738772219309335600,8.15833544921875,0.0002407497668173164,0.004412325099110603,-0.0007739146240055561
1738772219319326500,8.168326416015624,0.0015843145083636045,0.003885019337758422,0.0002769687562249601
1738772219329318400,8.178318359375,0.0016415724530816078,0.0044317664578557014,-0.0006980145117267966
1738772219339309600,8.1883095703125,0.00044474788592197,0.002802444389089942,-0.0004796353168785572
1738772219349300500,8.198300537109375,0.0015640745405107737,0.0032807481475174427,-0.0004820321628358215
1738772219359291600,8.208291748046875,0.0016335829859599471,0.003856257302686572,-0.00018615495355334133
1738772219369282600,8.218282470703125,0.0025654230266809464,0.003632019041106105,0.0009752495680004358
1738772219379273500,8.2282734375,0.0022498385515064,0.003465837799012661,-0.000004261057711119065
1738772219389265700,8.238265625,0.0009859022684395313,0.00558118661865592,0.0005376922199502587
1738772219399256600,8.248256591796874,0.0003043993201572448,0.0030146983917802572,0.00013795174891129136
1738772219409247500,8.25824755859375,0.0009928264189511538,0.004303934518247843,-0.0012479572324082255
1738772219419238700,8.26823876953125,0.001960885478183627,0.0033987262286245823,0.0008098672842606902
1738772219429229600,8.2782294921875,0.0022027005907148123,0.0031521173659712076,0.0013315805699676275
1738772219439220500,8.288220458984375,0.0008306399104185402,0.003695668652653694,0.0012948289513587952
1738772219449211400,8.29821142578125,0.0009408948244526982,0.003680754918605089,-0.0007853662245906889
1738772219459202600,8.30820263671875,0.0016615461790934205,0.00321843009442091,0.00022423815971706063
1738772219469194500,8.318194580078124,0.0009084042394533753,0.004378236830234528,0.0006271744496189058
1738772219479185700,8.328185546875,0.0007896272582001984,0.005566539242863655,0.0011116034584119916
1738772219489176600,8.338176513671876,0.000874582096002996,0.0035063179675489664,0.00002450108149787411
1738772219499167500,8.34816748046875,0.0007954862085171044,0.003579022129997611,0.0003430151555221528
1738772219509158400,8.358158447265625,0.0016173376934602857,0.004826979245990515,-0.0009424926829524338
1738772219519149600,8.368149658203125,0.0015150723047554493,0.003890878288075328,0.00011238539445912465
1738772219529140500,8.378140380859374,0.0016077503096312284,0.002855974016711116,0.00017204020696226507
1738772219539132400,8.38813232421875,0.0018913770327344537,0.003885818412527442,0.0009406284661963582
1738772219549123600,8.39812353515625,0.002695385366678238,0.0029577065724879503,-0.000627973407972604
1738772219559114500,8.408114501953126,0.0014034858904778957,0.004353735595941544,-0.0006993460701778531
1738772219569105400,8.41810546875,0.0022980417124927044,0.004543086513876915,0.0014452975010499358
1738772219579096600,8.4280966796875,0.0030274814926087856,0.0033744913525879383,-0.0006596649764105678
1738772219589087500,8.43808740234375,0.0005352954030968249,0.00418435875326395,-0.0010807107901200652
1738772219599079400,8.448079345703125,0.00009321063407696784,0.0044440170750021935,-0.0007382282637991011
1738772219609070600,8.458070556640624,0.002222407842054963,0.0034179009962826967,0.00048709215479902923
1738772219619061500,8.4680615234375,0.001327053178101778,0.0033800839446485043,-0.001023452845402062
1738772219629052400,8.478052490234376,0.0012487561907619238,0.003947070799767971,0.0005424859118647873
1738772219639043600,8.488043701171875,0.001793905277736485,0.002656236756592989,-0.0006162554491311312
1738772219649034500,8.498034423828125,0.000371777277905494,0.004326837603002787,-0.000428502622526139
1738772219659026400,8.5080263671875,0.0014988270122557878,0.003916178364306688,-0.002891660202294588
1738772219669017600,8.518017578125,-0.00024288028362207115,0.0028855351265519857,0.000830107310321182
1738772219679008500,8.528008544921875,0.0011430287268012762,0.003777960315346718,-0.0004394215648062527
1738772219688999400,8.53799951171875,0.0001459412305848673,0.003970507066696882,-0.000990962260402739
1738772219698990600,8.547990478515626,0.0007643272401764989,0.004366518929600716,0.0011946940794587135
1738772219708981500,8.5579814453125,0.0019981698133051395,0.0030780816450715065,0.0002716424351092428
1738772219718973400,8.567973388671875,0.0014998923288658261,0.0030711572617292404,0.0007970841252245009
1738772219728964600,8.577964599609375,0.0005645901546813548,0.00421205535531044,0.0016437029698863626
1738772219738955500,8.58795556640625,0.002156627830117941,0.002659432590007782,0.0009025452891364694
1738772219748946400,8.597946533203125,0.0003462109307292849,0.004195810295641422,0.00045619948650710285
1738772219758937300,8.607937255859374,0.0028477180749177933,0.003341201925650239,0.00045806370326317847
1738772219768928500,8.617928466796876,0.0027031085919588804,0.004898884799331427,0.0017893778858706355
1738772219778920400,8.62792041015625,0.0016205335268750787,0.004437359049916267,-0.00048416267964057624
1738772219788911600,8.63791162109375,0.001862348522990942,0.003841077210381627,-0.0001102548703784123
1738772219798902500,8.647902587890625,0.0005701828049495816,0.0024799355305731297,0.0003400856803636998
1738772219808893400,8.6578935546875,0.0006788397440686822,0.005620335228741169,-0.00008468852320220321
1738772219818884400,8.66788427734375,0.0018434401135891676,0.0034469293896108866,-0.00005379585491027683
1738772219828875500,8.67787548828125,0.0007752461824566126,0.005652559455484152,-0.0011198592837899923
1738772219838867500,8.687867431640624,0.00037736992817372084,0.002490588231012225,-0.0006056028068996966
1738772219848858400,8.6978583984375,0.0007547398563474417,0.0046538738533854485,0.0011110707418993115
1738772219858849500,8.707849609375,0.001984853995963931,0.0041345576755702496,0.000737695605494082
1738772219868840400,8.71784033203125,0.0015417039394378662,0.0035063179675489664,0.0005581985460594296
1738772219878831400,8.727831298828125,0.00044022052315995097,0.0043745082803070545,0.0006865629111416638
1738772219888822500,8.737822509765625,0.0021880532149225473,0.0025931198615580797,0.002560629276558757
1738772219898814500,8.747814453125,0.0009691243176348507,0.003713245503604412,0.0015867113834246993
1738772219908805400,8.757805419921874,0.0016980315558612347,0.002766757970675826,0.0007816377910785377
1738772219918796500,8.767796630859374,0.0011622034944593906,0.0038312235847115517,0.0004993426846340299
1738772219928787500,8.777787353515626,0.0017230651574209332,0.003525758860632777,-0.0009571401169523597
1738772219938778400,8.7877783203125,0.0020130835473537445,0.005387841258198023,0.0010972223244607449
1738772219948769500,8.79776953125,0.0028522454667836428,0.003706587478518486,-0.0001549959706608206
1738772219958761500,8.807761474609375,0.002049036091193557,0.004644286818802357,-0.0005984122981317341
1738772219968752400,8.81775244140625,0.0011536814272403717,0.0037438718136399984,0.0006269080913625658
1738772219978743600,8.82774365234375,0.00044341632747091353,0.003366768127307296,0.000675111310556531
1738772219988734500,8.837734375,0.0021086910273879766,0.0033004553988575935,-0.00012170646368758753
1738772219998725400,8.847725341796876,0.0011166634503751993,0.0031931300181895494,0.0011259844759479165
1738772220008716500,8.857716552734376,0.001356614287942648,0.003988882526755333,-0.0010783139150589705
1738772220018708500,8.86770849609375,0.0012895026011392474,0.0036458675749599934,0.001201884588226676
1738772220028699400,8.877699462890625,0.000025832661776803434,0.0035989959724247456,0.00032863407977856696
1738772220038690600,8.887690673828125,0.0007659250986762345,0.003493002150207758,-0.00038775624125264585
1738772220048681500,8.897681396484375,0.0008452873444184661,0.004240285139530897,0.0017307883827015758
1738772220058672400,8.90767236328125,0.00221947836689651,0.003622697899118066,0.0017275925492867827
1738772220068663300,8.917663330078126,0.0014961638953536749,0.0029547770973294973,0.0010801780736073852
1738772220078654500,8.927654541015626,0.001891909632831812,0.003035204717889428,-0.0011635350529104471
1738772220088645600,8.937645751953125,0.0024567660875618458,0.0032373385038226843,0.0009747169679030776
1738772220098636500,8.947636474609375,0.0012689962750300765,0.003005110891535878,-0.0006215817993506789
1738772220108627500,8.95762744140625,0.001113201375119388,0.003938016481697559,0.00027297402266412973
1738772220118618600,8.96761865234375,0.0014378406340256333,0.0023784691002219915,0.0001478054327890277
1738772220128609500,8.977609619140624,0.0013025520602241158,0.0038962047547101974,-0.00020106865849811584
1738772220138601500,8.9876015625,0.0011664645280689,0.004434163216501474,-0.00017204020696226507
1738772220148592600,8.997592529296876,0.0001656486128922552,0.0040823593735694885,-0.0008535431115888059
1738772220158583600,9.00758349609375,0.00033928672201000154,0.0035449336282908916,-0.0005957491230219603
1738772220168574500,9.017574462890625,0.0023276028223335743,0.00296276668086648,0.0008703210623934865
1738772220178565600,9.027565673828125,0.0005358280031941831,0.0031321437563747168,-0.0011310444679111242
1738772220188556500,9.037556640625,0.0010468886466696858,0.004451207350939512,0.0010375675046816468
1738772220198548500,9.047548583984375,0.0023339942563325167,0.003430151380598545,0.000336090917699039
1738772220208539600,9.05753955078125,-0.00027324032271280885,0.003257312346249819,0.0011824434623122215
1738772220218530600,9.067530517578126,0.0004122573300264776,0.004791559185832739,0.000841825210954994
1738772220228521500,9.077521484375,0.000821318884845823,0.0038152446504682302,0.0011057445080950856
1738772220238512600,9.0875126953125,0.0012032161466777325,0.003404052462428808,0.00035899411886930466
1738772220248503800,9.09750390625,0.004185956437140703,0.0031912659760564566,0.00042983421008102596
1738772220258495500,9.10749560546875,0.001038366463035345,0.004283428192138672,-0.0006053365068510175
1738772220268486700,9.117486572265625,0.0031854070257395506,0.004939631093293428,0.00018109494703821838
1738772220278477600,9.1274775390625,0.0010868359822779894,0.003954794257879257,0.0011198592837899923
1738772220288468500,9.137468505859376,0.00049082055920735,0.003936951048672199,0.0012607404496520758
1738772220298459600,9.147459716796876,0.002154231071472168,0.00421391986310482,0.0008982842555269599
1738772220308450800,9.157450927734375,-0.000014381069377122913,0.0038898130878806114,-0.00024527712957933545
1738772220318442500,9.1674423828125,0.0032288164366036654,0.002856240142136812,0.0011717908782884479
1738772220328433400,9.177433349609375,0.001933721243403852,0.003376355627551675,0.000284159294096753
1738772220338424600,9.187424560546875,0.002276470186188817,0.0032021848019212484,0.0011443602852523327
1738772220348415500,9.19741552734375,-0.00001864212754298933,0.004585164599120617,0.0021558289881795645
1738772220358406700,9.20740673828125,0.001091629732400179,0.003771835006773472,0.00039015308720991015
1738772220368397800,9.217397705078126,0.0017150756902992725,0.004522580187767744,-0.0007787083159200847
1738772220378388700,9.227388671875,0.0007145261042751372,0.005313006229698658,0.0011760519118979573
1738772220388380400,9.23738037109375,0.0025869945529848337,0.0018753979820758104,0.00036511936923488975
1738772220398371600,9.24737158203125,0.0013640711549669504,0.003947869874536991,-0.0003741741238627583
1738772220408362800,9.25736279296875,0.0008317052270285785,0.0027363980188965797,0.0003605920064728707
1738772220418353700,9.267353759765625,-0.0005480785621330142,0.004714061506092548,0.00014327807002700865
1738772220428344800,9.2773447265625,0.0014237258583307266,0.003313771216198802,0.0005331648280844092
1738772220438335700,9.287335693359376,0.0008199872681871057,0.0038546593859791756,0.00017230652156285942
1738772220448327400,9.297327392578126,0.0025390577502548695,0.0032679650466889143,0.0007683219737373292
1738772220458318600,9.307318603515625,0.0018975022248923779,0.004767591133713722,0.0010458233300596476
1738772220468309800,9.317309814453125,0.0007459514308720827,0.0038336203433573246,-0.00019867181254085153
1738772220478300700,9.32730078125,0.0016221314435824752,0.0031728900503367186,0.0007512777228839695
1738772220488291800,9.337291748046875,0.0030567762441933155,0.003480751533061266,0.0016527577536180615
1738772220498282800,9.34728271484375,0.0017161410069093108,0.0037207023706287146,0.0015158712631091475
1738772220508274400,9.3572744140625,0.0011147991754114628,0.00475320965051651,0.0010926949325948954
1738772220518265600,9.367265625,0.0010780475568026304,0.003963849041610956,-0.000041278995922766626
1738772220528256800,9.3772568359375,0.0006117281154729426,0.00472444761544466,-0.000841825210954994
1738772220538247700,9.38724755859375,0.0021204089280217886,0.0036549223586916924,0.0006966829532757401
1738772220548238600,9.397238525390625,0.0018745990237221122,0.004281031433492899,0.00012383698776829988
1738772220558229800,9.407229736328125,0.0020817930344492197,0.0031848743092268705,-0.0003757720405701548
1738772220568221700,9.4172216796875,0.0012812467757612467,0.003677825443446636,0.0007057376787997782
1738772220578212900,9.427212890625,0.002222674200311303,0.003210174385458231,0.00038748994120396674
1738772220588203800,9.437203857421874,0.0017129451734945178,0.004050667863339186,-0.0006908240029588342
1738772220598194700,9.447194580078126,0.000371777277905494,0.003925765864551067,0.0004777711001224816
1738772220608185600,9.457185546875,0.0019941749051213264,0.004297010600566864,0.0010359697043895721
1738772220618176800,9.4671767578125,0.0008239820599555969,0.004246676806360483,0.000179230744834058
1738772220628168700,9.477168701171875,0.0024852619972079992,0.0043444144539535046,0.0012913667596876621
1738772220638159600,9.48715966796875,0.0020820593927055597,0.004040548112243414,0.001272990950383246
1738772220648150800,9.49715087890625,0.00213532242923975,0.003950532991439104,-0.0011078750248998404
1738772220658141700,9.5071416015625,0.0025015072897076607,0.003933488857001066,0.0003866909828502685
1738772220668132600,9.517132568359376,0.0015329155139625072,0.0017718010349199176,0.001838646363466978
1738772220678123800,9.527123779296875,0.0015430354978889227,0.0032120386604219675,-0.00037976677413098514
1738772220688115700,9.53711572265625,0.0010524812387302518,0.0037015276029706,-0.000532365869730711
1738772220698106600,9.547106689453125,0.001603489276021719,0.004427505191415548,0.0008679241873323917
1738772220708097800,9.557097900390625,0.0016626114957034588,0.0031345405150204897,0.0012367720482870936
1738772220718088700,9.567088623046875,0.000675111310556531,0.0036597158759832382,-0.00008335694292327389
1738772220728079600,9.57707958984375,0.0018588864477351308,0.003923102747648954,-0.00008388957212446257
1738772220738070800,9.58707080078125,0.0015211976133286953,0.0033726270776242018,-0.00001864212754298933
1738772220748062700,9.597062744140626,0.0013670006301254034,0.003918575122952461,-0.0009440905996598303
1738772220758053600,9.6070537109375,0.0009864348685368896,0.0037787591572850943,0.0016639430541545153
1738772220768044800,9.617044921875,0.00130920996889472,0.004685831721872091,0.0003712446487043053
1738772220778035700,9.62703564453125,0.0011259844759479165,0.004309260752052069,-0.0007041397620923817
1738772220788026600,9.637026611328125,0.0006727144937030971,0.0036629117093980312,0.0008852347382344306
1738772220798017800,9.647017822265624,0.0013065468519926071,0.003923634998500347,-0.00012650014832615852
1738772220808008700,9.6570087890625,0.0018612833227962255,0.003305515507236123,0.0016756609547883272
1738772220818000600,9.667000732421876,0.0005073322099633515,0.002784601179882884,0.00007590009045088664
1738772220827991800,9.67699169921875,0.0017869811272248626,0.004352404270321131,0.000854075769893825
1738772220837982700,9.686982666015625,0.0014144048327580094,0.0032000544015318155,0.0012405004817992449
1738772220847973600,9.6969736328125,0.0013086773687973619,0.003932157531380653,0.0011867046123370528
1738772220857964500,9.706964599609375,0.0007962851668708026,0.004402471706271172,-0.000907338981050998
1738772220867955700,9.716955810546875,0.0006570018595084548,0.0030602384358644485,-0.0014056164072826505
1738772220877947600,9.72694775390625,0.002144643571227789,0.003952131140977144,0.0010213222121819854
1738772220887938800,9.736938720703124,0.00032863407977856696,0.003826429834589362,0.0000881506348378025
1738772220897929700,9.7469296875,-0.0007752461824566126,0.003822701284661889,0.002061553066596389
1738772220907920600,9.756920654296875,0.00006231796578504145,0.004579305648803711,0.00044128578156232834
1738772220917911600,9.76691162109375,0.003317499766126275,0.0033398703671991825,-0.0007126618875190616
1738772220927902700,9.77690283203125,0.0006514092092402279,0.004839229863137007,0.0008500810363329947
1738772220937894700,9.786894775390625,0.0017776599852368236,0.002773415995761752,0.0008671252289786935
1738772220947885600,9.796885498046874,0.00013262542779557407,0.004099936690181494,0.00035606464371085167
1738772220957876700,9.806876708984374,0.0019228023011237383,0.0046813045628368855,0.0012199940392747521
1738772220967867600,9.81686767578125,0.0015954998089000583,0.005393700208514929,0.0009323726990260184
1738772220977858600,9.826858642578125,0.0016460998449474573,0.0036165728233754635,0.0001102548703784123
1738772220987849700,9.836849609375,0.002689260058104992,0.0034344124142080545,0.0007387608638964593
1738772220997841700,9.846841552734375,0.0022066952660679817,0.004647482186555862,0.0008080030675046146
1738772221007832600,9.85683251953125,0.0019283948931843042,0.004083158448338509,-0.0002247707889182493
1738772221017823700,9.86682373046875,0.0016050871927291155,0.004833637271076441,0.0002615224220789969
1738772221027814700,9.876814697265624,0.002180329989641905,0.005087436642497778,-0.0017443705582991242
1738772221037805600,9.8868056640625,0.0009552759001962841,0.0032061797101050615,0.00011371697473805398
1738772221047796700,9.896796630859376,0.000847950461320579,0.003120958572253585,0.00015579492901451886
1738772221057788700,9.90678857421875,0.002906840294599533,0.003204315435141325,0.00008628641808172688
1738772221067779600,9.916779541015625,0.0013145363191142678,0.0029702235478907824,-0.0014599448768422008
1738772221077770800,9.926770751953125,0.0014682007022202015,0.0023965786676853895,-0.0008428904693573713
1738772221087762200,9.93676220703125,0.0016966998809948564,0.0031912659760564566,0.0019030949333682656
1738772221097753000,9.946753173828125,0.0008966863388195634,0.0028791434597223997,-0.00020106865849811584
1738772221107744000,9.956743896484374,0.0018010957865044475,0.003204315435141325,-0.0006700513185933232
1738772221117736200,9.966736083984374,0.00045806370326317847,0.004165450111031532,0.0010013486025854945
1738772221127727000,9.97672705078125,0.001062334980815649,0.003929760307073593,0.001788312685675919
1738772221137718000,9.986718017578125,0.002410160843282938,0.0037404096219688654,-0.0009542105835862458
1738772221147709000,9.996708984375,0.0008500810363329947,0.00293400464579463,0.0012053466634824872
1738772221157700000,10.0067001953125,0.002275138394907117,0.002832005498930812,-0.00020133497309871018
1738772221167691000,10.01669091796875,0.00038988678716123104,0.004313522018492222,0.0003904194163624197
1738772221177683200,10.02668310546875,-0.00011851066665258259,0.00336117553524673,0.0006958839949220419
1738772221187674000,10.036674072265624,0.0005073322099633515,0.004494616761803627,0.0006221143994480371
1738772221197665000,10.0466650390625,0.0017757958266884089,0.0030485205352306366,-0.0006226470577530563
1738772221207656000,10.056656005859375,0.001520132296718657,0.003900199430063367,0.00023382554354611784
1738772221217647000,10.066647216796875,0.0018945727497339249,0.005137770436704159,-0.00072597770486027
1738772221227638000,10.076637939453125,0.0015281217638403177,0.0041276332922279835,0.00047697214176878333
1738772221237630000,10.0866298828125,0.00037976677413098514,0.003571032779291272,-0.00037763622822239995
1738772221247621000,10.09662109375,0.002441852353513241,0.0029909962322562933,-0.0003640541108325124
1738772221257612000,10.106612060546874,0.0002956108655780554,0.003966512158513069,0.0006000102148391306
1738772221267603000,10.11660302734375,0.0015712650492787361,0.0027808728627860546,0.0006897587445564568
1738772221277594000,10.126593994140626,0.0016769925132393837,0.004005926661193371,0.0008386294357478619
1738772221287585000,10.1365849609375,0.0020274645648896694,0.004322310443967581,-0.0000697748182574287
1738772221297576000,10.146575927734375,0.0018583538476377726,0.003397128311917186,0.000012250540748937055
1738772221307568000,10.156568115234375,0.0017174725653603673,0.004782238509505987,0.0005052016349509358
1738772221317559000,10.16655908203125,0.00032863407977856696,0.004132426809519529,-0.00019148127466905862
1738772221327550000,10.176550048828124,0.0007523429812863469,0.004077033139765263,0.0019060244085267186
1738772221337541000,10.186541015625,0.0022218753583729267,0.004358795937150717,-0.00012436961696948856
1738772221347532000,10.196531982421876,0.0017915084026753902,0.003501524217426777,0.0016676714876666665
1738772221357523000,10.20652294921875,0.0014357101172208786,0.004653075244277716,0.0015012238873168826
1738772221367515100,10.21651513671875,-0.00007936220208648592,0.004248008131980896,-0.0015134743880480528
1738772221377506000,10.226506103515625,0.000636495475191623,0.004216316621750593,0.0007872303831391037
1738772221387497000,10.2364970703125,0.0005483448621816933,0.004699414130300283,0.0007576693315058947
1738772221397488000,10.246488037109375,0.0027478495612740517,0.0044011399149894714,0.001404284848831594
1738772221407479000,10.25647900390625,0.0004426173691172153,0.0033481260761618614,-0.0016647420125082135
1738772221417470000,10.266469970703126,0.002124137245118618,0.005634982604533434,0.0004644552827812731
1738772221427462100,10.276462158203126,0.000999750685878098,0.004625378176569939,0.0013840447645634413
1738772221437453000,10.286453125,0.0025249430909752846,0.0036493295338004827,0.0007954862085171044
1738772221447444000,10.29644384765625,0.002441585995256901,0.003855191869661212,-0.0006740460521541536
1738772221457435000,10.306434814453125,0.0010924286907538772,0.00350365461781621,0.00017097493400797248
1738772221467426000,10.316426025390625,0.0020266654901206493,0.003213370218873024,-0.00098217383492738
1738772221477417000,10.3264169921875,0.00024154871061909944,0.0030245520174503326,0.0006732470938004553
1738772221487409200,10.3364091796875,0.0010751180816441774,0.003969974350184202,-0.0001651159836910665
1738772221497400000,10.346400146484376,0.0018777948571369052,0.0034751589410007,-0.0012056130217388272
1738772221507391000,10.356390869140625,0.002763562137261033,0.004628041293472052,0.0009390306076966226
1738772221517382000,10.3663818359375,0.0023238742724061012,0.003952663857489824,-0.000428502622526139
1738772221527373000,10.376373046875,0.0016098808264359832,0.003734284546226263,0.002112685702741146
1738772221537364000,10.386364013671875,0.002177933230996132,0.0030309436842799187,0.0001507349224993959
1738772221547356000,10.39635595703125,0.0026674221735447645,0.0057468353770673275,-0.0005344964447431266
1738772221557347000,10.40634716796875,0.0010040117194876075,0.00293373828753829,0.0005246427026577294
1738772221567338000,10.416337890625,0.002385659608989954,0.004107659682631493,0.0013528858544304967
1738772221577329000,10.426328857421876,0.002150236163288355,0.0041313618421554565,0.0008729841792955995
1738772221587320000,10.436320068359375,0.0007076018955558538,0.003935619257390499,0.0001131843455368653
1738772221597311000,10.44631103515625,0.0018881811993196607,0.0041215079836547375,-0.00032863407977856696
1738772221607303000,10.456302978515625,-0.0004772384709212929,0.003919107839465141,0.0013622068800032139
1738772221617294000,10.466294189453125,0.0008197209681384265,0.00310604483820498,0.000544350128620863
1738772221627285000,10.476284912109374,0.002329733222723007,0.0034314829390496016,0.0003398193512111902
1738772221637276000,10.48627587890625,0.0014945659786462784,0.0035840822383761406,0.00024048343766480684
1738772221647267000,10.49626708984375,0.0008918926469050348,0.003293797606602311,-0.0005427522119134665
1738772221657258000,10.506258056640625,0.0001270327775273472,0.003509779926389456,-0.00018508969515096396
1738772221667250000,10.51625,-0.00008388957212446257,0.004910869058221579,-0.0016756609547883272
1738772221677241000,10.526240966796875,0.0007187871960923076,0.004789695143699646,0.0004689826746471226
1738772221687232000,10.53623193359375,0.0003502056933939457,0.003472229465842247,-0.0002103897277265787
1738772221697223000,10.546222900390624,0.002147573046386242,0.0039087217301130295,0.001526257605291903
1738772221707214000,10.556214111328124,0.002695119008421898,0.003805390791967511,0.00007084008393576369
1738772221717205000,10.566205078125,0.0018269284628331661,0.0041151163168251514,0.0012631373247131705
1738772221727196000,10.57619580078125,0.0016258598770946264,0.0037641117814928293,-0.00012836436508223414
1738772221737188000,10.58618798828125,0.0030000510159879923,0.0031156321056187153,0.001326786819845438
1738772221747179000,10.596178955078125,0.0014413028256967664,0.0038093857001513243,-0.0011936287628486753
1738772221757170000,10.606169921875,0.0019973707385361195,0.003989947959780693,0.001505751279182732
1738772221767160800,10.616160888671875,0.0026056368369609118,0.004836034029722214,0.0016226640436798334
1738772221777152000,10.626152099609374,-0.0009869674686342478,0.0017441042000427842,0.00041678472189232707
1738772221787143000,10.636142822265626,0.000892425247002393,0.0041705104522407055,0.0010748518398031592
1738772221797135000,10.646135009765626,-0.00004340952364145778,0.002971288748085499,-0.000049801110435510054
1738772221807126000,10.6561259765625,0.002457298804074526,0.0024027039762586355,0.0008839031797833741
1738772221817117000,10.666116943359375,0.0011608719360083342,0.00418249424546957,0.0009379653492942452
1738772221827107800,10.67610791015625,0.0013334447285160422,0.004228300880640745,0.0008338357438333333
1738772221837099000,10.68609912109375,0.0003787015157286078,0.002920954953879118,0.001116130850277841
1738772221847090000,10.69608984375,0.0006178533658385277,0.0032951291650533676,-0.0001805623178370297
1738772221857081900,10.706081787109374,0.0018671422731131315,0.003468767274171114,-0.00024154871061909944
1738772221867073000,10.716072998046876,0.0001699096756055951,0.003376888344064355,0.00010412959818495438
1738772221877064000,10.72606396484375,0.0026935210917145014,0.004971588961780071,0.00022370553051587194
1738772221887054800,10.736054931640625,-0.0010373012628406286,0.0033598439767956734,0.0004498079069890082
1738772221897046000,10.7460458984375,0.0018647453980520368,0.0028852687682956457,-0.0011408982099965215
1738772221907037000,10.756036865234375,0.001086037140339613,0.004546815063804388,0.0002697782183531672
1738772221917028900,10.76602880859375,-0.00021971078240312636,0.00387276872061193,0.000009054747351910919
1738772221927020000,10.77602001953125,0.0018559569725766778,0.0036221654154360294,-0.00024980452144518495
1738772221937011000,10.786010986328124,0.0008759136544540524,0.00324852392077446,0.0014644722687080503
1738772221947001900,10.796001953125,0.0015017564874142408,0.0038810246624052525,0.00011771172285079956
1738772221956993000,10.805992919921875,0.0022535668686032295,0.003942010924220085,0.000526773277670145
1738772221966984000,10.81598388671875,0.000669518718495965,0.0033483924344182014,-0.00022024342615623027
1738772221976976000,10.825975830078125,0.001882854849100113,0.0036935380194336176,-0.00011265171633567661
1738772221986967000,10.835967041015625,0.0023939155507832766,0.0027233485598117113,0.001386441639624536
1738772221996958000,10.8459580078125,0.0011382350930944085,0.0034104441292583942,0.00045619948650710285
1738772222006948900,10.855948974609374,0.00239231763407588,0.0030029804911464453,0.000028229507734067738
1738772222016940000,10.86593994140625,0.00021971078240312636,0.004358263220638037,0.0010327738709747791
1738772222026931000,10.875930908203125,-0.0018255969043821096,0.004328702110797167,-0.00023222764139063656
1738772222036921900,10.885921875,0.0031153657473623753,0.0037739656399935484,0.0016373114194720984
1738772222046914000,10.8959140625,0.00041625206358730793,0.0033459956757724285,0.00042770366417244077
1738772222056905000,10.905905029296875,0.0008293083519674838,0.0038373488932847977,0.00042796999332495034
1738772222066896000,10.915895751953125,0.0017480988753959537,0.0032381375785917044,0.000023435817638528533
1738772222076886800,10.92588671875,0.000996554852463305,0.0036751623265445232,0.0011552792275324464
1738772222086877700,10.935877685546876,0.002579005202278495,0.004465854726731777,-0.0005803027888759971
1738772222096868900,10.945868896484376,0.0022455775178968906,0.003534547286108136,0.000648479734081775
1738772222106860500,10.955860595703125,0.00086872314568609,0.003316700691357255,-0.00014860439114272594
1738772222116851700,10.965851806640625,0.0014101437991485,0.004674912896007299,-0.0009227853151969612
1738772222126842600,10.975842529296875,0.0008125304593704641,0.004187288228422403,0.000005060006060375599
1738772222136833800,10.985833740234375,0.0010764497565105557,0.004225371405482292,0.00041438787593506277
1738772222146825000,10.995824951171874,0.0016948357224464417,0.0033902039285749197,0.0005158542771823704
1738772222156816000,11.00581591796875,0.002639458980411291,0.003799531841650605,-0.0000399474156438373
1738772222166807600,11.0158076171875,0.0027329358272254467,0.002808569697663188,0.002109489869326353
1738772222176798700,11.025798828125,-0.00027297402266412973,0.0033968619536608458,-0.00021145498612895608
1738772222186789600,11.03578955078125,0.0006913566030561924,0.0023015039041638374,0.00029640982393175364
1738772222196780800,11.04578076171875,0.0013190637109801173,0.0017694041598588228,-0.0010162622202187777
1738772222206772000,11.05577197265625,-0.000040480048483004794,0.004009921569377184,0.0009275790071114898
1738772222216763000,11.065762939453125,0.00088976213010028,0.004561994690448046,-0.00003009372085216455
1738772222226754600,11.075754638671874,0.0012825783342123032,0.003120692213997245,0.0010727213229984045
1738772222236745700,11.085745849609374,0.0015009575290605426,0.0049401638098061085,-0.0005448827287182212
1738772222246736600,11.095736572265626,0.0007025419035926461,0.004120443016290665,-0.0008937568636611104
1738772222256727800,11.105727783203125,0.0003755057114176452,0.0030304109677672386,-0.00002370213405811228
1738772222266719000,11.115718994140625,0.002332396572455764,0.003261040663346648,0.0005392901366576552
1738772222276710000,11.1257099609375,0.0014889733865857124,0.0032621060963720083,-0.0004135889175813645
1738772222286701600,11.13570166015625,0.0006535397260449827,0.004516721237450838,-0.00020213393145240843
1738772222296692700,11.145692626953124,0.00030067088664509356,0.00481446273624897,0.0004703142330981791
1738772222306684000,11.155683837890624,0.0014444985426962376,0.0035089810844510794,0.0014588796766474843
1738772222316674800,11.1656748046875,0.0027057717088609934,0.003549194661900401,0.00020240024605300277
1738772222326665700,11.175665771484375,-0.00043116576853208244,0.0031276163645088673,-0.0002181128947995603
1738772222336657000,11.185656982421875,0.0012271846644580364,0.004977447912096977,0.0006570018595084548
1738772222346648600,11.195648681640625,0.0027174896094948053,0.004756671842187643,0.0009989517275243998
1738772222356639700,11.2056396484375,0.000179230744834058,0.004056260455399752,0.0007640608819201589
1738772222366631000,11.215630859375,0.001969940261915326,0.00375958438962698,0.00015100123709999025
1738772222376621800,11.225621826171874,0.000740625080652535,0.004580636974424124,0.00013981595111545175
1738772222386612700,11.23561279296875,0.0008450209861621261,0.003931891173124313,-0.0007864314829930663
1738772222396604000,11.24560400390625,0.0007693872321397066,0.003691940102726221,0.0012966931099072099
1738772222406595600,11.255595703125,0.0012250541476532817,0.003055178327485919,0.0014479606179520488
1738772222416586800,11.265586669921875,0.0017563547007739544,0.003691940102726221,-0.00007323692989302799
1738772222426578000,11.275577880859375,0.0012689962750300765,0.004599545616656542,0.0002109223569277674
1738772222436568800,11.28556884765625,0.0019262643763795495,0.0037609159480780363,0.0006926882197149098
1738772222446559700,11.295559814453124,-0.00012783173588104546,0.0031526500824838877,-0.000559263804461807
1738772222456551000,11.305551025390624,0.0009097357979044318,0.0042733084410429,-0.00018189390539191663
1738772222466541800,11.315541748046876,-0.0009763148264028132,0.004324174486100674,0.0002008023438975215
1738772222476533800,11.32553369140625,0.0010721886064857244,0.003204049076884985,0.0009398295660503209
1738772222486525000,11.33552490234375,0.0009470200748182833,0.0029289445374161005,0.0014929680619388819
1738772222496515800,11.345515869140625,0.00034221619716845453,0.004583566449582577,-0.0009187905816361308
1738772222506506800,11.3555068359375,0.0016359798610210419,0.003733219113200903,0.0007696535321883857
1738772222516498000,11.365497802734374,0.0014966964954510331,0.004031759686768055,-0.00004900216299574822
1738772222526488800,11.37548876953125,0.0011821772204712033,0.002889263443648815,-0.00017097493400797248
1738772222536480800,11.385480712890624,0.0017992316279560328,0.0034432008396834135,0.0005898901727050543
1738772222546472000,11.395471923828126,0.0032088428270071745,0.004061853047460318,-0.00032091091270558536
1738772222556462800,11.405462890625,0.00034168356796726584,0.003492203075438738,0.00041731735109351575
1738772222566453800,11.415453857421875,0.0017688715597614646,0.003428020980209112,0.0010482202051207423
1738772222576445000,11.42544482421875,0.0014777880860492587,0.004056260455399752,-0.0006612628931179643
1738772222586435800,11.435435791015625,0.0017121462151408195,0.004204865079373121,-0.0005704491049982607
1738772222596427800,11.445427734375,0.001487375469878316,0.0027662254869937897,-0.0001882854849100113
1738772222606419000,11.4554189453125,0.0019030949333682656,0.005137504078447819,0.0007744472241029143
1738772222616409900,11.465409912109376,0.0007640608819201589,0.004677576012909412,-0.00019041601626668125
1738772222626400800,11.47540087890625,0.003010969841852784,0.003847468877211213,-0.0005960154230706394
1738772222636391700,11.4853916015625,0.002086054068058729,0.003055444685742259,-0.00020346550445538014
1738772222646382800,11.4953828125,0.0014215953415259719,0.004510862287133932,0.0003448793722782284
1738772222656374800,11.505374755859375,0.002430134452879429,0.0032405343372374773,-0.0003121224872302264
1738772222666366000,11.515365966796875,0.000892691605258733,0.0038511971943080425,0.0006263754912652075
1738772222676356900,11.52535693359375,0.0013395700370892882,0.0023550332989543676,-0.0009664611425250769
1738772222686347800,11.53534765625,0.0010436928132548928,0.002683933824300766,0.0005174521938897669
1738772222696338700,11.545338623046876,0.002385925967246294,0.0021321268286556005,0.0009725864510983229
1738772222706329900,11.555329833984375,0.0019534286111593246,0.004262122791260481,-0.0000679106087773107
1738772222716321800,11.56532177734375,0.0013664679136127234,0.004481833893805742,-0.00013928332191426307
1738772222726313000,11.57531298828125,0.00044554684427566826,0.004497013986110687,0.0015110776294022799
1738772222736303900,11.585303955078125,0.002113218419253826,0.003599794814363122,-0.00007323692989302799
1738772222746294800,11.595294677734374,0.0021465078461915255,0.005583849735558033,0.002287389012053609
1738772222756285700,11.60528564453125,0.002910302486270666,0.0038181741256266832,-0.00063383235828951
1738772222766276900,11.61527685546875,0.0006535397260449827,0.004567587748169899,-0.0008005462004803121
1738772222776268800,11.625268798828126,0.002117745578289032,0.002972087822854519,-0.00040852889651432633
1738772222786259700,11.635259765625,0.0014911039033904672,0.002602973720058799,0.0006969492533244193
1738772222796251000,11.6452509765625,0.0016341155860573053,0.004116980824619532,-0.0012809804175049067
1738772222806241800,11.65524169921875,0.001044225413352251,0.003988882526755333,0.0020538298413157463
1738772222816232700,11.665232666015624,0.0017683389596641064,0.00339153571985662,0.0004743089957628399
