time,seconds_elapsed,z,y,x
1738772409408700700,0.02270068359375,-0.01047083287090063,-0.01011222869157791,0.0004019612617368693
1738772409418691600,0.032691650390625,-0.0046039866641163826,-0.0071282444447278975,-0.005617370095141814
1738772409428682800,0.042682861328125,-0.018364216469228267,-0.022542671197652814,-0.016104025585437193
1738772409438673700,0.052673583984375,-0.011541969233751297,-0.01369768596291542,0.00017093397953212843
1738772409448665900,0.062665771484375,0.013546002532541752,-0.007998013016581535,0.004080421160205151
1738772409458656800,0.07265673828125,-0.015343115082383155,-0.018918635481595992,-0.0033847188117695623
1738772409468647700,0.082647705078125,-0.004553425520658493,-0.015481062248349189,-0.006007754798105452
1738772409478638600,0.092638671875,0.010536883844435215,-0.01547580155134201,-0.0026982535074930635
1738772409488629800,0.102629638671875,-0.004030570690333843,-0.014563947403430939,0.0002789269673514354
1738772409498621700,0.11262158203125,-0.015026011957228183,-0.020830022060871124,-0.0006656043231050716
1738772409508612600,0.122612548828125,-0.0043485505983233445,-0.02069382846057415,0.004363158508166089
1738772409518603800,0.132603759765625,0.004224924218654632,0.002638531810045242,0.008478024789845221
1738772409528594700,0.1425947265625,-0.009905015681684016,-0.012498247045278549,0.0038939409819082355
1738772409538585600,0.152585693359375,0.002468143679201603,-0.0122258598446846,-0.009194414589516236
1738772409548577800,0.162577880859375,-0.019093992048501967,-0.00518880081474781,-0.0018953744469239607
1738772409558568700,0.172568603515625,0.004365209472179413,-0.009220248287916183,0.0009833811611119018
1738772409568559600,0.1825595703125,0.025481647258996962,-0.016856442254781723,0.00810993126296962
1738772409578550800,0.19255078125,-0.004813537761569023,-0.010703180322051047,0.0056999446576810435
1738772409588541700,0.202541748046875,0.0016284779846668243,-0.00756254420876503,-0.010226870330481324
1738772409598533600,0.21253369140625,0.0037698739275336263,-0.011615618991851807,-0.0030555918886806463
1738772409608524800,0.22252490234375,-0.019960838010907173,-0.01234042613506317,-0.00126343378975871
1738772409618515700,0.232515625,-0.006012684418261051,-0.021327450188994405,0.00034543987871729767
1738772409628506600,0.242506591796875,0.00906651903092861,-0.027642040163278578,0.0027036563392175595
1738772409638497800,0.252497802734375,0.005953939968347549,-0.024507833790779112,0.007357170958686037
1738772409648489700,0.26248974609375,-0.024747780026495456,-0.02360299390554428,0.004672970521898241
1738772409658480600,0.272480712890625,-0.004132569760084152,-0.018206687819957733,0.000004186980528174899
1738772409668471800,0.282471923828125,0.010084171640872955,-0.016261398971080778,-0.013396527042274828
1738772409678462700,0.292462646484375,-0.00196633163690567,-0.018974165061116217,0.0003130345902245608
1738772409688453600,0.30245361328125,-0.0037879941061139105,-0.02255903781056404,-0.009666665464721154
1738772409698445800,0.31244580078125,-0.00883563288450241,-0.01748129615485668,-0.003347922759238281
1738772409708436700,0.322436767578125,-0.011473580172657967,-0.01599953316450119,0.006723310626603779
1738772409718427600,0.332427734375,-0.021714695940911768,-0.02107026055753231,-0.002221568057648983
1738772409728418800,0.342418701171875,0.002236088488996029,-0.00760521430671215,-0.0014073142239394655
1738772409738409700,0.35240966796875,-0.002397416530549526,-0.018081015613675117,0.0010094557464624813
1738772409748401700,0.362401611328125,-0.004891571433842182,-0.0065332011610269546,0.0027356380776691366
1738772409758392800,0.372392822265625,0.006904957082867622,-0.022237550771236417,-0.00020726709529335493
1738772409768383700,0.3823837890625,-0.00047550855726003643,-0.018035422906279564,0.001037323426916555
1738772409778374700,0.392374755859375,0.0041547815918922424,-0.013843816435337065,-0.0003378409514458326
1738772409788365800,0.40236572265625,0.0026510990306735037,-0.016385317611694334,0.005440041337680304
1738772409798357800,0.412357666015625,-0.026315467734634876,-0.013409516671299934,-0.00129101477478398
1738772409808348700,0.4223486328125,-0.009362287107110023,-0.023297288957238194,-0.018369132389652074
1738772409818339800,0.43233984375,0.008862813152372837,-0.019587328523397445,-0.004048181124727125
1738772409828330800,0.442330810546875,-0.009793664261698722,-0.016308160722255705,-0.002941863565229869
1738772409838321700,0.45232177734375,-0.01478343537300825,-0.0203343474984169,0.00798601947222196
1738772409848313900,0.46231396484375,0.005355389553308487,-0.011788637471199036,0.005263748051613219
1738772409858304800,0.4723046875,-0.008452478785812853,-0.01746434502005577,0.004931602050131187
1738772409868295700,0.482295654296875,0.003906944310665131,-0.00966740753352642,-0.0024413527120428625
1738772409878286800,0.492286865234375,0.0073804656401276585,-0.014463409638404845,-0.0034305618246813535
1738772409888278800,0.50227880859375,0.010103460863232612,-0.017165069812536238,0.0011331947208018391
1738772409898269700,0.512269775390625,0.0037991000220179557,-0.017010171511769295,0.008405574899920611
1738772409908260900,0.5222607421875,-0.016057400831580162,-0.017920272094011307,0.0025912631687941027
1738772409918251800,0.532251708984375,-0.013078385020792484,-0.014923428365588187,-0.006708041133880033
1738772409928242700,0.54224267578125,0.0003021978169679642,-0.021674071669578552,0.0011528783812726033
1738772409938235000,0.55223486328125,-0.019976327840983868,-0.016865794605016707,0.012397177274001296
1738772409948225800,0.562225830078125,-0.011656535524129867,-0.016250293055176734,0.01426578644076362
1738772409958216700,0.572216796875,-0.014138123206794261,-0.013833879563212394,-0.0049752368375251535
1738772409968208000,0.582207763671875,0.01821370208263397,-0.016685177341103554,0.008367548440227983
1738772409978198800,0.59219873046875,-0.012777356247603892,-0.01529459976553917,-0.0017779568998666944
1738772409988190700,0.602190673828125,0.000793196204304695,-0.014384499183297157,-0.013358743181999306
1738772409998182000,0.612181884765625,0.012356208226084709,-0.018285598275065422,-0.002225341049407143
1738772410008172800,0.6221728515625,0.013566168537735939,-0.016194178953766823,0.0017260058044543255
1738772410018163700,0.632163818359375,-0.016940905667841434,-0.018743863436579702,-0.006095469614176545
1738772410028155000,0.64215478515625,-0.010174772533774376,-0.018152911806106568,-0.009558640796272083
1738772410038146800,0.652146728515625,-0.0023269816428422925,-0.020116320833563805,-0.0035333834491611924
1738772410048137700,0.6621376953125,-0.0010395721808075904,-0.007381926944851875,-0.022978875224408692
1738772410058129000,0.67212890625,-0.013891747230291365,-0.017262100446224213,0.0017192615406587718
1738772410068119800,0.682119873046875,-0.01588876626640558,-0.011562427499890327,-0.001585871818801388
1738772410078110700,0.69211083984375,0.001695113480091095,-0.00810147339105606,-0.0006819418240862433
1738772410088103000,0.70210302734375,-0.018901099824905395,-0.009572714987397193,-0.009926811954961158
1738772410098093800,0.71209375,-0.0036170214533805846,-0.0037421091377735135,-0.027611786588910035
1738772410108084700,0.722084716796875,0.01919540659636259,-0.02085807911157608,-0.008552886974209105
1738772410118076000,0.732075927734375,0.006761749219894409,-0.0180512049973011,0.008321129753169952
1738772410128066800,0.74206689453125,-0.027777064719796178,-0.021609774261713028,0.02908516077683307
1738772410138058800,0.752058837890625,-0.01784808364063501,-0.010960369953513144,-0.0009348554267635335
1738772410148050000,0.7620498046875,0.040219782185554505,-0.014891864183545113,-0.02141151630983222
1738772410158040800,0.772040771484375,-0.00009060089290142059,-0.019705401945114134,0.00020741279764915815
1738772410168031700,0.78203173828125,-0.03434709075987339,-0.013383797708153724,0.026871969106234607
1738772410178023000,0.79202294921875,0.004285129973292351,-0.01903729342520237,0.00823209576709196
1738772410188014800,0.802014892578125,0.010876783323287963,-0.02498597269654274,-0.011598277414694894
1738772410198005800,0.812005859375,-0.02295855852216482,-0.008970072919130325,-0.016229019654996228
1738772410207997000,0.821996826171875,0.00022328736186027524,-0.009305003961920738,0.0006072246285504661
1738772410217987800,0.83198779296875,0.008215455159544945,-0.02069382846057415,0.018792135583184426
1738772410227978800,0.841978759765625,-0.012849252440035342,-0.007196048983931541,0.014464496483793481
1738772410237971000,0.851970947265625,0.0025277649119496344,-0.014368717092275619,-0.0011011513335572088
1738772410247961900,0.8619619140625,0.01640373005121946,-0.026478841602802276,0.00292653784652357
1738772410257952800,0.871952880859375,-0.011040449452400207,-0.025864509096741675,-0.004715340938212466
1738772410267944000,0.88194384765625,0.007445347569882869,-0.010323825615644454,-0.012178663127025357
1738772410277934300,0.891934326171875,0.002239303359389305,-0.008386720073223114,-0.0033655531724070893
1738772410287926500,0.901926513671875,0.0033960721790790554,-0.006580547434091567,0.003375737210526131
1738772410297917400,0.91191748046875,0.002958265283703804,-0.020649404796957968,0.0022300897189386887
1738772410307908400,0.921908447265625,-0.011852642618119715,-0.01601122360229492,0.010988463536836206
1738772410317899500,0.9318994140625,-0.011663257525861262,-0.018116671448946,0.007563329089232138
1738772410327891500,0.941891357421875,-0.0068634560286998745,-0.019915829825401306,-0.011352036152221261
1738772410337882600,0.951882568359375,0.001665302863717079,-0.013480828341841698,-0.00041227972847409543
1738772410347873500,0.96187353515625,-0.008064648512005805,-0.018268062618374825,-0.017897717768908476
1738772410357864400,0.971864501953125,0.0026180735439062116,-0.016488193464279172,0.0035766483437968417
1738772410367855400,0.98185546875,-0.01398527073264122,-0.018435235878825187,-0.010184245898306835
1738772410377847600,0.99184765625,-0.01926642600595951,-0.015130933636426924,0.005631665765264187
1738772410387838500,1.00183837890625,0.0030880291432142256,-0.01679331389069557,0.009403976532589876
1738772410397829400,1.011829345703125,0.02616583013087511,-0.007674772411584854,0.016276282588025787
1738772410407820500,1.021820556640625,-0.062163026185333724,-0.0020867431461811066,-0.04842293498595245
1738772410417811500,1.0318115234375,0.032036767990887165,-0.01606324605047703,-0.024243412984220777
1738772410427803400,1.041803466796875,0.016665888118743897,-0.019215572601556777,0.012286522257048635
1738772410437794600,1.051794677734375,-0.0811740161255002,-0.016489362508058547,0.016569309576204977
1738772410447785500,1.061785400390625,0.030313012938201427,-0.018287351840734482,0.006691059174682596
1738772410457776400,1.0717763671875,0.016937106275558472,-0.00783610045313835,-0.02596618622279493
1738772410467767600,1.081767578125,-0.0009153612792491912,-0.010068389549851417,0.0023882479850493837
1738772410477759500,1.091759521484375,-0.03316401845514774,-0.01393909350335598,0.004699732377126929
1738772410487750400,1.10175048828125,-0.01231909108608961,-0.014400865796208381,0.002394831847818568
1738772410497741600,1.111741455078125,0.021308745488524437,-0.014539397484064102,0.00849078551918501
1738772410507732500,1.121732421875,0.0077919690504670135,-0.01755845304429531,-0.022432561886683106
1738772410517723400,1.131723388671875,-0.003209609696269035,-0.02296469600200653,0.01259835098546464
1738772410527715300,1.14171533203125,-0.03248568080216646,-0.03116904524564743,0.00874248041655519
1738772410537706500,1.15170654296875,0.004120587061345577,-0.01559212140738964,0.005477024905290454
1738772410547697400,1.161697509765625,0.01620908426195383,-0.015882628786563872,0.00015810004225058947
1738772410557688600,1.1716884765625,-0.015198153653740882,-0.010649988830089569,0.006701187272230163
1738772410567679500,1.181679443359375,-0.021554536943137644,-0.02110591639280319,0.003773807463023695
1738772410577671400,1.19167138671875,-0.0015106968238949774,-0.008833879318833351,0.014561390120163558
1738772410587662300,1.201662353515625,-0.009612170214951038,-0.016010639080405235,0.0012010777480521938
1738772410597653500,1.211653564453125,-0.001124035593867302,-0.018243512699007987,0.007508970836779917
1738772410607644400,1.22164453125,0.013569675669074058,-0.015108721804618835,0.01082007785012247
1738772410617635600,1.231635498046875,-0.021835399711132047,-0.012242226457595824,-0.005779812952369684
1738772410627627300,1.241627197265625,-0.02035042185038328,-0.014034955093264578,-0.007591474617371568
1738772410637618200,1.2516181640625,0.005736790086328983,-0.023774843341112135,-0.006676073951393482
1738772410647609600,1.261609619140625,-0.0016460136413574218,-0.008987024053931236,-0.0068032514157064725
1738772410657600500,1.2716005859375,-0.0038917467415332794,-0.00419803621172905,0.01138571922611445
1738772410667591400,1.28159130859375,-0.005294307015836238,-0.011105915904045104,0.0016887596586515428
1738772410677583400,1.291583251953125,0.0009369885891675948,-0.023362170886993407,-0.0005454000222729519
1738772410687574300,1.30157421875,-0.018923019395768643,-0.01215045652091503,-0.002895219688830548
1738772410697565400,1.3115654296875,0.003582242400944233,-0.018151742762327193,-0.006638501295316382
1738772410707556600,1.321556640625,-0.004031739734113216,-0.019353519767522812,0.0010538952503935434
1738772410717547500,1.331547607421875,-0.011105331382155418,-0.013955460116267204,-0.009628577927057631
1738772410727539200,1.341539306640625,-0.0028527590826153753,-0.012315876215696334,0.002225335341185564
1738772410737530400,1.3515302734375,-0.0025622517034411428,-0.009620645782351493,-0.0014134332947665824
1738772410747521300,1.361521240234375,-0.012147826172411441,-0.027874095353484153,-0.005854363467835355
1738772410757512400,1.371512451171875,-0.0010749357551336288,-0.01440612649321556,0.0016960079584125195
1738772410767503600,1.381503662109375,-0.005540390731394291,-0.015609072542190551,0.002907351372152334
1738772410777495300,1.391495361328125,-0.008707622590661048,-0.02787292630970478,-0.003153766735384124
1738772410787486200,1.401486328125,-0.006384732601046562,-0.017678280031681058,-0.019253655572643035
1738772410797477400,1.411477294921875,0.010922083769738673,-0.006931260567903518,0.014974528365163131
1738772410807468300,1.42146826171875,-0.002234627184271812,-0.020700842723250387,0.008956780754361534
1738772410817459500,1.43145947265625,-0.0011959317862987517,-0.017256255227327346,0.001997834170155693
1738772410827451400,1.441451416015625,0.013449848681688309,0.004296235889196396,0.005357779014861444
1738772410837442300,1.4514423828125,-0.01187514671087265,-0.01888824034333229,-0.0014202003914484521
1738772410847433200,1.46143310546875,-0.0004652794241905212,0.0029489129334688184,0.0027621096698305335
1738772410857424400,1.47142431640625,0.0019271686702966688,-0.0037841947138309477,-0.003623341025490663
1738772410867415600,1.48141552734375,-0.0032487726628780363,-0.015770985105633736,0.006170038966773427
1738772410877407200,1.4914072265625,-0.005560848997533321,-0.016391747352480886,0.00033345603833440687
1738772410887398400,1.5013984375,-0.007384849554300308,-0.0175806648761034,-0.003280779232093482
1738772410897389300,1.511389404296875,0.0077747256547212595,-0.012205986100435256,0.0030894670442299685
1738772410907380200,1.521380126953125,-0.011016484054923057,-0.01042728599011898,-0.006929763301383354
1738772410917371400,1.531371337890625,-0.003972410762310028,-0.002499415600299835,-0.005502509260529768
1738772410927363300,1.54136328125,-0.022989830443263054,-0.014766191977262496,-0.0011261327944754158
1738772410937354200,1.551354248046875,-0.006031681379675865,-0.015637714114785192,0.00007846978040179237
1738772410947345400,1.561345458984375,-0.011123451560735702,-0.012344517788290977,0.009467972546356031
1738772410957336300,1.57133642578125,-0.009530337150394915,-0.02074994256198406,-0.009597219240991398
1738772410967327200,1.5813271484375,-0.003682487905025482,-0.011364859101176262,-0.0030530788441305045
1738772410977318400,1.591318359375,-0.01139846910983324,-0.01407587162554264,0.0034513785671355436
1738772410987310300,1.601310302734375,-0.0064507835745811455,-0.028593641799688336,0.008693707088095835
1738772410997301200,1.61130126953125,0.008543079678714274,-0.01064472813308239,0.004550230629040743
1738772411007292400,1.62129248046875,-0.026734569929540156,-0.016490531551837922,-0.007931408345553791
1738772411017283300,1.631283447265625,-0.013837678955495357,-0.004976034846901893,-0.003014235537929926
1738772411027274500,1.6412744140625,-0.005311842672526836,-0.010212181934714317,-0.011983022965560667
1738772411037266400,1.651266357421875,-0.0024368717581033706,-0.0030377602607011794,0.006562129286344861
1738772411047257300,1.66125732421875,-0.012452946598827837,-0.013664368215203284,-0.007300650431899702
1738772411057248300,1.671248291015625,0.0039472763210535045,-0.0006698620855808258,0.010141726497409399
1738772411067239400,1.681239501953125,-0.010062252070009707,-0.01355389357805252,0.006722520608737249
1738772411077230300,1.691230224609375,-0.007544131769239902,-0.012798691296577453,0.008504874551686225
1738772411087222300,1.70122216796875,-0.0015945757150650024,-0.016419804403185842,-0.009278380245654262
1738772411097213400,1.71121337890625,0.008381167115271091,-0.020297522619366643,-0.01011222640828928
1738772411107204400,1.721204345703125,-0.014292144724726676,-0.021063830816745756,0.008724324276178958
1738772411117195300,1.7311953125,-0.0003226560831069946,-0.025118074643611907,0.014131732281914446
1738772411127186200,1.741186279296875,0.0068108490586280815,-0.01871054568886757,0.00973827510442934
1738772411137178400,1.751178466796875,-0.008183014194667338,-0.027231705796718596,0.004452398561043082
1738772411147169300,1.761169189453125,-0.0011485855132341385,-0.023790040910243986,0.001691275842723553
1738772411157160400,1.771160400390625,-0.004219955782592297,-0.011838321831822395,-0.015163952273328321
1738772411167151400,1.7811513671875,-0.012316752998530864,-0.0166220489770174,-0.00023257578001357614
1738772411177142300,1.791142333984375,-0.02002981159389019,-0.013907529321312903,0.0025109530577552505
1738772411187134500,1.801134521484375,0.027226152838766574,-0.011056231543421745,-0.0012952862369915237
1738772411197125400,1.81112548828125,-0.0024658055916428564,-0.017773557099699973,0.009032889043496107
1738772411207116300,1.8211162109375,-0.017903613220155237,-0.020609657308459282,-0.002974482341209659
1738772411217107200,1.831107177734375,0.008325929796695709,-0.020022212809324265,-0.0015980092103447532
1738772411227098400,1.841098388671875,-0.00932926162034273,-0.01852700581550598,0.008507955278872395
1738772411237090300,1.85109033203125,-0.006511281590163708,-0.011786299383640288,0.003757726832013577
1738772411247081500,1.86108154296875,0.0000903086319565773,-0.011042787539958953,-0.007774080625682836
1738772411257072400,1.871072265625,-0.009469839134812355,-0.022719196808338164,-0.004513466827961383
1738772411267063300,1.881063232421875,0.0013689502656459808,-0.020152561190724373,0.004274700481645413
1738772411277054200,1.89105419921875,-0.009709493109583854,-0.011771686336398125,0.0025468480675102908
1738772411287046400,1.90104638671875,-0.0017930208966135978,-0.022392449072003363,-0.0045946394512808185
1738772411297037300,1.911037353515625,-0.00023702362626790998,-0.009649287354946136,-0.002546137393923709
1738772411307028200,1.9210283203125,-0.012195172445476054,-0.01638648665547371,-0.0008967638933449052
1738772411317019400,1.931019287109375,-0.005867722989618778,-0.028967151287198064,-0.003491022736823652
1738772411327010300,1.94101025390625,0.003996960681676864,-0.012204817056655883,-0.006075018768725567
1738772411337002500,1.95100244140625,-0.0072302435144782065,-0.009659808748960495,0.0017468094179988838
1738772411346993400,1.960993408203125,-0.011403145284950733,-0.02388005728125572,0.00024357609381841028
1738772411356984300,1.970984375,-0.007426935130357742,-0.01907470282614231,-0.0027345577967353165
1738772411366975200,1.980975341796875,-0.007784954787790775,-0.01935878046452999,0.011735360355913872
1738772411376966400,1.99096630859375,-0.003739771050214767,-0.016815525722503662,-0.009308262785620173
1738772411386957300,2.000957275390625,0.0009665069445967673,-0.006957564052939414,0.0006056268973305123
1738772411396949200,2.01094921875,-0.004615092580020428,-0.010686813709139823,0.007666629633502452
1738772411406940400,2.0209404296875,-0.001885375355184078,-0.021769348737597463,-0.005362059610223514
1738772411416931300,2.030931396484375,-0.008906067772209644,-0.012943652725219726,-0.006677156801027013
1738772411426922200,2.040922119140625,0.004442074100673199,-0.012951836031675337,0.007898438228535814
1738772411436913400,2.050913330078125,-0.015153145468235015,-0.0056219315350055695,0.00964150134071242
1738772411446905300,2.0609052734375,-0.010127718521654606,-0.030894319957494733,-0.0034824335758137748
1738772411456896300,2.070896240234375,-0.013833002780377864,-0.005425532180070877,-0.007395874413457931
1738772411466887400,2.080887451171875,0.012245149067044258,-0.01845510962307453,0.0009562007505359361
1738772411476878300,2.09087841796875,-0.014986264468729495,-0.020251345390081405,0.0016461083978356328
1738772411486869200,2.100869140625,-0.0010728899285197258,-0.017407646396756172,0.0049677613505453334
1738772411496861400,2.110861328125,0.013706746052205562,-0.009168225839734078,0.004882172276190249
1738772411506852400,2.120852294921875,-0.003277414235472679,-0.0012175590962171553,-0.012006535130244446
1738772411516843300,2.13084326171875,-0.017778233274817465,-0.011247370201349258,-0.002719151877515833
1738772411526834400,2.14083447265625,0.004576806396245956,-0.02143792482614517,0.011341759070090484
1738772411536825300,2.150825439453125,-0.010504442879557608,-0.020398644906282425,0.007071347746139508
1738772411546817300,2.1608173828125,-0.008910451686382293,-0.02696925546824932,0.010526832807878963
1738772411556808400,2.170808349609375,0.006264905613660812,-0.012021861705183982,0.0092168450462108
1738772411566799400,2.18079931640625,0.0014306173250079155,-0.012798106774687767,-0.00968388146100333
1738772411576790300,2.190790283203125,-0.021136603792011738,-0.011119944429397583,0.014531332908617332
1738772411586781400,2.200781494140625,-0.010736205808818339,-0.015478724160790443,0.010150874493311857
1738772411596773400,2.2107734375,0.0017287234887480734,-0.010852233403921127,-0.0019481937628384911
1738772411606764300,2.220764404296875,0.003226268570125103,-0.011451368340849876,-0.003390118503972189
1738772411616755500,2.23075537109375,-0.004699848254024982,-0.021777532044053076,-0.0028447350355418166
1738772411626746400,2.240746337890625,-0.0020636545315384862,-0.01472936709821224,-0.01165785640660324
1738772411636737300,2.2507373046875,0.013193243572115897,-0.022508184406161307,0.007064849506694009
1738772411646728400,2.260728515625,-0.010615794299542904,-0.007989829710125922,0.007175025603856192
1738772411656720400,2.270720458984375,-0.010667816747725009,-0.018151158240437507,-0.00031501562852354254
1738772411666711300,2.280711181640625,0.014505202953517437,-0.016364274823665616,-0.001819064657567651
1738772411676702500,2.290702392578125,-0.002172375603020191,-0.01993745713531971,-0.006218784324947046
1738772411686693400,2.300693359375,-0.0273883576631546,-0.024705986711382865,-0.0012346700612222775
1738772411696684300,2.310684326171875,-0.004446750275790691,-0.011810264781117439,-0.0003182105201412923
1738772411706676500,2.320676513671875,0.003739771050214767,-0.014342413607239722,-0.00011692721082363278
1738772411716667400,2.33066748046875,0.007126783140003681,-0.007594108390808105,-0.018082190365676067
1738772411726658300,2.340658203125,-0.00977495956122875,-0.010589198553562164,-0.005818588330733473
1738772411736649500,2.3506494140625,-0.002778232541680336,-0.018211363995075225,0.011507391110714525
1738772411746640400,2.360640380859375,-0.015961246980726717,-0.016561258700489998,-0.0024396122752834344
1738772411756632300,2.37063232421875,-0.003933247795701027,-0.007897475251555442,-0.005165840635090717
1738772411766623500,2.38062353515625,-0.010604103861749172,-0.011954057165980338,-0.0008190396066813264
1738772411776614400,2.390614501953125,-0.0030319150418043135,-0.02256196042001247,0.0031642681506229564
1738772411786605300,2.400605224609375,0.00850537801682949,-0.012390695017576217,-0.007602512034616665
1738772411796596500,2.410596435546875,0.008255494908988475,-0.020445406657457352,0.002029949766403297
1738772411806588400,2.42058837890625,-0.001808218465745449,-0.009960837522149085,0.0021727118172711925
1738772411816579300,2.430579345703125,-0.003915419878065586,-0.022227613899111747,-0.012084204617980867
1738772411826570500,2.440570556640625,-0.006950257529318332,-0.008489011403918266,-0.0007174395416193874
1738772411836561400,2.4505615234375,-0.017830255722999573,-0.011343816313147544,-0.003320275558842695
1738772411846552300,2.46055224609375,0.01120411558151245,-0.020023966374993322,0.0055860096966091075
1738772411856544500,2.47054443359375,-0.000618131898343563,-0.026757658544182775,-0.007603665095375618
1738772411866535400,2.480535400390625,0.01146685817092657,-0.008941431346535682,-0.00021276140126865356
1738772411876526300,2.4905263671875,0.001381225225329399,-0.017155132940411568,0.003458274669625098
1738772411886517500,2.500517578125,-0.011985913608968257,-0.011456044515967368,0.007581573707042844
1738772411896508400,2.51050830078125,-0.012800444862246513,-0.011139818173646926,-0.006330486229737289
1738772411906499300,2.520499267578125,-0.0038610593423247337,0.003385550785064697,-0.012170419313421006
1738772411916491500,2.530491455078125,-0.013448387376964091,-0.0039437691897153855,-0.0007703695970325497
1738772411926482400,2.540482421875,-0.00957768342345953,-0.01815408084988594,0.004447890778462169
1738772411936473300,2.550473388671875,0.002142272725701332,-0.016332126119732854,0.014920247744524384
1738772411946464300,2.56046435546875,-0.007082651737332343,-0.02393792494833469,-0.001655605166076566
1738772411956455400,2.570455322265625,0.0008639233529567718,-0.0076315177917480465,-0.008536553468983037
1738772411966447400,2.580447265625,-0.016677286295592782,-0.012710428491234778,-0.016059766318602488
1738772411976438500,2.5904384765625,-0.005518471160531044,-0.01916705728471279,-0.022202657554368486
1738772411986429400,2.600429443359375,0.05529343267679214,-0.03706862467825413,0.049200143603258764
1738772411996420400,2.61042041015625,-0.0941425110310316,-0.00684708941578865,0.10487687194263562
1738772412006411300,2.620411376953125,-0.12114742233455181,0.021870471024513245,-0.09089942832342349
1738772412016403500,2.630403564453125,0.25393998201638457,-0.039404374149441715,-0.07490258030635304
1738772412026394400,2.640394287109375,-0.002119476372003555,-0.02720481778979301,0.03377551511672791
1738772412036385300,2.65038525390625,-0.29342911183983084,0.0013040683358907699,0.06076318759107962
1738772412046376400,2.66037646484375,0.04498363558650016,-0.012106032857298851,0.009416935908040613
1738772412056367400,2.670367431640625,0.2149719534575939,-0.029362288084626195,-0.052681587944272905
1738772412066359600,2.680359619140625,-0.07372165429294109,-0.015434885019063949,-0.021442655800189822
1738772412076350500,2.6903505859375,-0.17998305766284464,-0.012618074032664298,-0.0032026136999018487
1738772412086341400,2.70034130859375,0.14535978031009436,-0.011657120046019553,0.04184050612202845
1738772412096332300,2.710332275390625,0.03906768954098224,-0.008840309059619904,0.01298272550192778
1738772412106323500,2.720323486328125,-0.13753157090246676,-0.02592296128571033,-0.036897485345450697
1738772412116314400,2.730314453125,0.07757657615542411,-0.016706220129132268,-0.008863210444594732
1738772412126306300,2.740306396484375,0.05216448700129986,-0.0025368250012397764,0.04626172923091799
1738772412136297500,2.75029736328125,-0.13513707698136568,-0.0024304420173168182,0.030843041861406524
1738772412146288400,2.760288330078125,0.04352145407944918,-0.017990414720773697,-0.05181098825535737
1738772412156279300,2.770279296875,0.08548135793060063,-0.010453589475154876,-0.023741233332455158
1738772412166270500,2.7802705078125,-0.10691402205973863,-0.0018564415216445922,0.04632634173261467
1738772412176262400,2.790262451171875,-0.003536649693548679,-0.019507249024510384,0.008347269412246533
1738772412186253300,2.80025341796875,0.045505905894935125,-0.015645897421240805,-0.029920205095177514
1738772412196244500,2.810244384765625,-0.03821019592881202,-0.008445756784081458,0.013115922285895793
1738772412206235400,2.8202353515625,-0.008324468491971493,-0.0013619360029697416,0.019770617235009558
1738772412216226300,2.830226318359375,0.02930675850510597,-0.014737550404667853,-0.07606629032348282
1738772412226218500,2.840218505859375,0.038844109918177126,-0.01641337466239929,0.07742925837291405
1738772412236209400,2.85020947265625,-0.18686200352162122,0.0033610008656978605,0.0028164684931049123
1738772412246200300,2.860200439453125,0.10696692129075526,-0.011964578559994696,-0.01444340346341487
1738772412256191500,2.87019140625,0.06422229680269956,-0.0162082074791193,-0.050589995093038305
1738772412266182400,2.880182373046875,-0.08812982661277055,-0.020951602613925934,0.027283328669390174
1738772412276174600,2.890174560546875,-0.04589870460480451,-0.011265490379929542,0.03271694140792824
1738772412286165800,2.900165771484375,0.04180120615810155,-0.011457798081636428,-0.044282455914048474
1738772412296156700,2.91015673828125,0.07397299870550632,-0.029044308176636693,0.026721715014544314
1738772412306147600,2.920147705078125,-0.1357771284505725,-0.005444236880540848,-0.009789903685322496
1738772412316138500,2.930138427734375,0.026796529249846934,-0.016645429852604865,-0.007498303312293137
1738772412326129700,2.940129638671875,0.12647124770581722,-0.01717676025032997,0.010637380510265939
1738772412336121600,2.95012158203125,-0.11753946097046136,-0.008731003466248511,0.022847513062856158
1738772412346112800,2.96011279296875,-0.07657967407256365,-0.013280337333679199,0.0231097510454827
1738772412356103700,2.970103759765625,0.1173351705700159,-0.013653846821188927,-0.024893065682123412
1738772412366094600,2.980094482421875,0.013276245680451392,-0.004549333867430686,0.032320103560469576
1738772412376085500,2.99008544921875,-0.1370923027023673,-0.009823474878072738,-0.024989543759962544
1738772412386077700,3.00007763671875,0.10178834960907697,-0.02484218031167984,0.009040036878557292
1738772412396068600,3.010068603515625,-0.016279811410605905,-0.007632102313637733,0.00568289134571387
1738772412406059500,3.0200595703125,-0.06449643756896258,-0.008781272348761558,0.02920753134775441
1738772412416050700,3.03005078125,0.04145224658995866,-0.021391747596859932,-0.022774657889199443
1738772412426041600,3.04004150390625,0.02563596103787422,-0.015906009662151336,0.011704605599690693
1738772412436033800,3.05003369140625,-0.0953629927366972,-0.005966799449920654,0.011297261199593777
1738772412446024700,3.060024658203125,0.020045593684911725,-0.015663433077931402,-0.0020523151493718615
1738772412456015600,3.070015625,0.05688157865107059,-0.007628595182299613,-0.029583956594846677
1738772412466006500,3.080006591796875,-0.045833238153159615,-0.011613280904293059,0.005108634550892748
1738772412475997700,3.089997802734375,-0.04411035988330841,-0.019186346507072446,0.01269736351368483
1738772412485988600,3.099988525390625,0.0670592737942934,-0.008747954601049423,-0.000211666564369807
1738772412495980500,3.10998046875,-0.0308346987247467,0.0006873977422714233,0.004418651555068208
1738772412505971700,3.1199716796875,-0.0630114597082138,-0.011952303600311279,0.01252603124299203
1738772412515962600,3.129962646484375,0.05370236409306526,-0.016590484794974325,-0.013812275086180307
1738772412525953500,3.13995361328125,0.012354746921360491,-0.00015665186643600462,-0.011033007073105545
1738772412535944700,3.14994482421875,-0.04260667732208967,-0.015258359408378601,0.0038150756217510203
1738772412545936600,3.1599365234375,-0.01117751983553171,-0.016606266885995865,0.008380946777918143
1738772412555927600,3.169927490234375,0.00815378810018301,-0.006588146218657494,-0.008235536112237605
1738772412565918700,3.179918701171875,0.0057709846168756485,-0.02050736597776413,-0.0009925027564895571
1738772412575909600,3.18990966796875,-0.001842120735347271,-0.015723638832569123,-0.0037267100684199245
1738772412585900500,3.199900634765625,-0.006603343787789344,-0.011092471900582313,-0.007725063556162058
1738772412595892700,3.209892822265625,-0.005214227516949176,-0.017049334478378295,0.0210600679570809
1738772412605883600,3.219883544921875,-0.001093055933713913,-0.025410920110344886,0.014036304516845847
1738772412615874600,3.22987451171875,-0.011165537136793136,-0.018964228188991544,0.012932686089922207
1738772412625865700,3.23986572265625,-0.007376666247844696,-0.006706219640374184,-0.010870692650863201
1738772412635856600,3.249856689453125,-0.004059212262928486,-0.013896423405408859,0.010235868770978413
1738772412645848600,3.2598486328125,-0.007605798828601837,-0.01506488266289234,0.004516105738797341
1738772412655839700,3.26983984375,-0.01868131959438324,-0.018656185153126715,0.006932200711997575
1738772412665830700,3.27983056640625,-0.014418693713843822,-0.011492869395017624,0.009035490850891802
1738772412675821600,3.289821533203125,-0.01903466307669878,-0.018083353701233863,0.0006920425221702317
1738772412685812700,3.299812744140625,0.01224982524216175,-0.017037644040584565,-0.004153393923226395
1738772412695803600,3.3098037109375,-0.016650982810556887,-0.010897826111316681,0.012642562303238082
1738772412705795600,3.319795654296875,-0.02894727754294872,-0.0013140052080154417,0.004038971480031614
1738772412715786800,3.329786865234375,0.011188625751435756,-0.008804653224349021,-0.006859866698971017
1738772412725777700,3.339777587890625,-0.0077484221696853635,-0.02154080067873001,-0.0012959969105781055
1738772412735768600,3.3497685546875,-0.00804740511626005,-0.013760229805111884,0.010787600352626759
1738772412745759700,3.359759765625,-0.011059446413815021,-0.012707505881786346,-0.004935445966542465
1738772412755751700,3.369751708984375,0.012964695513248442,-0.004160626810789108,0.00746466305006179
1738772412765742600,3.37974267578125,-0.008969488397240637,-0.0024912322938442227,0.0025218814479681896
1738772412775733800,3.389733642578125,-0.010154022006690501,-0.015662848556041716,-0.0023150565971416653
1738772412785724700,3.399724609375,0.009341828840970992,-0.014626491245627402,-0.008704515605655615
1738772412795715600,3.409715576171875,-0.02321867076307535,-0.012957096728682517,0.012349890366441104
1738772412805707800,3.419707763671875,-0.0100756960734725,-0.011454875472187995,0.01123433490655152
1738772412815698700,3.42969873046875,-0.008458616265654563,-0.016833645901083945,0.004400142075776239
1738772412825689600,3.439689697265625,-0.0067924366191029545,-0.022974048352241514,0.0037045090822328346
1738772412835680800,3.4496806640625,0.005483984369039535,-0.028063480445742604,-0.0009986864729260559
1738772412845671700,3.459671630859375,-0.005128010538220405,-0.020135610055923462,0.0041015609880007105
1738772412855662600,3.46966259765625,-0.008138882791996002,-0.013846154522895813,-0.008074537435069215
1738772412865654800,3.47965478515625,-0.0076177815273404115,-0.013676643174886703,0.01236682095164433
1738772412875645700,3.489645751953125,-0.011060030935704707,-0.018015549162030218,-0.0072669142715458285
1738772412885636600,3.49963671875,0.0003375613912940025,-0.018470891714096067,-0.004908487177669303
1738772412895627800,3.509627685546875,0.003750292444229126,-0.023441081342101096,-0.005662191621802049
1738772412905618700,3.51961865234375,-0.01133358718007803,-0.01626607514619827,0.01699782006191672
1738772412915610600,3.529610595703125,-0.019621815314888953,-0.01056406411230564,0.00192991261240968
1738772412925601800,3.539601806640625,0.004660685287415981,-0.01371814422905445,-0.004778646257167565
1738772412935592700,3.5495927734375,-0.011937690553069114,-0.018170447462797164,-0.003465353435205179
1738772412945583600,3.55958349609375,0.014830197124183177,-0.011471826606988906,-0.01616214669755427
1738772412955574500,3.569574462890625,-0.0018175708159804344,-0.012658990564942359,0.008117365650754072
1738772412965566700,3.579566650390625,-0.03726970020830631,-0.010078326421976088,0.00040020798147888853
1738772412975557600,3.5895576171875,0.0034320202752947805,-0.01187514671087265,-0.00008954144697636365
1738772412985548800,3.599548828125,-0.010034487280249594,-0.01322188514471054,0.005056903222011169
1738772412995539700,3.609539794921875,-0.02552314831316471,-0.0211316353559494,-0.010452397598489187
1738772413005530600,3.619530517578125,0.017827625374495983,-0.015324410381913183,0.004264309805905213
1738772413015521500,3.629521484375,-0.003251403011381626,-0.022661329141259193,-0.007563825704509509
1738772413025513700,3.639513671875,-0.018509762419760226,-0.019072364738583564,-0.00003007547785528004
1738772413035504600,3.649504638671875,0.007095511218905448,-0.019824059888720512,0.00736593764538702
1738772413045495600,3.65949560546875,0.00476268435716629,-0.01490238557755947,0.0018489169439591933
1738772413055486700,3.66948681640625,-0.02077361569851637,-0.013868950876593589,0.0016848386812489478
1738772413065477600,3.6794775390625,-0.008129822702705859,-0.010147884526848793,0.002838134048107895
1738772413075469800,3.6894697265625,-0.016249124011397362,-0.013728081101179122,-0.00004409429923107382
1738772413085460700,3.699460693359375,-0.0018257541224360465,-0.006222235515713691,-0.001256208893706207
1738772413095451600,3.70945166015625,0.025437515856325626,-0.01595627854466438,-0.007287007211503805
1738772413105442600,3.719442626953125,-0.023014088101685044,-0.023446342039108274,-0.011096016706182854
1738772413115433700,3.729433837890625,-0.006596037264168262,-0.017300094369053838,0.010017493904609
1738772413125425700,3.73942578125,0.0034428339302539825,-0.01161678803563118,0.0050621125450241375
1738772413135416600,3.74941650390625,-0.011795359472930431,-0.00982815105319023,0.001317835424694931
1738772413145407700,3.75940771484375,0.0024471008911728857,-0.011032266145944594,0.006381517159831128
1738772413155398700,3.769398681640625,-0.017502923464775083,-0.013863105657696722,0.005389271844134782
1738772413165389600,3.7793896484375,-0.008965396744012833,-0.017756021443009376,-0.0012546162998856743
1738772413175380700,3.789380615234375,0.00582972906678915,-0.006788637226819992,-0.0007028681643947493
1738772413185372700,3.79937255859375,-0.019532383465766905,-0.010060206243395806,-0.008557892513711703
1738772413195363600,3.809363525390625,0.012078560328483581,-0.02623158884346485,0.008245849156164331
1738772413205354800,3.819354736328125,-0.0029296237111091613,-0.022029460978507994,0.003534928093920462
1738772413215345700,3.829345703125,-0.014865268437564373,-0.017211831563711165,0.004887654452194692
1738772413225336600,3.839336669921875,-0.01516074425280094,-0.006399345648288726,0.013620000492158578
1738772413235328800,3.849328857421875,0.002286357371509075,-0.011959317862987517,-0.011962714254827004
1738772413245319700,3.859319580078125,0.006379471904039383,-0.012571896803379059,0.0006490156603744254
1738772413255310600,3.869310546875,-0.02023585556000471,-0.008048281899094581,-0.0019798253018961987
1738772413265301800,3.8793017578125,-0.0017974048107862472,-0.0011737199544906616,0.0050782924990897295
1738772413275293700,3.889293701171875,0.021419512386620043,-0.015395722052454947,0.01371401033498696
1738772413285285600,3.89928564453125,-0.03393354152292013,-0.0079167644739151,0.010249210026452783
1738772413295276500,3.909276611328125,-0.011918985852599144,-0.011214052453637123,0.008021453828495577
1738772413305267500,3.919267333984375,0.0016349077254533767,-0.02096270852982998,-0.008852242096830741
1738772413315258600,3.929258544921875,-0.012682371440529822,-0.014391513445973395,-0.0009558525490196188
1738772413325249800,3.939249755859375,-0.017007541163265704,-0.018135960671305656,-0.01994874571431428
1738772413336489700,3.95048974609375,-0.0021478256836533543,-0.015154899033904075,0.002659107665548799
1738772413346481700,3.960481689453125,-0.01706687013506889,-0.015016951867938041,0.008320653116668108
1738772413356472800,3.970472900390625,-0.00423982952684164,-0.007973463097214698,0.004556192866479978
1738772413366463700,3.980463623046875,0.0011222820281982422,-0.02188333050608635,-0.002197797738644294
1738772413376454700,3.99045458984375,0.00911883374005556,-0.017560791131854055,0.010987436056951991
1738772413386445600,4.000445556640625,-0.011588146463036537,-0.013954875594377516,0.003868780282832449
1738772413396437800,4.010437744140625,-0.009165303230285644,-0.015458850416541098,0.0006746392962202662
1738772413406428700,4.0204287109375,0.017707213865220547,-0.0051566521108150475,0.00669167965836823
1738772413416419600,4.030419677734375,-0.012212123580276965,-0.01623217287659645,-0.010374495215312344
1738772413426410800,4.04041064453125,0.0006035188511013984,-0.014910568884015082,0.006995316517996252
1738772413436401700,4.050401611328125,-0.00019172317981719968,-0.009959668478369712,0.01237031438325066
1738772413446393900,4.060393798828125,-0.019227847561240196,-0.01713409015238285,0.007852778734947788
1738772413456384800,4.070384765625,-0.0044870822861790656,-0.023549217891693112,0.011115044491994195
1738772413466375700,4.080375732421875,-0.00568944381326437,-0.020256021565198897,-0.006043342134717386
1738772413476366600,4.09036669921875,-0.013756430412828922,-0.008138882791996002,0.008061155651221633
1738772413486357800,4.100357666015625,0.01241319911032915,-0.010977321088314056,-0.005231659854829195
1738772413496348700,4.1103486328125,-0.0041787469893693925,-0.011131634867191313,0.012155090455192839
1738772413506340600,4.120340576171875,-0.012342471961677074,-0.009652794486284255,0.00512157623085659
1738772413516331800,4.130331787109375,-0.014841303040087222,-0.014603110370039939,-0.005671473190089454
1738772413526322700,4.14032275390625,-0.011510989573597908,-0.022693477845191955,0.005313365055221947
1738772413536313600,4.150313720703125,0.0017237550526857375,-0.023009704187512397,0.010875438466283957
1738772413546304800,4.1603046875,-0.014517185652256012,-0.017491233026981353,-0.005827091297597508
1738772413556296700,4.170296630859375,-0.005009937116503715,-0.01676467231810093,0.007979275208426406
1738772413566287600,4.18028759765625,0.0077402388632297515,-0.0130319155305624,0.004733052978949854
1738772413576278800,4.19027880859375,-0.013931494718790053,-0.021717910811305044,0.013125676494929938
1738772413586269700,4.200269775390625,-0.004058627741038799,-0.010943418818712233,-0.003292324681059108
1738772413596260600,4.210260498046875,-0.014638181683421134,-0.0012286650121212004,0.0011833000627666478
1738772413606252500,4.22025244140625,-0.0024471008911728857,-0.011721417453885078,-0.007372616835456574
1738772413616243700,4.23024365234375,-0.003975041110813617,-0.024282792863249778,-0.003084660150838317
1738772413626234600,4.240234619140625,-0.0025309797823429105,-0.014881342789530754,0.0009236667416465934
1738772413636225800,4.250225830078125,-0.02010112326443195,-0.017597616010904312,-0.002842081283329753
1738772413646216700,4.260216796875,0.014314941078424452,-0.016849427992105485,-0.004925311589951161
1738772413656207600,4.27020751953125,0.003075169661641121,-0.01459960323870182,-0.0017276240852719638
1738772413666199800,4.28019970703125,-0.011367781710624695,-0.005751110872626304,0.001061094459448941
1738772413676190700,4.290190673828125,0.0034478023663163182,-0.022810382223129273,-0.0017610285979520995
1738772413686181600,4.300181640625,-0.004172609509527683,-0.014283376896381378,0.007822592517593875
1738772413696172800,4.3101728515625,-0.007236380994319915,-0.019241876086592672,-0.004455326878713094
1738772413706163700,4.320163818359375,0.0032537410989403725,-0.015954524978995323,-0.0058973332474153714
1738772413716154600,4.330154541015625,0.0008525251761078834,-0.008919804036617279,0.0005358473134605446
1738772413726146800,4.340146728515625,-0.010816285307705401,-0.013110825985670089,0.000743603175226599
1738772413736137700,4.3501376953125,-0.01634586238414049,-0.018948446097970008,-0.007898945689434184
1738772413746128600,4.360128662109375,-0.0264101602807641,-0.015645897421240805,-0.008072915158496471
1738772413756119800,4.370119873046875,0.008280629350244999,-0.022222937723994255,-0.00417367980107374
1738772413766110700,4.38011083984375,0.00818652132600546,-0.02582943778336048,0.006251138524856651
1738772413776102700,4.3901025390625,-0.0074503160059452055,-0.01312953068614006,-0.007196933187454123
1738772413786093800,4.40009375,0.007783785744011402,-0.005230886390805244,-0.0065369172132748645
1738772413796084700,4.410084716796875,-0.007926701346039771,-0.009570376899838447,0.004572311742574674
1738772413806075600,4.42007568359375,-0.002608428932726383,-0.015577508360147475,0.0044125100794713944
1738772413816066600,4.430066650390625,0.0062993924051523206,-0.022032383587956426,-0.005420893108393648
1738772413826058800,4.440058837890625,-0.012511983309686184,-0.029077041402459144,-0.004461221188315539
1738772413836049700,4.450049560546875,-0.01649754581451416,-0.006197101074457168,0.011170622020575683
1738772413846040800,4.460040771484375,0.0013435235634446144,-0.012490648260712623,0.0019944417740713105
1738772413856031700,4.47003173828125,-0.009297405177354811,-0.02026712748110294,0.006645900292127044
1738772413866022700,4.480022705078125,-0.009425707732141018,-0.0120429044932127,-0.003615273025110946
1738772413876013600,4.490013671875,0.005298398669064045,-0.00977495956122875,-0.0018661614813492633
1738772413886005800,4.500005859375,-0.024373101495206356,-0.013953122028708458,0.0041678425736870845
1738772413895996700,4.50999658203125,-0.006809095492959022,-0.017520459121465683,-0.0017184452649729792
1738772413905987600,4.519987548828125,0.006831015063822269,-0.010492752441763877,-0.003096760438941419
1738772413915978800,4.529978759765625,0.007589724476635456,-0.011693360403180121,-0.00185049755051441
1738772413925969700,4.5399697265625,-0.008935293866693972,-0.017251579052209854,0.013082798617717344
1738772413935961600,4.549961669921875,-0.010378186151385306,-0.01617898138463497,0.007020351065375143
1738772413945952800,4.559952880859375,-0.015501812775433062,-0.012128829210996627,-0.012049640194675885
1738772413955943700,4.569943603515625,0.01325841776281595,-0.023808745610713958,-0.008735698478497216
1738772413965934600,4.5799345703125,0.0017637948021292686,-0.024264672684669492,0.015365429662179667
1738772413975925800,4.58992578125,-0.026095102982223034,-0.005104045140743255,-0.0022582352470781187
1738772413985917700,4.599917724609375,0.0007671849802136421,-0.0024310265392065047,0.0014939352020504884
1738772413995908900,4.609908935546875,-0.008170154713094234,-0.016956980019807815,0.015858419077203142
1738772414005899800,4.619899658203125,-0.007307692664861679,-0.019491466933488844,0.008143036094016861
1738772414015890700,4.629890625,-0.013005904306471347,-0.016495207726955414,-0.013014373024005908
1738772414025881600,4.639881591796875,-0.004881342300772667,-0.004236030134558678,-0.00783761541514541
1738772414035873500,4.64987353515625,-0.022826748836040495,-0.022345687320828436,0.016654126899002586
1738772414045864700,4.65986474609375,-0.012940730115771293,-0.018757307440042496,-0.00305874767898058
1738772414055855600,4.669855712890625,0.008738602250814437,-0.02552490187883377,-0.008595651257812278
1738772414065846800,4.6798466796875,-0.024700433753430843,-0.02640460732281208,0.010097015139425639
1738772414075837700,4.689837646484375,-0.030893735435605047,-0.014417816931009292,-0.0009437716688698855
1738772414085829600,4.69982958984375,0.007080313649773597,-0.01759060174822807,0.0027861581219316574
1738772414095820500,4.709820556640625,-0.008617313958704471,-0.019390929168462752,0.0017210490702462265
1738772414105811700,4.719811767578125,-0.014420739540457724,-0.010719546934962272,0.009513703392713796
1738772414115802600,4.729802734375,-0.013192659050226211,-0.006238602128624916,0.011323976818227674
1738772414125793800,4.739793701171875,-0.027443010459840295,-0.012963526469469069,-0.003790441220704815
1738772414135784700,4.74978466796875,-0.015169512081146239,-0.013263970720767975,0.000032635044411290436
1738772414145776400,4.7597763671875,0.0061596916735172265,-0.018971242451667786,0.00004722811287792865
1738772414155767600,4.769767578125,-0.01541822614520788,-0.022405308553576468,0.000865652373273042
1738772414165758700,4.7797587890625,0.009133446787297725,-0.005798457145690918,0.008898653363200719
1738772414175749600,4.78974951171875,0.009155074097216128,-0.013734510841965674,0.00199031330281432
1738772414185740800,4.79974072265625,-0.03626023090481758,-0.02063712983727455,-0.0008902045759285101
1738772414195732500,4.809732421875,0.02826104884445667,-0.015407412490248679,0.006755173919457592
1738772414205723600,4.8197236328125,-0.014966098463535308,-0.018704115948081017,0.0010367708710677106
1738772414215714800,4.82971484375,-0.02071253316104412,-0.005709609818458557,0.0027137972802636794
1738772414225705700,4.839705810546875,0.013999299257993697,-0.01109480998814106,-0.008504211827160907
1738772414235696600,4.849696533203125,-0.030676001031696796,-0.021249124255776405,-0.011883238685782999
1738772414245688600,4.8596884765625,-0.001917231798171997,-0.01078150625526905,-0.013354920956830028
1738772414255679500,4.869679443359375,0.00023614684343338012,-0.011544891843199729,-0.0007640965469283401
1738772414265670700,4.879670654296875,-0.025509119787812232,-0.026057401320338246,0.006073616829505772
1738772414275659800,4.88965966796875,-0.0013040683358907699,-0.018865443989634512,0.006621815021996735
1738772414285651000,4.89965087890625,-0.0013023147702217101,-0.015274726021289825,0.01347352295986493
1738772414295643000,4.909642822265625,-0.011816110000014304,-0.023045944544672965,-0.0030794180055512695
1738772414305634000,4.919634033203125,-0.004152735765278339,-0.007192541852593421,0.00024389061682741157
1738772414315625000,4.929625,-0.011377426321804524,-0.012568974193930625,0.000699077334444155
1738772414325615900,4.939615966796875,-0.004232230742275715,-0.016598668101429938,0.010834713730250951
1738772414335606800,4.949606689453125,-0.0190469380363822,-0.012857728007435797,0.0009769027577363886
1738772414345599000,4.959598876953125,-0.016003040295839308,-0.007932546564936638,-0.0054018521936726755
1738772414355590000,4.96958984375,0.007046995902061462,-0.007674187889695167,-0.009849577433709055
1738772414365580800,4.979580810546875,-0.0042579497054219245,-0.011882160973548888,0.00187725341211044
1738772414375572000,4.989572021484375,-0.022228198421001433,-0.011729016238451004,-0.009386983156949281
1738772414385563000,4.99956298828125,0.014769699108600615,-0.019969021317362785,-0.0059912454796547535
1738772414395553800,5.0095537109375,0.0050958618342876435,-0.0163911628305912,0.00587340381173417
1738772414405546000,5.0195458984375,-0.008795008613169192,-0.01699731203019619,-0.003617571440529718
1738772414415537000,5.029536865234375,0.01956102503836155,-0.019559855994582175,-0.000876293069118401
1738772414425527800,5.03952783203125,-0.008261340127885342,-0.009388006070256232,0.004516773029899923
1738772414435519000,5.04951904296875,-0.008274784131348132,-0.006091887134313583,0.007690319323877338
1738772414445510000,5.059510009765625,0.004167641073465347,-0.009988894572854042,0.0012996247708026202
1738772414455501800,5.069501708984375,-0.013066110061109065,-0.01720423277914524,0.01299135176637792
1738772414465493000,5.079492919921875,0.00483370376676321,-0.020032149681448935,-0.0006761619643264566
1738772414475484000,5.08948388671875,-0.009996493357419967,-0.014939794978499411,0.0005262095521466108
1738772414485474800,5.099474853515625,-0.007086451129615306,-0.0031365444600582122,0.001430342188727809
1738772414495466000,5.109466064453125,-0.0025698504880070686,-0.006884498816728591,0.00032992036588839254
1738772414505458000,5.1194580078125,-0.0009653379008173942,-0.01585223364830017,0.0028573553426307625
1738772414515448800,5.12944873046875,-0.004091068705916404,-0.032465514796972274,0.0036427952154539523
1738772414525440000,5.13943994140625,0.012961188381910323,-0.012711597535014153,0.005803939321695361
1738772414535431000,5.149430908203125,-0.008660860839486122,-0.013928572109341621,0.0017411776865890714
1738772414545421800,5.159421875,-0.011113222427666186,-0.016906711137294767,0.004605825282286969
1738772414555413000,5.1694130859375,0.006073474694788456,0.002402384966611862,0.001722870849163155
1738772414565405000,5.179405029296875,-0.0003442833930253982,-0.009722352591156959,0.014037439311295747
1738772414575395800,5.189395751953125,0.0027560207098722457,-0.022430442994832992,-0.017357746265357125
1738772414585387000,5.199386962890625,0.009666238489747047,-0.024832243439555167,0.001050941816548584
1738772414595378000,5.2093779296875,-0.0012704583272337912,-0.020489245799183844,-0.0021311182899138655
1738772414605369900,5.219369873046875,-0.0016930676534771918,-0.010769815817475319,0.007297280297879479
1738772414615361000,5.229361083984375,-0.002284311544895172,-0.006880991685390472,-0.0016185770743380999
1738772414625352000,5.23935205078125,-0.006034603989124298,-0.0025397476106882094,0.0038913123458711196
1738772414635342800,5.2493427734375,-0.0038040684580802914,-0.008969488397240637,0.005900456215441227
1738772414645334000,5.259333984375,-0.016864917822182177,-0.01135316866338253,0.015071069233439628
1738772414655325000,5.269324951171875,0.007926409085094928,-0.00774900669157505,0.004398784089862602
1738772414665316900,5.27931689453125,-0.014562193837761878,-0.022701661151647567,0.00434152434838179
1738772414675308000,5.28930810546875,-0.02740881592929363,-0.01836801586151123,-0.0017686593485588672
1738772414685299000,5.299298828125,-0.0026785715594887733,-0.0034147768795490265,-0.0053022808305599025
1738772414695289900,5.309289794921875,-0.00750935271680355,-0.015712532916665075,-0.01587641367490869
1738772414705281000,5.319281005859375,0.003764613230526447,-0.014829320341348647,-0.004213499213164323
1738772414715273000,5.32927294921875,-0.016062953789532184,-0.006429156264662742,0.004158178554553887
1738772414725264000,5.339263916015625,-0.02040624369084835,-0.019446458747982977,-0.0009292710735928267
1738772414735255000,5.349255126953125,0.0027817396730184553,-0.01630231550335884,0.00340498499625246
1738772414745246000,5.359245849609375,-0.0175502697378397,-0.0094242464274168,-0.0026181009433697906
1738772414755236900,5.36923681640625,-0.0213733351573348,-0.025862755531072614,-0.004975014216883573
1738772414765229000,5.37922900390625,0.0026516835525631902,-0.012118307816982268,-0.002313155759355868
1738772414775220000,5.389219970703125,-0.002840191861987114,-0.02155658276975155,0.0077216591728123595
1738772414785211000,5.3992109375,-0.026364275312423704,-0.0058364510685205455,0.0024894718783092682
1738772414795202000,5.4092021484375,-0.0008873042285442352,-0.019463994404673574,-0.002394091491479776
1738772414805193000,5.41919287109375,-0.0074298577398061744,-0.015734160226583478,0.008021714694221737
1738772414815184000,5.429183837890625,-0.017051088044047355,-0.011532616883516311,-0.0012186841866903705
1738772414825176000,5.439176025390625,0.009728782331943511,-0.016169629034399984,-0.00018233658025274053
1738772414835167000,5.4491669921875,-0.007436287480592727,-0.010345452925562859,-0.005234927811683155
1738772414845158000,5.459157958984375,-0.011153262177109718,-0.023669044879078862,0.00016421126427303533
1738772414855148800,5.469148681640625,0.009956161347031593,-0.03040565965771675,0.004325709149675094
1738772414865140000,5.479139892578125,-0.0016126958936452864,-0.012885785058140755,0.003725183689969708
1738772414875132000,5.4891318359375,-0.001431201846897602,-0.006459551402926445,0.002381553953603725
1738772414885123000,5.499123046875,-0.003610591712594032,-0.014407880058884619,0.003709907918202225
1738772414895114000,5.509114013671875,-0.028363632436096665,-0.0139817636013031,0.012210868913173908
1738772414905105000,5.51910498046875,0.0003305471286177635,-0.012924363502860069,0.016701470888778568
1738772414915095800,5.529095703125,-0.011591653594374656,-0.02486906831860542,0.00032631619478343054
1738772414925088000,5.539087890625,-0.004795417582988739,-0.017852467554807662,0.0005611404432769632
1738772414935079000,5.549078857421875,-0.0006906126126646995,-0.009749825119972228,-0.0011048690982715925
1738772414945070000,5.559070068359375,-0.011380348931252955,-0.014670914909243583,0.006593671777145937
1738772414955061000,5.56906103515625,-0.009855331321060657,-0.0112368488073349,-0.0025497016074776183
1738772414965052000,5.579052001953125,0.004533551776409149,-0.010643559089303017,0.014379585546161979
1738772414975042800,5.589042724609375,-0.00800035110414028,-0.008109656697511673,-0.0038459793625574092
1738772414985035000,5.599034912109375,0.007641454663872719,-0.015312719944119452,-0.006871803161114803
1738772414995026000,5.60902587890625,-0.008297288224101066,-0.00785012897849083,0.016649270344083197
1738772415005016800,5.619016845703125,-0.030270635101199147,-0.01144727668762207,-0.005484915950801223
1738772415015008000,5.629008056640625,0.006828676976263523,-0.01563479150533676,-0.015944142865587492
1738772415024999000,5.6389990234375,-0.0006532032117247582,-0.025660510957241058,-0.006818792619777378
1738772415034991000,5.6489912109375,-0.01695376514941454,-0.016236264529824258,0.014052720220462651
1738772415044982000,5.65898193359375,0.0037011926054954527,-0.008306640574336051,0.018050246016075834
1738772415054973000,5.668972900390625,-0.013829203388094902,-0.020271219134330748,0.008331782436280627
1738772415064963800,5.6789638671875,-0.005475801062583923,-0.015026888740062713,0.004615967650388484
1738772415074955000,5.688955078125,-0.00028436989933252336,-0.01187339314520359,0.0034984531288529976
1738772415084947000,5.698947021484375,-0.0037108372166752813,-0.029384499916434288,0.0028335434963140866
1738772415094937900,5.708937744140625,0.00023848493099212645,-0.020271803656220434,0.004334777230475447
1738772415104929000,5.718928955078125,-0.0010606149688363075,-0.010369418323040008,-0.011826182727812556
1738772415114920000,5.728919921875,0.0016842998251318931,-0.012178513571619986,-0.00444290693020157
1738772415124910800,5.738910888671875,-0.004825520460307597,-0.01739595595896244,-0.014084116580791305
1738772415134902000,5.748902099609375,-0.018331190982460974,-0.022174422407150268,-0.0055270546133193415
1738772415144894000,5.75889404296875,-0.006145370887219906,-0.006629062750935554,0.000501167584079667
1738772415154884900,5.768884765625,-0.0067430445194244385,-0.02413724691271782,-0.004580090906942496
1738772415164876000,5.7788759765625,0.001242109015583992,-0.01861468409895897,0.0021283920432877495
1738772415174867000,5.788866943359375,-0.008428805649280547,-0.014140169033408164,0.0027492444800358497
1738772415184857900,5.79885791015625,-0.0039987142473459246,-0.010832359659671782,-0.004678332254427368
1738772415194850000,5.80885009765625,-0.0017936054185032843,-0.017705752560496328,0.001710350435951841
1738772415204841000,5.818841064453125,0.001319265905022621,-0.026077275064587593,0.012181945354433264
1738772415214831900,5.828831787109375,-0.007355038937926292,-0.02488134327828884,0.00518861358508002
1738772415224823000,5.838822998046875,-0.002499123339354992,-0.016480010157823563,0.008277068561624037
1738772415234814000,5.84881396484375,-0.003922434140741825,-0.015452420675754546,-0.00028063900570850816
1738772415244806000,5.858805908203125,-0.019944179137051106,-0.022781740650534628,0.0073922245765803375
1738772415254797000,5.868797119140625,-0.032037644773721695,-0.018149404674768447,0.009335955651788389
1738772415264788000,5.8787880859375,0.0069642860546708105,-0.023263386687636375,0.0010210301646526203
1738772415274779400,5.888779296875,-0.002751636795699596,-0.00994797804057598,0.009513049801343003
1738772415284770300,5.898770263671875,-0.009568331073224544,-0.0008376198679208755,0.0007552433806704357
1738772415294761200,5.90876123046875,0.007655190928280353,-0.022838439273834228,-0.0019387472269474528
1738772415304753400,5.91875341796875,0.0023521160840988156,-0.01623743357360363,-0.007051614994963165
1738772415314744300,5.928744384765625,0.007494739669561386,-0.010565233156085013,0.008242824369549635
1738772415324735500,5.938735595703125,0.011703297275304794,-0.014909984362125395,-0.0033205952192511177
1738772415334726400,5.948726318359375,-0.02363952652364969,-0.020887889727950096,0.0006941574182652402
1738772415344717300,5.95871728515625,-0.001938274586200714,-0.012060440149903297,-0.014866626994300167
1738772415354709500,5.96870947265625,0.004196574907004833,-0.0032312370061874387,0.011079304175043943
1738772415364700400,5.978700439453125,-0.026896774753928182,0.0005009352594614029,0.013253544083231827
1738772415374691300,5.98869140625,0.0012505845829844475,-0.007732640078663825,-0.0013316961283329873
1738772415384682200,5.99868212890625,0.00019376900643110274,-0.01730710863173008,-0.002768629029695876
1738772415394673400,6.00867333984375,-0.017136135978996752,-0.022851298755407333,-0.011744761796854436
1738772415404665300,6.018665283203125,-0.0019192776247859,-0.01610533162653446,-0.011926489880686859
1738772415414656500,6.028656494140625,0.002874678653478622,-0.004285714495182037,0.00555968223704258
1738772415424647400,6.0386474609375,-0.014546996268630027,-0.0060644146054983136,0.0027406501816265518
1738772415434638300,6.048638427734375,0.005061959564685821,-0.01773790126442909,0.010815757868031505
1738772415444629200,6.058629150390625,0.005441606532037258,-0.005339022940397262,-0.002289030531674507
1738772415454620400,6.068620361328125,-0.016964871065318583,-0.018218378257751463,-0.0008353559872426558
1738772415464612400,6.0786123046875,0.011738076327741145,-0.008334697625041007,0.01395480709571857
1738772415474603300,6.088603271484375,-0.009582067337632179,-0.019687866288423537,0.007507423337909858
1738772415484594400,6.098594482421875,0.000862169787287712,-0.011150924089550972,-0.009285535501403501
1738772415494585300,6.10858544921875,-0.00031301147192716594,-0.016244447836279867,0.00010370297389163169
1738772415504576300,6.118576171875,-0.008363046936690807,-0.027924364235997198,0.016553256915480596
1738772415514568400,6.128568359375,0.0007642623707652092,-0.011164368093013763,-0.0060527178886608446
1738772415524559400,6.138559326171875,0.005224748910963535,-0.013889993664622307,0.005037383387499721
1738772415534550300,6.14855029296875,-0.006417173565924167,-0.01823766748011112,-0.001301688578314497
1738772415544541400,6.15854150390625,-0.0030830607071518894,-0.019705986467003823,0.00297921331525431
1738772415554532400,6.168532470703125,-0.005881459254026412,-0.01144727668762207,0.010178439495316705
1738772415564524300,6.178524169921875,0.002269406236708164,-0.012025368836522101,-0.002867998321764753
1738772415574515500,6.188515380859375,-0.0013794716596603393,-0.009766191732883452,0.0034647928878461243
1738772415584506400,6.19850634765625,0.00895633665472269,-0.016801497197151183,0.004105360951105831
1738772415594497300,6.208497314453125,-0.011930676290392874,-0.009595511341094971,0.004695470048073911
1738772415604488400,6.218488525390625,-0.010597966381907463,-0.011986790391802787,0.0022120694342360366
1738772415614479400,6.228479248046875,0.005919745437800884,-0.020082418563961982,0.003750339822468231
1738772415624471300,6.23847119140625,-0.01368161161094904,-0.015443652847409247,0.009425841304525966
1738772415634462500,6.24846240234375,0.009641104048490523,-0.015288170024752615,0.0016903476858948123
1738772415644453400,6.258453369140625,0.00435790294855833,-0.015875030001997945,-0.004467818750816513
1738772415654444300,6.2684443359375,-0.007025660853087902,-0.014525368958711623,-0.003749980775330914
1738772415664435500,6.278435546875,0.00911444982588291,-0.01556640244424343,-0.004531858717888826
1738772415674427400,6.288427490234375,-0.004407002787292003,-0.019443536138534546,-0.004329034759567003
1738772415684418300,6.298418212890625,0.005173895506560802,-0.011663549786806105,-0.003333301149663748
1738772415694409500,6.308409423828125,0.014141338077187537,-0.0032809213668107983,0.007282331036386313
1738772415704400400,6.318400390625,-0.005778875662386417,-0.017342179945111273,-0.004084397507357062
1738772415714391300,6.328391357421875,-0.007174713934957981,-0.004460486540198326,-0.006775929013118729
1738772415724383200,6.33838330078125,-0.002628302676975727,-0.009673252752423285,-0.012775059259240515
1738772415734374400,6.34837451171875,0.002596738494932651,-0.034061259555816646,0.00040211566913058046
1738772415744365300,6.358365234375,-0.002763327233493328,-0.018206103298068047,-0.0027122243798075943
1738772415754356500,6.3683564453125,0.0023468553870916366,-0.00893500160574913,0.008848865112944622
1738772415764347400,6.378347412109375,0.002175298212468624,-0.012221768191456794,0.011046142832603072
1738772415774338300,6.38833837890625,-0.003077215488255024,-0.009224339941143989,-0.000013406900022528134
1738772415784330500,6.39833056640625,-0.002531564304232597,-0.014596680629253386,-0.007840689863287844
1738772415794321400,6.4083212890625,0.0018956044882535933,-0.018023147946596145,0.00403444771443028
1738772415804312300,6.418312255859375,-0.002453238371014595,-0.011436170771718025,0.0016654175989708163
1738772415814303500,6.428303466796875,-0.012321429173648356,-0.018581366351246832,-0.0017747797037358396
1738772415824294400,6.43829443359375,-0.007148994971811771,-0.012429273462295531,-0.004591942887406913
1738772415834286300,6.448286376953125,0.009485036703944206,-0.022311200529336928,0.004943624135598656
1738772415844277500,6.458277587890625,-0.020115736311674116,-0.019176409634947777,0.009161757853862945
1738772415854268400,6.468268310546875,-0.004193360036611557,-0.01620002417266369,-0.001092511369375279
1738772415864259300,6.47825927734375,0.002876139958202839,-0.012468436428904533,0.002851058603407
1738772415874250200,6.488250244140625,0.0025827099695801734,-0.009627075523138046,-0.005254491599500761
1738772415884241400,6.498241455078125,0.004703355385363102,-0.02444821255803108,0.004281510389989126
1738772415894233300,6.5082333984375,0.0010714286237955093,-0.017104279536008835,-0.01060066751235863
1738772415904224500,6.518224609375,-0.01254910044968128,-0.012464929297566414,-0.0024620210407359988
1738772415914215400,6.52821533203125,-0.02515139239132404,-0.01455167244374752,0.006290481871267547
1738772415924206300,6.538206298828125,-0.007174421674013137,-0.013059972581267357,-0.005928770136117236
1738772415934197200,6.548197265625,-0.0060381111204624175,-0.022621581652760504,-0.00801141820413759
1738772415944189200,6.558189208984375,-0.002406184358894825,-0.01455167244374752,-0.0037278311631380344
1738772415954180400,6.568180419921875,0.004200666560232639,0.0065413844674825665,-0.0016510345930582843
1738772415964171300,6.578171142578125,-0.014705109439790249,-0.014095160847902298,-0.002692363764467882
1738772415974162400,6.588162353515625,0.007791384528577327,-0.02129120983183384,0.0058291085831035155
1738772415984153300,6.5981533203125,0.012437164507806301,-0.013401917886734008,-0.00042592294886999296
1738772415994145300,6.608145263671875,-0.004774959316849708,-0.01160451307594776,0.01062069994516787
1738772416004136400,6.618136474609375,-0.01693272236138582,-0.014438859719038008,-0.0026364545882126547
1738772416014127400,6.62812744140625,0.0022620997130870816,-0.016544307565689087,0.00952405525254726
1738772416024118300,6.6381181640625,0.0011725509107112884,-0.01698211446106434,0.0017683745083020767
1738772416034109400,6.648109375,-0.009750117380917071,-0.024912907460331916,0.00014189953858731314
1738772416044100400,6.658100341796875,0.0016477672070264815,-0.017886369824409484,-0.00227067232025438
1738772416054092300,6.66809228515625,-0.004330722680687904,-0.01953472155332565,0.012188585157773922
1738772416064083500,6.67808349609375,-0.001606266152858734,-0.01729834080338478,0.0002707049876946257
1738772416074074400,6.688074462890625,-0.01274608432650566,-0.019824059888720512,-0.0019851042652124307
1738772416084065300,6.698065185546875,-0.0019464578926563262,-0.0108534024477005,0.01494076195123489
1738772416094056400,6.708056396484375,0.009496434880793094,-0.0068313073247671125,0.008373452453807112
1738772416104048000,6.718048095703125,-0.00046440264135599136,-0.0023597148686647414,-0.0036772329162398816
1738772416114039300,6.728039306640625,-0.007769757218658924,-0.014637012639641761,0.005975388610930531
1738772416124030500,6.738030517578125,0.00286561856418848,-0.00760696787238121,-0.004697907458688132
1738772416134021400,6.748021484375,0.005391045388579368,-0.01448503694832325,0.006399341081711463
1738772416144012300,6.75801220703125,-0.0011976853519678114,-0.005953939968347549,0.0009637886894808615
1738772416154003500,6.76800341796875,-0.004874328038096428,-0.022131752309203147,0.005637084580009105
1738772416163995400,6.777995361328125,-0.022740239596366882,-0.012390110495686531,0.005898971507008536
1738772416173986300,6.787986328125,-0.003550678218901157,-0.006264905613660812,-0.020345350666332522
1738772416183977500,6.7979775390625,-0.006725801123678684,-0.008240589600801467,0.004175348885063431
1738772416193968400,6.807968505859375,-0.025588322503864763,-0.017964695757627488,-0.014027397407894021
1738772416203959300,6.817959228515625,0.014316986905038355,-0.020087094739079474,0.0077349798786890455
1738772416213951200,6.827951171875,-0.013898761492967605,-0.007196048983931541,-0.0009354382361867464
1738772416223942400,6.8379423828125,-0.01146685817092657,-0.01618424208164215,-0.010018296480563004
1738772416233933300,6.847933349609375,0.02311404134482145,-0.02161445043683052,0.0054788132911111455
1738772416243924500,6.857924560546875,-0.013149696691334247,-0.0028957214415073393,0.00745974712963798
1738772416253915400,6.867915283203125,-0.0002849544212222099,-0.009928104296326637,0.00822129181610944
1738772416263907000,6.877906982421875,0.00006312836408615112,-0.003356324690580368,0.008927072315153781
1738772416273898200,6.887898193359375,-0.005911854392290115,-0.02834872712790966,0.00673148879565997
1738772416283889400,6.897889404296875,0.008092705562710762,-0.011872808623313903,0.004914187407738063
1738772416293880600,6.907880615234375,0.003899345526099205,-0.011721417453885078,-0.009477149083366384
1738772416303871700,6.917871826171875,-0.01016015948653221,-0.007683540239930152,0.000181369036695105
1738772416313862700,6.927862548828125,0.0011886252626776696,-0.009472761744260788,0.007012719743946218
1738772416323854600,6.9378544921875,-0.006285363879799843,-0.012616904988884925,0.0029645831433474084
1738772416333845500,6.947845458984375,-0.01092266829162836,-0.011720248410105705,-0.007304935023016878
1738772416343836700,6.957836669921875,0.0076017071753740305,-0.021627309918403625,0.0068327657753805395
1738772416353827800,6.967827880859375,0.0036678748577833173,-0.013685411003232001,0.021898423043941146
1738772416363818800,6.97781884765625,-0.026110300551354885,-0.010802549043297766,-0.011103153124800882
1738772416373810400,6.987810546875,0.019322832368314266,-0.009031447717547415,-0.01106995981631917
1738772416383801600,6.997801513671875,-0.01220014088153839,-0.013792963030934333,0.006173164218087913
1738772416393792500,7.00779248046875,-0.015047639267146586,-0.02456628597974777,-0.00432155185189913
1738772416403783700,7.01778369140625,0.0009796586871147156,-0.017088497444987295,0.007225336156386765
1738772416413774800,7.02777490234375,-0.02826543275862932,-0.015425532668828963,0.011486613184167072
1738772416423766500,7.0377666015625,-0.004468669846653938,-0.02485387074947357,-0.006378812604447012
1738772416433757400,7.04775732421875,0.0074903557553887366,-0.020660510712862012,-0.0022590104235685428
1738772416443748600,7.05774853515625,-0.018269231662154196,-0.021103578305244446,0.0002983265010931063
1738772416453739500,7.067739501953125,-0.0109884270042181,-0.01345803198814392,-0.0012237707829393912
1738772416463730700,7.077730712890625,0.012368483185768126,-0.020046178206801414,-0.01174039843227947
1738772416473722600,7.08772265625,-0.006223696820437908,-0.016744214051961897,-0.0003505487370304763
1738772416483713500,7.097713623046875,0.0015507365733385084,-0.016892098090052602,-0.006883718502838746
1738772416493704400,7.107704345703125,0.02491056937277317,-0.00791851803958416,0.008241497208032524
1738772416503695600,7.117695556640625,-0.0047588849648833274,-0.010301613783836365,0.0222083109770203
1738772416513686800,7.127686767578125,0.006738076083362102,-0.015083587363362311,-0.0009762993987154913
1738772416523677700,7.137677734375,0.006148293496668338,-0.027505846562981603,0.004081050206223153
1738772416533669600,7.147669677734375,-0.009347089537978172,-0.01929331401288509,-0.0014248942620528396
1738772416543660500,7.15766064453125,-0.009623568391799927,-0.024347090271115302,0.0010222882566886255
1738772416553651500,7.1676513671875,-0.002263268756866455,-0.016084873360395432,0.0021581290236033965
1738772416563642600,7.177642578125,-0.006714987468719482,-0.027318215036392212,0.006238892106281127
1738772416573633800,7.1876337890625,-0.0019148937106132505,-0.023430559948086738,-0.007457677328493445
1738772416583625500,7.19762548828125,0.0020420272216200826,-0.01476911458671093,0.001152835284199682
1738772416593616600,7.20761669921875,-0.00798076962083578,-0.003397241222858429,0.004175896303512854
1738772416603607600,7.217607666015625,0.003977671459317207,-0.022547931894659996,0.0020863972279534207
1738772416613598500,7.227598388671875,-0.014623568636178969,-0.006523848810791969,-0.005078828501095995
1738772416623589600,7.237589599609375,-0.0056689855471253395,-0.015645897421240805,-0.013928769613808253
1738772416633581600,7.24758154296875,0.007732640078663825,-0.01577858389019966,-0.003455832692433614
1738772416643572500,7.257572509765625,-0.031081951484084127,-0.015014613780379294,0.013711303496314211
1738772416653563400,7.2675634765625,-0.0036599838122725486,-0.03204407451450825,0.01998994537438266
1738772416663554600,7.277554443359375,-0.004768821837007999,-0.02589256614744663,0.00948677257412637
1738772416673545500,7.28754541015625,-0.010285539431869982,-0.018864859467744827,-0.001986975420246017
1738772416683536600,7.29753662109375,-0.005171265158057213,-0.011389993542432784,0.0018398968122201038
1738772416693528600,7.307528564453125,-0.006540507684648036,-0.004650456154346466,-0.001300358562686597
1738772416703519500,7.31751953125,-0.007591478042304515,-0.015533669218420981,-0.009490324800414965
1738772416713510400,7.327510498046875,0.003576397182047367,-0.02225274834036827,-0.0009628679533401737
1738772416723501600,7.33750146484375,-0.007504384280741214,-0.026440847679972648,0.00740160489710106
1738772416733492700,7.34749267578125,-0.00928220760822296,-0.008149988707900046,-0.0054350751849066
1738772416743484700,7.357484619140625,0.008883271418511867,-0.024925182420015332,0.007711736000419477
1738772416753475600,7.3674755859375,-0.011926000115275382,-0.00984860931932926,-0.0011528718168177874
1738772416763466500,7.377466552734375,-0.02627133633196354,-0.016437924581766128,0.0010141865778015926
1738772416773457400,7.38745751953125,0.0072486559540033335,-0.017635609933733937,-0.007539601153772673
1738772416783448600,7.397448486328125,-0.0069333063945174215,-0.018841478592157363,0.004256680767764919
1738772416793440500,7.4074404296875,0.004608370578289032,-0.0058282677620649335,0.00484518585446931
1738772416803431400,7.417431396484375,0.004970774149894714,-0.014932780715823173,0.008430253254272975
1738772416813422600,7.427422607421875,-0.008648585879802703,-0.025517303094267845,-0.003641349322927999
1738772416823413500,7.43741357421875,-0.0006233925953507423,-0.011437924337387084,0.01350268398062326
1738772416833404400,7.447404296875,0.008064063990116119,-0.005903086563944816,-0.008306291801997576
1738772416843395600,7.4573955078125,-0.015619009414315222,-0.002899228572845459,-0.009565266899880952
1738772416853387500,7.467387451171875,-0.009516600885987282,-0.008427052083611488,0.004540826333989389
1738772416863378400,7.47737841796875,0.0008598316997289657,-0.007692308068275451,0.004188230628700694
1738772416873369600,7.48736962890625,-0.00865267753303051,-0.012796937730908392,0.004606975488935131
1738772416883360500,7.497360595703125,-0.005598258398473262,-0.02313888352513313,0.002583875017604441
1738772416893351700,7.5073515625,-0.004056874175369739,-0.014022095611691474,-0.001844087788503384
1738772416903343600,7.517343505859375,-0.00933539910018444,-0.01655541348159313,0.0019442756395466857
1738772416913334500,7.52733447265625,-0.012938976550102232,-0.02029343096613884,-0.0017860991071269382
1738772416923325400,7.537325439453125,-0.010480477482080459,-0.012079729372262954,-0.005961440000680158
1738772416933316600,7.547316650390625,0.01023994672447443,-0.010302782827615738,0.005435079751483863
1738772416943307500,7.5573076171875,0.0006745382606983184,-0.007761866173148155,-0.00748949153064168
1738772416953299500,7.567299560546875,0.008133622094988822,-0.011347323444485663,0.001968850104266312
1738772416963290600,7.57729052734375,-0.004932487966120243,-0.020612579917907714,0.007482273484455072
1738772416973281500,7.587281494140625,-0.0036851182535290717,-0.017632687324285506,-0.003466939749981975
1738772416983272400,7.5972724609375,0.009369885891675948,-0.016145663636922835,0.002163592362476629
1738772416993263600,7.607263671875,-0.0058376201122999185,-0.011821370697021483,0.004599712918620207
1738772417003254500,7.617254638671875,-0.011768179205060004,-0.007944821524620055,0.008530815564651857
1738772417013246500,7.62724658203125,0.019662147325277327,-0.008355740413069725,0.006598139602175797
1738772417023237600,7.637237548828125,-0.009506956274807453,-0.017038813084363936,-0.012110860871110343
1738772417033228500,7.647228515625,-0.001239186406135559,-0.006723170775175094,-0.0009150273482868215
1738772417043219500,7.657219482421875,0.005913900218904018,-0.008660860839486122,0.0031649548496789064
1738772417053210600,7.667210693359375,-0.019525953724980352,-0.014496142864227294,-0.004828716493569664
1738772417063202600,7.67720263671875,-0.010595336033403872,-0.011490531307458876,0.013611548899288754
1738772417073193500,7.687193359375,-0.01597118385285139,-0.007153963407874107,-0.0001539433152967831
1738772417083184600,7.6971845703125,-0.003243511965870857,-0.018119009536504745,-0.012851136153156403
1738772417093175600,7.707175537109375,0.02357464459389448,-0.027555530923604965,-0.006043940356338862
1738772417103166500,7.71716650390625,-0.01981879919171333,-0.028752047231793403,-0.00468480309440929
1738772417113157600,7.72715771484375,-0.0034986557707190513,-0.0007727379381656646,-0.003098428381286794
1738772417123149600,7.737149658203125,0.010925006379187106,-0.006623802053928375,0.005559795830652001
1738772417133140500,7.747140380859375,-0.0073655603319406505,-0.009008651363849639,-0.0038655294506432254
1738772417143131600,7.757131591796875,-0.016621464455127716,-0.02412789456248283,-0.010542206190235447
1738772417153122600,7.76712255859375,-0.01563654507100582,-0.010384615892171859,0.004269169785757549
1738772417163113500,7.777113525390625,-0.020842589281499384,-0.005754033482074737,0.011910130117641528
1738772417173105700,7.787105712890625,0.0013619360029697416,-0.020583353823423384,-0.015926440528826788
1738772417183096600,7.7970966796875,-0.009311725963652134,-0.011442600512504578,-0.002686878163530491
1738772417193087500,7.80708740234375,-0.025815993779897687,-0.017865327036380767,-0.00007710380297794473
1738772417203078400,7.817078369140625,-0.0002028290957212448,-0.009043138155341147,0.005983756863765302
1738772417213069600,7.827069580078125,-0.014397943186759948,-0.013537526965141296,-0.0003491342397232074
1738772417223061500,7.8370615234375,-0.01654021591246128,-0.018053543084859847,-0.0017201651521347229
1738772417233052700,7.847052734375,0.012783493727445602,-0.02168283949792385,-0.007586580388189759
1738772417243043600,7.857043701171875,0.00045680385679006574,-0.02559796711504459,0.00043571369052224323
1738772417253034500,7.867034423828125,0.007253332129120826,-0.018542203384637832,0.003936754927039147
1738772417263025400,7.877025390625,-0.0022281974434852597,-0.01673193909227848,-0.016972585155960403
1738772417273016600,7.8870166015625,-0.010608780036866664,-0.014338321954011916,-0.0027599545307733933
1738772417283008000,7.897008056640625,0.014685235695540904,-0.010748188507556915,-0.007391457962422282
1738772417292999000,7.9069990234375,0.0013715806141495705,-0.013781272593140602,0.00423104571547592
1738772417302990000,7.916989990234375,-0.019761223785579204,-0.01661561923623085,0.0008566556452424264
1738772417312981000,7.92698095703125,-0.0005675707548856735,-0.019468670579791066,0.00454189548389113
1738772417322972200,7.93697216796875,-0.017759528574347493,-0.028900515791773794,-0.004947837373946095
1738772417334213000,7.948213134765625,-0.010439560949802399,-0.009444120171666145,0.0033116298864391863
1738772417344204000,7.9582041015625,0.010141162525117396,-0.018704115948081017,0.015557042102498234
1738772417354195000,7.96819482421875,-0.004642272847890853,-0.026642507731914518,-0.0006349414692493155
1738772417364186000,7.97818603515625,-0.010972937174141406,-0.015856909823417663,-0.0013557320223466377
1738772417374177000,7.988177001953125,-0.021534078676998615,-0.004351180946826934,-0.006090320798312314
1738772417384169200,7.998169189453125,-0.005430792877078056,-0.010959785431623459,-0.009592677779903169
1738772417394160000,8.00816015625,-0.02256166815906763,-0.00933364553451538,-0.0032128128648080743
1738772417404151000,8.018151123046875,0.008163140450417996,-0.017128244933485984,0.0032755162517976713
1738772417414142000,8.028141845703125,0.005213350734114647,-0.016091303101181984,0.013347057310782838
1738772417424133000,8.038133056640625,-0.012674480395019054,-0.01173135432600975,0.006757079323820653
1738772417434124000,8.0481240234375,-0.002898059529066086,-0.014397943186759948,-0.002148804643654148
1738772417444116000,8.058115966796874,-0.009603694647550582,-0.007821487405896187,0.0019919801035153794
1738772417454107100,8.068107177734374,-0.00710807843953371,-0.003957797715067863,0.009362026812206022
1738772417464098000,8.07809814453125,0.009303250396251678,-0.013072832062840462,0.000407907230744604
1738772417474089000,8.0880888671875,-0.010147300004959106,-0.0003542202651500702,0.0033386583156156118
1738772417484080000,8.098080078125,-0.013613222549855709,-0.009625321957468985,0.0014158119106985395
1738772417494072000,8.108072021484375,0.0011459551647305488,-0.01888824034333229,-0.0008586535227950662
1738772417504063000,8.11806298828125,-0.010559095676243305,-0.008404840251803398,-0.0016384005862375487
1738772417514054100,8.12805419921875,-0.004436813403666019,-0.030249007791280744,0.006418167938123224
1738772417524045000,8.138045166015624,0.001547229442000389,-0.014086977541446685,0.008462871744841685
1738772417534036000,8.148035888671876,0.0073173372760415075,-0.014369301614165305,-0.0030130562193517105
1738772417544027100,8.158027099609376,0.005966507188975811,-0.020054946035146713,-0.0077884322363766835
1738772417554019000,8.16801904296875,-0.024056875152885914,-0.009743979901075362,-0.003900851640362816
1738772417564010000,8.178010009765625,-0.0038230654194951054,-0.01917933224439621,0.0016916959678317653
1738772417574001200,8.188001220703125,0.0069321373507380485,-0.02351414657831192,0.026796737029112408
1738772417583992000,8.197991943359375,-0.019108020573854446,-0.005107552272081375,0.0028736340489296706
1738772417593983000,8.20798291015625,0.007215630467236041,-0.012775894942879677,-0.0034291370525752424
1738772417603975200,8.21797509765625,0.0034510172367095944,-0.019054244560003278,-0.00709322793027386
1738772417613966000,8.227966064453126,-0.0016647183418273925,-0.01814882015287876,0.0064445313594857
1738772417623957000,8.23795703125,0.012178513571619986,-0.000023380875587463377,0.0011896053643227788
1738772417633948200,8.2479482421875,-0.02252016710489988,-0.014692542219161987,-0.0044489233957458055
1738772417643939000,8.25793896484375,0.0019514263287186621,-0.025337854874134064,0.00008993588508747052
1738772417653931000,8.267930908203125,-0.004665653723478317,-0.016650106027722357,-0.004016087790543679
1738772417663922200,8.277922119140625,-0.01626841323375702,-0.006493453672528266,0.004021953559038229
1738772417673913000,8.2879130859375,0.007371990072727203,0.0023357494711875914,0.01071993281074101
1738772417683904000,8.297904052734374,-0.003573474572598934,-0.010377017107605933,0.007345690583446412
1738772417693895200,8.307895263671876,-0.020970307314395902,-0.015604396367073059,0.002746343561829417
1738772417703886000,8.317885986328125,0.0015469371810555457,-0.009149521139264106,0.004028884481679415
1738772417713878000,8.3278779296875,-0.002049041484296322,-0.010195230799913406,0.008735929090649006
1738772417723869200,8.337869140625,-0.011761457203328609,-0.01693359914422035,0.00800804122025147
1738772417733860000,8.347860107421875,-0.008748831383883953,-0.013047697621583938,0.008337633363399072
1738772417743851000,8.35785107421875,-0.009234569074213505,-0.014983049598336219,-0.0056088682699220955
1738772417753842000,8.367842041015624,0.002919394578039646,-0.007659574842453002,0.0012864396351884352
1738772417763834000,8.377834228515624,-0.002558160050213337,-0.008573182556033133,0.02092212764098076
1738772417773825000,8.387824951171876,-0.013776596418023108,-0.004234861090779305,0.0009879555871797493
1738772417783816200,8.397816162109375,0.0001689268261194229,-0.010526654711365699,0.003970629797177389
1738772417793807000,8.40780712890625,0.005544482384622097,-0.02159749930202961,0.016800454875890863
1738772417803798000,8.417798095703125,-0.0021221067205071447,-0.01444528945982456,-0.011394009847135749
1738772417813789000,8.427788818359375,0.01706599335223436,-0.011012392401695251,0.004265276778640691
1738772417823781000,8.437781005859375,-0.0055661096945405,-0.009356441888213158,0.001571293591710855
1738772417833772000,8.44777197265625,0.0025336101308465002,-0.010409165811538695,0.0021411727514030645
1738772417843763000,8.457762939453126,0.013165186521410941,-0.014600772282481193,0.0038433273228118195
1738772417853754000,8.467754150390626,-0.02049041484296322,-0.0163999306589365,-0.00430444830758206
1738772417863745000,8.4777451171875,0.02020925981402397,-0.011162614527344702,0.014223479385708924
1738772417873737200,8.4877373046875,-0.0044952655926346775,-0.009512509232759475,0.0028230044068128335
1738772417883728100,8.49772802734375,0.006236848562955856,-0.014628244811296463,-0.007464502078213263
1738772417893719000,8.507718994140625,0.015012860214710235,-0.024490298134088515,0.0009216745723155327
1738772417903710000,8.5177099609375,-0.014281623330712317,-0.01892389617860317,-0.009562921391634154
1738772417913701000,8.527701171875,-0.0005938742399215698,-0.017895137652754783,0.0010032519085449165
1738772417923693000,8.537693115234376,0.007777648264169693,-0.009513093754649161,-0.008739646284541231
1738772417933684200,8.547684326171876,-0.023971827217936514,-0.02117781258523464,0.009004106477828464
1738772417943675100,8.557675048828125,-0.007771510784327983,-0.004877835169434547,0.01088138757481356
1738772417953666000,8.567666015625,0.006289455533027648,-0.010562895068526267,0.002224392342980718
1738772417963657000,8.577656982421875,-0.005810732105374336,-0.024035540103912352,0.006112682185525773
1738772417973649200,8.587649169921875,-0.004760346269607543,-0.006678747111558914,-0.0017182660268153995
1738772417983640000,8.59764013671875,-0.0009808277308940886,-0.017761282140016554,0.0035545843549276467
1738772417993631000,8.607630859375,-0.0171492877215147,-0.009380407285690307,-0.007047071821408462
1738772418003622100,8.6176220703125,0.012020108139514922,0.00004968436062335968,-0.0007363674335530959
1738772418013613000,8.627613037109375,0.009675006318092346,-0.018518237987160683,-0.0035508891376885
1738772418023604000,8.63760400390625,-0.006051847384870052,-0.014025018221139907,0.004912146147701423
1738772418033596200,8.64759619140625,0.00913929200619459,-0.015502105036377906,0.008292739913146942
1738772418043587000,8.657587158203125,-0.00872720407396555,-0.02521335171163082,0.006744391088894917
1738772418053578000,8.667577880859374,0.007269698742032051,-0.00859948604106903,0.001328909089147055
1738772418063569200,8.677569091796874,0.011716156756877899,-0.019212065470218656,0.008712544219306437
1738772418073560000,8.68756005859375,-0.010952771168947219,-0.009206804284453392,0.00000653990946302656
1738772418083552000,8.697552001953126,0.0107575408577919,-0.013699439528584479,0.004729613204626366
1738772418093543200,8.707543212890625,0.006462474012374877,-0.022239888858795166,-0.005150822304116445
1738772418103534000,8.7175341796875,0.005749357306957244,-0.008332944059371948,-0.006557247615250525
1738772418113525000,8.72752490234375,0.014392974750697611,-0.015207506003975867,0.0014244567268688114
1738772418123516200,8.73751611328125,-0.005560848997533321,-0.016689853516221046,-0.004428453142341459
1738772418133507800,8.7475078125,-0.019526245985925197,-0.007698737809062004,0.004655786491656908
1738772418143499000,8.7574990234375,-0.005264788660407066,-0.0078209028840065,0.00693336119344458
1738772418153490200,8.767490234375,0.004910860656201839,-0.005576923349499702,-0.01676412889540661
1738772418163481000,8.777481201171875,0.006569149257242679,-0.014109773895144461,-0.002356202314516122
1738772418173472000,8.787471923828125,-0.006579962912201881,-0.019351181679964063,0.0031613717989937866
1738772418183463200,8.797463134765625,-0.00808539903908968,-0.010669862574338912,0.012847535406984387
1738772418193455000,8.807455078125,-0.001933306150138378,-0.0034919337689876553,-0.006060824134125141
1738772418203446000,8.817446044921875,0.00030278233885765074,-0.01695639549791813,0.00001701677934906911
1738772418213437200,8.827437255859374,-0.007360884156823158,-0.01784603781402111,0.0064546902814297934
1738772418223428000,8.837427978515626,0.005614332750439643,-0.018134207105636596,-0.00514605993485311
1738772418233419000,8.8474189453125,-0.007383972771465778,-0.01065817213654518,0.0020720824352887576
1738772418243411000,8.857410888671875,-0.025043255841732025,-0.013799392771720886,-0.013119108615181176
1738772418253402000,8.867402099609375,0.010994272223114967,-0.015438392150402068,-0.00450365239718958
1738772418263393000,8.87739306640625,-0.0179532975807786,-0.014224340185523033,-0.0004442175136195146
1738772418273384200,8.88738427734375,-0.018986440020799637,-0.02006371386349201,0.0016658519946329761
1738772418283375000,8.897375,0.015101123020052908,-0.02035480576455593,0.0007722613016638205
1738772418293367000,8.907366943359374,-0.012209493231773375,-0.002717442265152931,-0.012195877981663215
1738772418303358000,8.91735791015625,-0.00011865794360637664,-0.0149795424669981,0.001909345890060649
1738772418313349000,8.92734912109375,0.0007823825493454932,-0.016476503026485442,0.012717620850424282
1738772418323340000,8.937340087890625,-0.01042640920728445,-0.02037058785557747,-0.004997382453962927
1738772418333331200,8.947331298828125,0.004706277994811534,-0.015737082836031913,0.0013024192306766054
1738772418343323000,8.957322998046875,-0.004527998818457126,-0.0220335526317358,-0.0056850644656689835
1738772418353314000,8.96731396484375,-0.003268354146182537,-0.001998480340838432,-0.0007178519606284681
1738772418363305200,8.97730517578125,0.005760170961916446,-0.015289923590421675,-0.008450293107770266
1738772418373296000,8.987296142578124,-0.010571662896871566,-0.01244154842197895,0.006979887765890452
1738772418383287000,8.997287109375,-0.010087386511266231,-0.009457564175128936,0.0031216243104950987
1738772418393279000,9.007279052734376,0.011171674616634845,-0.015296353331208228,0.00034397200953826537
1738772418403270000,9.017269775390625,-0.015707564480602742,-0.01467325299680233,-0.006407382824271917
1738772418413261000,9.027260986328125,-0.0038622283861041067,-0.0172235220015049,-0.007477682932661264
1738772418423252200,9.037252197265625,0.012770634245872497,-0.012590016981959343,-0.002530361581945908
1738772418433243100,9.0472431640625,-0.018953414534032344,-0.02560848850905895,0.013942268416198203
1738772418443234000,9.057234130859374,-0.012625380556285381,-0.014995909079909324,0.005779248409255523
1738772418453226000,9.06722607421875,0.004585866485536098,-0.00018295535147190093,-0.0038069662367648557
1738772418463217000,9.077216796875,-0.0010819500178098679,-0.022034721675515175,-0.004443861344849574
1738772418473208000,9.0872080078125,-0.008098258520662784,-0.008870704197883605,-0.000431994498752465
1738772418483199200,9.09719921875,-0.005910100826621055,-0.01244680911898613,0.0029083702897041803
1738772418493190100,9.107190185546875,-0.007093757653236389,-0.009906476986408234,0.00015938325046154205
1738772418503181800,9.117181884765625,0.00032557869255542754,-0.030839959421753882,-0.008767654244540608
1738772418513173000,9.127173095703125,0.0015910685837268828,-0.02023322521150112,-0.00829210515890736
1738772418523164200,9.1371640625,-0.010425532424449921,-0.013078092759847641,-0.004926037675736006
1738772418533155000,9.147155029296876,0.00113718733638525,-0.015782675543427466,-0.0005911031837560585
1738772418543146200,9.157146240234376,-0.0031222236737608908,-0.010078326421976088,0.0006538873420809978
1738772418553138000,9.167137939453125,-0.009954700042307377,-0.019518939462304114,-0.006529417751764413
1738772418563128800,9.17712890625,-0.001554243704676628,-0.01757891131043434,-0.00212585388256266
1738772418573120000,9.1871201171875,-0.005360065728425979,-0.006527355942130089,-0.006470379899261752
1738772418583111200,9.197111083984375,-0.008993453794717788,-0.01130523786842823,0.005422192870447179
1738772418593102000,9.20710205078125,0.004277531188726425,-0.008749123644828796,-0.014108828613650985
1738772418603094000,9.217093994140624,-0.0038324177697300907,-0.01876665979027748,0.005406820629735011
1738772418613085000,9.2270849609375,-0.003927402576804161,-0.014441782328486441,0.0012956741106478148
1738772418623075800,9.237075927734375,0.006999065107107162,-0.012685878571867941,0.004481782487854071
1738772418633067000,9.24706689453125,-0.004946224230527877,-0.010298691174387932,-0.0017906699655562987
1738772418643058200,9.25705810546875,-0.004671791203320026,-0.006102408528327941,0.005498466127185383
1738772418653049000,9.267049072265625,0.009222586375474929,-0.01941372552216053,0.0002558661802890128
1738772418663041000,9.277041015625,0.009832242706418037,-0.014629413855075836,0.0006790597430110211
1738772418673032000,9.287031982421874,0.005694412249326705,-0.012099018594622611,-0.0073436316279228775
1738772418683022800,9.29702294921875,0.003047404871881008,-0.02303483862876892,0.012279766005987767
1738772418693014300,9.30701416015625,-0.0010334347009658812,-0.014794249027967452,-0.0064562452009879045
1738772418703005200,9.317005126953125,-0.00251227508187294,-0.02003624133467674,-0.013113906142034101
1738772418712996900,9.326996826171875,0.008875672633945942,-0.010762801554799079,-0.007214649794768774
1738772418722988000,9.336988037109375,0.007951835787296295,-0.017788754668831824,0.012074064533167984
1738772418732979000,9.34697900390625,0.010468494783341884,-0.031248540222644804,0.01794329449328361
1738772418742970000,9.35697021484375,-0.0034641689792275425,-0.02301438036262989,-0.0004374652583137504
1738772418752961000,9.3669609375,-0.004023848688602448,-0.012400631889700888,-0.002755381103644322
1738772418762953000,9.376952880859376,0.010896657067537308,-0.018413608568906784,-0.003890112763106299
1738772418772944000,9.38694384765625,-0.016012684907019136,-0.01752279720902443,0.0034835509601878582
1738772418782935000,9.39693505859375,-0.015602935062348841,-0.017362638211250305,0.00827537949885882
1738772418792926000,9.406926025390625,-0.011471826606988906,-0.005376432341337204,-0.009794995418970939
1738772418802917000,9.416917236328125,0.004463409149646759,-0.01467325299680233,-0.017553400126553605
1738772418812908000,9.426907958984375,0.005714285993576049,-0.012592939591407774,-0.011834594363131327
1738772418822900000,9.43689990234375,0.0030526655688881874,-0.013498948520421982,0.018197422234690747
1738772418832891000,9.446890869140624,-0.0032689386680722233,-0.018017302727699278,0.011828508257283828
1738772418842881800,9.4568818359375,-0.001104161849617958,-0.016200608694553375,-0.005794009299436584
1738772418852873000,9.466873046875,0.00973491981178522,-0.016517419558763503,0.002361602862951986
1738772418862864100,9.476864013671875,0.012614274640381335,-0.004256488400697708,-0.004159660979697946
1738772418872856000,9.48685595703125,0.0008157002970576285,-0.005609072053432464,0.002715341068789712
1738772418882847000,9.496846923828125,-0.006165829153358936,-0.008466215050220488,0.014283088060369481
1738772418892838000,9.506837890625,0.00497749615162611,-0.023448095604777335,0.0013178228666074574
1738772418902829000,9.5168291015625,0.0006806757405400276,-0.018781272837519646,0.0011176669310516444
1738772418912820200,9.5268203125,-0.010416180074214935,-0.008449848437309265,-0.006622887596831424
1738772418922812000,9.53681201171875,0.0034364041894674297,-0.017151625809073447,0.014083398486516671
1738772418932803000,9.546802978515625,-0.015034487524628638,-0.018331190982460974,-0.010482962841755943
1738772418942794000,9.5567939453125,-0.00530950458496809,-0.017882278171181678,-0.008693975945332203
1738772418952785000,9.566784912109375,-0.003996083898842335,-0.01069090536236763,0.006816215357734472
1738772418962776000,9.576776123046875,-0.015564356617629527,-0.011427402943372725,0.0027288938138735827
1738772418972767200,9.586767333984374,0.008171908278763294,-0.018334698113799095,-0.007462668597442098
1738772418982759000,9.596759033203124,-0.011809972520172596,-0.013674889609217642,0.007820729924892657
1738772418992749800,9.606749755859376,-0.010201660540699958,-0.005883212819695473,0.014178393568389583
1738772419002741000,9.616740966796876,-0.0032999183282256123,-0.01516600494980812,-0.010306986361986492
1738772419012732000,9.62673193359375,-0.002234919445216656,-0.012028291445970535,-0.01680528745627962
1738772419022723000,9.63672314453125,0.007072422604262828,-0.010540098714828491,-0.0014342817178505357
1738772419032715000,9.646715087890625,0.0026779870375990868,-0.008580196818709373,0.0024672688942446257
1738772419042706000,9.656705810546875,0.007313830144703388,-0.016061492484807968,0.00426350722995121
1738772419052696800,9.66669677734375,-0.013796470162272452,-0.010821253743767738,0.0013090918562913428
1738772419062688000,9.67668798828125,0.007682371196150779,-0.013235913670063017,0.000005834658686944749
1738772419072679200,9.68667919921875,0.008608253869414328,-0.014290975680947303,0.011083197182160802
1738772419082670800,9.6966708984375,-0.016752689619362354,-0.011618541601300238,-0.0021835291825744205
1738772419092662000,9.706662109375,0.007855097414553164,-0.019566870257258413,0.00563057663658692
1738772419102653000,9.71665283203125,-0.0006859364375472069,-0.014475684598088264,0.014287223096081287
1738772419112643800,9.726643798828125,-0.010625146649777888,-0.018389058649539946,-0.009739107363135553
1738772419122635000,9.736635009765624,-0.0023237667724490163,-0.014517770174145697,-0.01023947979194927
1738772419132626200,9.746626220703124,0.0003141805157065391,-0.01738601908683777,0.0101940160903614
1738772419142617900,9.756617919921876,0.007710135985910892,-0.015008184039592741,0.001978282655014482
1738772419152609000,9.766609130859376,-0.009844225405156611,-0.018287351840734482,0.0030009385211727927
1738772419162600000,9.776599853515625,0.005651449890434742,-0.015875614523887634,-0.006376584685564739
1738772419172590800,9.7865908203125,-0.0000046761751174926755,-0.014387421792745589,-0.010906195505795767
1738772419182582000,9.79658203125,-0.0190098208963871,-0.01992342860996723,0.0036206478865497046
1738772419192574000,9.806573974609375,-0.01063596030473709,-0.011243278548121452,0.015580649023660225
1738772419202564900,9.81656494140625,-0.007941606654226779,-0.003911035963892936,-0.003707263299144688
1738772419212556000,9.82655615234375,-0.008109948958456516,-0.02141395942866802,0.006070396821713075
1738772419222547000,9.836546875,-0.0016533201649785042,-0.014087562063336372,-0.004121455567258818
1738772419232538000,9.8465380859375,-0.0017538579300045967,-0.009760931035876273,-0.008880029148655011
1738772419242530000,9.856530029296875,0.004067687830328941,-0.018586042526364324,-0.0047114208170431085
1738772419252521000,9.86652099609375,-0.0030851065337657926,-0.00737082102894783,0.007919370847888057
1738772419262511900,9.876511962890625,-0.0035842882275581357,-0.01861936027407646,-0.005723165703064296
1738772419272503000,9.8865029296875,-0.008653262054920195,-0.010394552764296532,-0.002117048665366019
1738772419282494500,9.896494384765624,-0.000417056368291378,-0.01129471647441387,-0.006560067476710537
1738772419292485400,9.9064853515625,0.008154080361127853,-0.015644143855571745,-0.005436833317152922
1738772419302477600,9.9164775390625,-0.003167524120211601,-0.013262801676988602,-0.0005555018620012561
1738772419312468500,9.926468505859376,-0.005297229625284672,-0.00012567220628261565,-0.0060799883464322186
1738772419322459400,9.93645947265625,-0.008206395070254802,-0.009275777867436408,-0.0004865257103185286
1738772419332450300,9.9464501953125,-0.0016001286730170248,-0.010628361520171164,-0.014645705119462218
1738772419342441500,9.95644140625,-0.0015250176101922989,-0.014499065473675727,-0.004251535376833635
1738772419352433400,9.966433349609375,-0.011504852093756198,-0.0034381577551364896,0.004669015295166173
1738772419362424600,9.976424560546874,-0.003402501919865608,-0.018407178828120232,-0.011035024358611553
1738772419372415500,9.98641552734375,-0.0015299860462546348,-0.028154081338644027,0.00048134920957963913
1738772419382406400,9.996406494140626,-0.002536532740294933,-0.02068330706655979,-0.004308177774150681
1738772419392397300,10.006397216796875,0.0005392214432358741,-0.011427402943372725,-0.007444588376412866
1738772419402389500,10.016389404296875,0.012038520579040049,-0.020998364365100858,-0.010474669937446014
1738772419412380400,10.02638037109375,0.0005856909334659576,-0.020567571732401847,0.004629118251262116
1738772419422371300,10.036371337890625,-0.01167640926837921,-0.012339841613173485,0.007491058437465108
1738772419432362500,10.046362548828125,0.008083937734365464,-0.02236731463074684,-0.002777217049061437
1738772419442353400,10.056353515625,0.005599427442252635,-0.022084406036138534,-0.0017683154282087342
1738772419452344300,10.06634423828125,-0.003713467565178871,-0.01298573830127716,-0.005369985475885915
1738772419462336500,10.07633642578125,-0.003143558722734451,-0.011971008300781249,0.0054856688652274894
1738772419472327400,10.086327392578125,-0.010503858357667923,0.006291793620586395,0.0011478611399157671
1738772419482318300,10.096318359375,0.0009513093754649162,-0.011087211203575134,0.007139894924970576
1738772419492309500,10.1063095703125,0.014188392089307307,-0.014846271476149558,-0.005619970760893192
1738772419502300400,10.116300537109375,-0.006372749902307987,-0.012924363502860069,0.0027518505685977285
1738772419512292400,10.126292236328124,0.00386252064704895,-0.020870938593149185,-0.0064798110229545266
1738772419522283500,10.136283447265624,0.0037573067069053647,-0.017141688936948774,-0.00025435949520324355
1738772419532274400,10.1462744140625,-0.008469429920613765,-0.02628127320408821,-0.004041252770785649
1738772419542265300,10.156265380859375,-0.006222235515713691,-0.015507950255274771,0.0006223802422537118
1738772419552256500,10.166256591796875,0.005771861399710178,-0.01731003124117851,-0.009237834176956675
1738772419562248400,10.17624853515625,0.0012044073536992073,-0.010406243202090262,-0.009883109810552558
1738772419572239400,10.1862392578125,0.0009057166680693626,-0.020881459987163543,-0.0003763062306723441
1738772419582230500,10.19623046875,-0.00006517419070005416,-0.01686053390800953,-0.0018021791673148982
1738772419592221400,10.206221435546874,-0.007033259637653827,-0.016878069564700126,-0.0016323689939061294
1738772419602212400,10.21621240234375,-0.007507891412079334,-0.026747137150168417,-0.005021523093842552
1738772419612203500,10.22620361328125,-0.0033940263524651526,-0.008770750954747199,0.004073823883115255
1738772419622195500,10.236195556640626,-0.004893032738566398,-0.0123608844012022,0.00464084893201798
1738772419632186400,10.246186279296875,0.01917407154738903,-0.012354454660415648,0.0022884879652134258
1738772419642177500,10.256177490234375,-0.002979600332677364,-0.01220364801287651,-0.013252498337038558
1738772419652168400,10.26616845703125,-0.00289221431016922,-0.02206277872622013,-0.005138971465296345
1738772419662159400,10.276159423828124,-0.0027539748832583425,-0.016373627173900604,-0.004155725160919246
1738772419672151600,10.286151611328124,0.013747662584483622,-0.008753215298056602,-0.0011594265676569194
1738772419682142500,10.296142578125,-0.004518354207277297,-0.02296644956767559,-0.00042456125261232955
1738772419692133400,10.30613330078125,-0.00576134000569582,-0.013266893330216406,0.003234750987391453
1738772419702124500,10.31612451171875,-0.002159223860502243,-0.0033937340915203094,0.02169112098579062
1738772419712115500,10.326115478515625,-0.004577098657190799,-0.013562661406397818,-0.0014780158282999764
1738772419722106400,10.3361064453125,0.0072623922184109685,-0.010425532424449921,-0.0054748238150496035
1738772419732098600,10.3460986328125,-0.0061722588941454885,-0.02479892569184303,-0.006669571145370719
1738772419742089500,10.35608935546875,-0.0029667408511042594,-0.021523849543929097,0.01391644670506357
1738772419752080400,10.366080322265624,-0.007123860530555248,-0.018539280775189397,-0.0035421715416930964
1738772419762071600,10.376071533203126,-0.003432604797184467,-0.022865911802649498,-0.001428579204493144
1738772419772062500,10.3860625,-0.0036199440628290175,-0.008191489762067794,-0.007493762422027066
1738772419782054400,10.396054443359375,0.0013467384338378906,-0.01987023711800575,-0.002431081052722584
1738772419792045600,10.406045654296875,-0.005699380685389042,-0.009842179578542708,0.003595544555100787
1738772419802036500,10.416036376953125,-0.00448211385011673,-0.024061843588948247,0.005202180315306759
1738772419812027400,10.42602734375,-0.0036392332851886747,-0.012674772655963897,0.0014149063013450358
1738772419822018300,10.436018310546874,-0.007281973701715469,-0.016701543954014776,-0.013880425543611635
1738772419832010500,10.446010498046874,0.00992751977443695,-0.0190969146579504,0.006220503070464474
1738772419842001400,10.45600146484375,-0.006987666930258274,-0.000989011037349701,-0.0015702726762814563
1738772419851992600,10.46599267578125,-0.01663461619764566,-0.010098200166225433,-0.00035223323321843054
1738772419861983500,10.4759833984375,-0.0008656769186258316,-0.01291734924018383,-0.008594662023012642
1738772419871974400,10.485974365234375,-0.0021937106519937513,-0.014866729742288589,-0.01173766533578746
1738772419881965300,10.49596533203125,0.0087424016430974,-0.0192103119045496,0.0022172539264851366
1738772419891957500,10.50595751953125,0.004341536335647106,-0.010514964273571967,0.009106956072594038
1738772419901948400,10.515948486328124,-0.007873802115023136,-0.01771218230128288,0.005036102462577401
1738772419911939300,10.525939208984376,-0.006905833865702152,-0.013651508733630179,0.006325488110922742
1738772419921930500,10.535930419921876,-0.0038008535876870152,-0.012594108635187149,-0.001465851322704111
1738772419931921400,10.54592138671875,0.0016074351966381072,-0.015441899281740187,0.005613581548479851
1738772419941913600,10.55591357421875,-0.0076543141454458235,-0.015557050094008444,-0.0024316033549970596
1738772419951904500,10.565904541015625,-0.00509644635617733,-0.004337736943364143,-0.009801598689693491
1738772419961895400,10.5758955078125,0.01867079820036888,-0.015852818170189856,-0.006646937475987942
1738772419971886300,10.58588623046875,-0.012759820590913296,-0.013457447466254234,-0.0019494629859065752
1738772419981877500,10.59587744140625,-0.007834931409358977,-0.018990531674027443,0.005629234633693704
1738772419991869400,10.605869384765626,0.0041994975164532655,-0.010288169780373573,0.009402132777019869
1738772420001860400,10.6158603515625,-0.019595219568908213,-0.014178162956237791,-0.0009575413263737572
1738772420011851500,10.6258515625,0.00874766234010458,-0.008059387814998627,0.00855420728586032
1738772420021842400,10.635842529296875,-0.009866437236964702,-0.015526070433855056,-0.0012126954060207936
1738772420031833300,10.645833251953125,-0.013638941513001919,-0.01372165136039257,-0.005081249928689795
1738772420041824500,10.655824462890624,0.014584405669569969,-0.011162030005455017,0.005881021433431306
1738772420051816400,10.66581640625,-0.014499649995565413,-0.020724808120727536,-0.007699046623849426
1738772420061807400,10.675807373046876,-0.0032695231899619102,-0.019529460856318473,0.0034460085576851268
1738772420071798500,10.685798583984376,0.01687690052092075,-0.019854455026984213,0.0037447289260671823
1738772420081789400,10.69578955078125,-0.007104863569140434,-0.013708791878819465,0.015286972439865348
1738772420091780400,10.7057802734375,-0.021490824057161805,-0.008016717717051506,-0.00958107639036607
1738772420101772500,10.7157724609375,-0.0013774258330464361,-0.003953706061840057,0.01403280766030657
1738772420111763500,10.725763427734375,-0.012916180196404456,-0.016218728873133657,0.0027035507371183484
1738772420121754400,10.73575439453125,0.017889000172913075,-0.012324059522151947,-0.012136267023714026
1738772420131745500,10.74574560546875,-0.0016258476361632346,-0.022034137153625486,0.018987612489511956
1738772420141736400,10.755736328125,-0.006879822641611099,-0.015445406413078308,0.005085060737415915
1738772420151728400,10.765728271484376,-0.0033078093737363813,-0.01813362258374691,-0.0020728835841873658
1738772420161719600,10.775719482421875,0.010085925206542015,-0.017814473631978033,0.005603265650442335
1738772420171710500,10.78571044921875,-0.0036018238842487334,-0.013157003214955328,0.0006509122169940383
1738772420181701400,10.795701416015625,-0.011110592079162597,-0.019434768310189247,0.001537415296639665
1738772420191692500,10.805692626953125,-0.00512041175365448,-0.011206453669071198,-0.0024659397348499625
1738772420201683500,10.815683349609374,0.005317395630478858,-0.020773323437571524,0.0022311069240240613
1738772420211675400,10.82567529296875,-0.0015378770917654036,-0.02119008754491806,-0.00957073708862008
1738772420221666600,10.83566650390625,0.0018210779473185538,-0.019821721801161766,0.012186449141259072
1738772420231657500,10.845657470703125,-0.015328209774196147,-0.014560440272092818,0.0010359154940641018
1738772420241648400,10.8556484375,-0.0037672435790300366,-0.012436872246861456,-0.002074818100480479
1738772420251639600,10.8656396484375,0.007560498382151126,-0.021552491116523742,-0.0007909694270667386
1738772420261631500,10.875631591796875,0.010617547865211963,-0.015993687945604323,0.004668558066617697
1738772420271622400,10.885622314453125,-0.00900514423251152,-0.03169979112148285,-0.002594416675805405
1738772420281613800,10.89561376953125,0.007169745498895644,-0.01614157198369503,0.005297979685600148
1738772420291604700,10.905604736328126,0.006601590222120285,-0.017346856120228765,-0.004785435045091435
1738772420301595600,10.915595703125,-0.008771627737581729,-0.021955811220407486,-0.010594170414557447
1738772420311586800,10.9255869140625,-0.005887304472923278,-0.010106383472681045,-0.0045314973874628775
1738772420321578800,10.935578857421875,-0.009224924463033676,-0.012937222984433174,0.005033933338377391
1738772420331569700,10.945569580078125,0.003296411196887493,-0.02818739908635616,-0.0021652825668861623
1738772420341560800,10.955560791015625,0.0018874211817979812,-0.017097849795222282,0.005441525475290836
1738772420351551700,10.9655517578125,-0.0015244330883026121,-0.00943476782143116,-0.0027218883989407914
1738772420361542700,10.975542724609374,-0.0004132569760084152,-0.021682254976034165,0.005560654917999636
1738772420371534800,10.985534912109374,0.010788812778890133,-0.01314823538661003,-0.007275899012311128
1738772420381525800,10.99552587890625,-0.005413549481332301,-0.013735679885745047,0.0003477020469290437
1738772420391516700,11.0055166015625,0.0020469956576824187,-0.0031061493217945098,0.0018360725891732727
1738772420401507800,11.0155078125,-0.011576456025242805,-0.00355272404551506,-0.0018108762137126176
1738772420411498800,11.025498779296875,-0.0015700257956981658,-0.030033903735876083,0.0038482503785126024
1738772420421489700,11.03548974609375,-0.02031827314645052,-0.0180512049973011,-0.00292606006837741
1738772420431481900,11.04548193359375,0.006607727701961994,-0.01984451815485954,0.006211577124381438
1738772420441472800,11.05547265625,0.00023030162453651428,-0.009644611179828642,-0.009330726349999895
1738772420451463700,11.065463623046876,0.0017050503522157668,-0.018467969104647635,0.005253711856433074
1738772420461454600,11.07545458984375,0.003025193040072918,-0.019657471150159835,-0.005015338235761737
1738772420471445800,11.08544580078125,-0.02083148336559534,-0.01664776794016361,-0.0024837040058147976
1738772420481437700,11.095437744140625,-0.007618073788285255,-0.016360183170437814,0.0029348510150201037
1738772420491428900,11.105428955078125,-0.014743687884509563,-0.01454115104973316,0.0037279264904384033
1738772420501419800,11.115419677734375,-0.01639379317909479,-0.017233458873629568,-0.010569050814677029
1738772420511410700,11.12541064453125,0.007519289588928222,-0.022352701583504674,-0.003135379126622865
1738772420521401600,11.135401611328126,0.005831190371513366,-0.011606266641616821,0.0002679359294066671
1738772420531393800,11.145393798828126,-0.0035001170754432676,-0.002803366982936859,-0.006730088568906649
1738772420541384700,11.155384765625,0.006854103678464889,-0.009245382729172706,-0.012514339663553982
1738772420551375600,11.165375732421875,-0.013423837457597254,-0.01715630198419094,0.009406768994586309
1738772420561366800,11.17536669921875,-0.0017556114956736564,-0.013414192846417426,-0.008287412429947289
1738772420571357700,11.185357666015625,-0.00035538930892944334,-0.012680617874860764,-0.0006326972819355433
1738772420581348600,11.1953486328125,-0.014983049598336219,-0.005917115089297294,-0.002591949297027895
1738772420591340800,11.2053408203125,-0.0002744330272078514,-0.01610416258275509,-0.012726478868670527
1738772420601331700,11.215331787109376,0.010683306577801704,-0.012820318606495856,-0.002056043188885087
1738772420611322600,11.225322509765626,0.00037263270467519755,-0.01626665966808796,0.0005737330654912512
1738772420621313800,11.235313720703125,-0.0005707856252789497,-0.019247136783599853,-0.005381609127487172
1738772420631304700,11.2453046875,0.004517477424442768,-0.030021044254302978,0.0007602611928494297
1738772420641296600,11.255296630859375,-0.006671148326992988,-0.01132569613456726,-0.003252894284269132
1738772420651287800,11.265287841796875,0.0036979777351021765,-0.007146949145197868,-0.02479278592871269
1738772420661278700,11.27527880859375,-0.0019558102428913113,-0.024363456884026528,-0.01492806115822168
1738772420671269600,11.28526953125,0.003603577449917793,-0.011650105783343315,-0.0056754529621743125
1738772420681260800,11.2952607421875,0.0011506313398480415,-0.0028068741142749784,0.018145528792316325
1738772420691251700,11.305251708984375,-0.011787468427419661,-0.009821721312403678,0.0008784641911959624
1738772420701243600,11.31524365234375,0.0026268413722515104,-0.018513561812043187,0.004706710107185062
1738772420711234800,11.32523486328125,-0.014726736749708652,-0.00878770208954811,-0.005622548022936098
1738772420721225700,11.335225830078125,-0.00426554848998785,-0.01391162097454071,-0.0009009891189576592
1738772420731216600,11.345216552734374,0.0041477673292160035,-0.00838379746377468,0.0040381460711912944
1738772420741207800,11.355207763671874,-0.008449848437309265,-0.017204817301034927,0.0029504033501230875
1738772420751199700,11.36519970703125,-0.00811199478507042,-0.017066285613179206,-0.004792560618088464
1738772420761190700,11.375190673828126,0.005837327851355076,-0.008395487901568412,-0.02334140209360048
1738772420771181800,11.385181884765625,0.007794599398970603,-0.016479425635933874,-0.0017742157314438371
1738772420781172700,11.3951728515625,-0.006692191115021705,-0.012595862200856208,-0.00482905670357577
1738772420791163600,11.40516357421875,-0.0006961655706167221,-0.02460895607769489,0.0009652365798843675
1738772420801155800,11.41515576171875,0.0008054711639881133,-0.00934767405986786,-0.004303287826135056
1738772420811146800,11.425146728515625,-0.012608721682429313,-0.013401917886734008,-0.0017948426755305263
1738772420821137700,11.4351376953125,0.0067775313109159465,-0.010281155517697333,0.0022199696129013317
1738772420831128800,11.44512890625,0.004603109881281852,-0.013701777616143225,-0.000521706050731882
1738772420841119700,11.45511962890625,0.006350245809555053,-0.02102174524068832,0.000762716584361624
1738772420851110700,11.465110595703125,0.0009805354699492454,-0.021923662516474724,-0.0067192144067987096
1738772420861102800,11.475102783203125,-0.014139292250573634,-0.015188801303505896,-0.004947072472254513
1738772420871093800,11.48509375,0.0005576338827610015,-0.0038239422023296356,0.007589216444914927
1738772420881084700,11.495084716796875,-0.010840835227072238,-0.015339607951045036,-0.003221197100663266
1738772420891075800,11.505075927734374,-0.01968465141803026,-0.013539865052700042,-0.002787308899401978
1738772420901066800,11.515066650390626,0.0022711598023772237,-0.013529343658685683,0.004968696928062127
1738772420911058700,11.52505859375,-0.015911854881048203,-0.022487726140022278,-0.009977461005031364
1738772420921049900,11.5350498046875,0.008918634992837906,-0.019192191725969313,0.00027505322548240655
1738772420931040800,11.545040771484375,0.006417758087813854,-0.014376315876841544,0.00941399446146097
1738772420941031700,11.55503173828125,-0.00030833529680967327,-0.013031331008672714,0.003942743422297644
1738772420951022600,11.565022705078125,-0.016095102493464946,-0.013200842356681824,0.01218817302417592
1738772420961013800,11.575013671875,0.00962561421841383,-0.014393851533532141,-0.005420488395483698
1738772420971005700,11.585005615234374,0.006887129165232181,-0.022910919988155365,-0.0007069880733193713
1738772420980996900,11.594996826171876,0.002850420995056629,-0.010641805523633956,-0.011895328699087257
1738772420990987800,11.60498779296875,-0.0058054714083671565,-0.010348960056900978,0.005485278993693646
1738772421000978700,11.614978759765625,-0.013096505199372768,-0.00048339960277080535,0.004410414020507596
1738772421010969600,11.624969482421875,0.010904548113048076,-0.008280337089300155,0.0019924173532883285
1738772421020961800,11.6349619140625,-0.0036196518018841743,-0.015460019460320471,0.006571974256102112
1738772421030952700,11.64495263671875,-0.02859013466835022,-0.020552958685159682,0.0027631682595223536
1738772421040943900,11.65494384765625,0.0029801848545670507,-0.0018470891714096069,0.007144746913312701
1738772421050934800,11.664934814453124,0.0015878537133336066,-0.019342998373508453,0.007288981114525813
1738772421060925700,11.67492578125,0.004315817372500896,-0.01635901412665844,-0.002801498111191904
1738772421070916600,11.68491650390625,-0.005077741655707359,-0.002900397616624832,0.009166656649622018
1738772421080908800,11.69490869140625,-0.03122515934705734,-0.015779752933979034,-0.005310232954041566
1738772421090899700,11.704899658203125,0.011232172632217407,-0.019959084445238112,0.0019099209933847304
1738772421100890600,11.714890625,-0.003020516864955425,-0.01755494591295719,-0.014428498155227861
1738772421110881800,11.7248818359375,-0.0081759999319911,-0.018774258574843404,-0.009959107931010657
