time,seconds_elapsed,z,y,x
1738772409411197700,0.02519775390625,-0.2554168701171875,-0.9680633544921875,-0.0012054443359375
1738772409421188900,0.03518896484375,-0.254974365234375,-0.968658447265625,-0.0016326904296875
1738772409431180800,0.045180908203125,-0.255859375,-0.9695587158203125,-0.000091552734375
1738772409441171700,0.055171630859375,-0.253936767578125,-0.9670562744140625,0.00067138671875
1738772409451163000,0.065162841796875,-0.2553558349609375,-0.968994140625,0.0006561279296875
1738772409461153800,0.07515380859375,-0.2554168701171875,-0.968994140625,-0.0015411376953125
1738772409471145700,0.085145751953125,-0.25323486328125,-0.9686126708984375,-0.0009307861328125
1738772409481137000,0.095136962890625,-0.254150390625,-0.9690399169921875,0.0000762939453125
1738772409491127800,0.1051279296875,-0.2563018798828125,-0.968170166015625,-0.0005950927734375
1738772409501118700,0.11511865234375,-0.255401611328125,-0.96990966796875,-0.0006256103515625
1738772409511110000,0.12510986328125,-0.2543182373046875,-0.9672393798828125,0.0007171630859375
1738772409521101800,0.135101806640625,-0.2563934326171875,-0.96728515625,0.00048828125
1738772409531092700,0.1450927734375,-0.2538909912109375,-0.9676666259765625,-0.0005340576171875
1738772409541084000,0.155083984375,-0.2559356689453125,-0.9680023193359375,0.000091552734375
1738772409551074800,0.16507470703125,-0.2554779052734375,-0.9678955078125,-0.0000762939453125
1738772409561065700,0.175065673828125,-0.2524871826171875,-0.9679107666015625,0.0001983642578125
1738772409571058000,0.185057861328125,-0.2537841796875,-0.968170166015625,0.0005645751953125
1738772409581048800,0.195048828125,-0.2551727294921875,-0.9681549072265625,-0.001068115234375
1738772409591039700,0.205039794921875,-0.2537689208984375,-0.9682769775390625,-0.000762939453125
1738772409601031000,0.215031005859375,-0.2550506591796875,-0.9680633544921875,0.0000152587890625
1738772409611021800,0.225021728515625,-0.256988525390625,-0.969268798828125,-0.000732421875
1738772409621013800,0.235013671875,-0.253997802734375,-0.9700469970703125,-0.0003204345703125
1738772409631005000,0.2450048828125,-0.253265380859375,-0.9691162109375,0.000946044921875
1738772409640995800,0.254995849609375,-0.2557373046875,-0.9691162109375,0.00079345703125
1738772409650986800,0.26498681640625,-0.25653076171875,-0.968719482421875,-0.0002593994140625
1738772409660978000,0.27497802734375,-0.2539215087890625,-0.968902587890625,-0.000640869140625
1738772409670969600,0.284969482421875,-0.2548980712890625,-0.9688568115234375,-0.0009765625
1738772409680960800,0.294960693359375,-0.2552490234375,-0.9695892333984375,-0.0007781982421875
1738772409690952000,0.304951904296875,-0.2550048828125,-0.96844482421875,-0.001251220703125
1738772409700942800,0.31494287109375,-0.2557220458984375,-0.969573974609375,-0.000213623046875
1738772409710933800,0.324933837890625,-0.2567901611328125,-0.9690093994140625,0.000274658203125
1738772409720925700,0.33492578125,-0.2552490234375,-0.96795654296875,-0.0007171630859375
1738772409730916900,0.344916748046875,-0.2537384033203125,-0.9683990478515625,-0.0005950927734375
1738772409740907800,0.35490771484375,-0.255401611328125,-0.9677886962890625,-0.00018310546875
1738772409750899000,0.36489892578125,-0.2548370361328125,-0.9693756103515625,0.0000762939453125
1738772409760889900,0.374889892578125,-0.2545013427734375,-0.96929931640625,-0.00006103515625
1738772409770881500,0.384881591796875,-0.2546234130859375,-0.968017578125,-0.0001983642578125
1738772409780872700,0.394872802734375,-0.2542724609375,-0.9696044921875,0.000457763671875
1738772409790864000,0.40486376953125,-0.2568359375,-0.9681549072265625,0.00054931640625
1738772409800854800,0.414854736328125,-0.2567291259765625,-0.9692230224609375,-0.00140380859375
1738772409810846000,0.424845947265625,-0.2543182373046875,-0.96875,-0.0011444091796875
1738772409820837600,0.434837646484375,-0.2553558349609375,-0.9688873291015625,-0.0000457763671875
1738772409830828500,0.44482861328125,-0.25628662109375,-0.9684906005859375,0.00067138671875
1738772409840819700,0.45481982421875,-0.2539520263671875,-0.96856689453125,0.0008087158203125
1738772409850811000,0.464810791015625,-0.2547607421875,-0.968414306640625,-0.0000457763671875
1738772409860801800,0.4748017578125,-0.254364013671875,-0.967987060546875,0.00018310546875
1738772409870793700,0.484793701171875,-0.253814697265625,-0.9683074951171875,-0.0005340576171875
1738772409880784600,0.49478466796875,-0.254119873046875,-0.968658447265625,0.000244140625
1738772409890775800,0.50477587890625,-0.2539825439453125,-0.96881103515625,0.0009002685546875
1738772409900767000,0.51476708984375,-0.2559814453125,-0.9683685302734375,0.000396728515625
1738772409910758700,0.524758544921875,-0.25537109375,-0.9682159423828125,-0.000244140625
1738772409920749600,0.53474951171875,-0.2549896240234375,-0.9690704345703125,-0.0003814697265625
1738772409930740700,0.54474072265625,-0.2559051513671875,-0.9691925048828125,0.0009002685546875
1738772409940731600,0.554731689453125,-0.25653076171875,-0.9689178466796875,0.001434326171875
1738772409950722800,0.564722900390625,-0.2557373046875,-0.9676055908203125,-0.0007171630859375
1738772409960714800,0.57471484375,-0.2539825439453125,-0.9687652587890625,0.0002288818359375
1738772409970705700,0.58470556640625,-0.2549285888671875,-0.9686126708984375,0.00054931640625
1738772409980696600,0.594696533203125,-0.2552947998046875,-0.9692840576171875,-0.0016632080078125
1738772409990687700,0.604687744140625,-0.253204345703125,-0.969207763671875,-0.0010833740234375
1738772410000678700,0.6146787109375,-0.2526397705078125,-0.968841552734375,-0.00103759765625
1738772410010670600,0.624670654296875,-0.2557830810546875,-0.968841552734375,-0.000823974609375
1738772410020661800,0.634661865234375,-0.255889892578125,-0.96832275390625,-0.0009613037109375
1738772410030652700,0.644652587890625,-0.25469970703125,-0.9691925048828125,-0.0013580322265625
1738772410040643600,0.6546435546875,-0.253753662109375,-0.9677886962890625,-0.0026397705078125
1738772410050634800,0.664634765625,-0.2554168701171875,-0.9682464599609375,-0.0015869140625
1738772410060626700,0.674626708984375,-0.256805419921875,-0.968536376953125,-0.000152587890625
1738772410070617600,0.68461767578125,-0.2547454833984375,-0.96795654296875,0.00006103515625
1738772410080608800,0.69460888671875,-0.256195068359375,-0.968292236328125,-0.00067138671875
1738772410090599700,0.704599609375,-0.255950927734375,-0.9677886962890625,-0.0026702880859375
1738772410100590600,0.714590576171875,-0.2532501220703125,-0.96844482421875,-0.0019073486328125
1738772410110582800,0.724582763671875,-0.2537384033203125,-0.9684906005859375,-0.0012359619140625
1738772410120573700,0.73457373046875,-0.255859375,-0.9697113037109375,0.0028533935546875
1738772410130564600,0.744564697265625,-0.2574920654296875,-0.96832275390625,0.0012359619140625
1738772410140555800,0.7545556640625,-0.2522430419921875,-0.968048095703125,-0.003082275390625
1738772410150546700,0.764546630859375,-0.2520751953125,-0.9684906005859375,-0.001678466796875
1738772410160538600,0.77453857421875,-0.2586517333984375,-0.968658447265625,0.001220703125
1738772410170529800,0.78452978515625,-0.2560882568359375,-0.9687957763671875,0.00128173828125
1738772410180520700,0.794520751953125,-0.252960205078125,-0.969268798828125,-0.0008697509765625
1738772410190511600,0.80451171875,-0.2556610107421875,-0.9680938720703125,-0.0027618408203125
1738772410200502500,0.81450244140625,-0.256134033203125,-0.9681243896484375,-0.0012054443359375
1738772410210494700,0.82449462890625,-0.254119873046875,-0.9692535400390625,0.00042724609375
1738772410220485600,0.834485595703125,-0.2552642822265625,-0.9692230224609375,0.0008697509765625
1738772410230476800,0.844476806640625,-0.255706787109375,-0.9676513671875,0.0001068115234375
1738772410240467700,0.8544677734375,-0.2530364990234375,-0.9691619873046875,-0.0003204345703125
1738772410250458600,0.864458740234375,-0.2545623779296875,-0.969573974609375,-0.001495361328125
1738772410260450800,0.874450927734375,-0.2546234130859375,-0.968475341796875,-0.001312255859375
1738772410270441200,0.884441162109375,-0.25439453125,-0.96807861328125,-0.0014190673828125
1738772410280432400,0.894432373046875,-0.2545166015625,-0.96746826171875,-0.0005340576171875
1738772410290423300,0.90442333984375,-0.2546234130859375,-0.968414306640625,-0.0004119873046875
1738772410300415500,0.91441552734375,-0.255096435546875,-0.9686431884765625,-0.0002288818359375
1738772410310406400,0.924406494140625,-0.2551727294921875,-0.9683990478515625,0.000701904296875
1738772410320397300,0.934397216796875,-0.256072998046875,-0.969512939453125,-0.00152587890625
1738772410330388200,0.94438818359375,-0.254425048828125,-0.967803955078125,-0.0005035400390625
1738772410340379400,0.95437939453125,-0.25531005859375,-0.9686279296875,-0.0013580322265625
1738772410350371300,0.964371337890625,-0.25408935546875,-0.9683685302734375,-0.0009613037109375
1738772410360362500,0.974362548828125,-0.25592041015625,-0.9688568115234375,-0.0013580322265625
1738772410370353400,0.984353515625,-0.2569580078125,-0.968109130859375,-0.0009307861328125
1738772410380344300,0.99434423828125,-0.256072998046875,-0.96868896484375,0.0003204345703125
1738772410390335200,1.004335205078125,-0.2516937255859375,-0.9679412841796875,0.001251220703125
1738772410400327400,1.014327392578125,-0.25811767578125,-0.9680023193359375,-0.001922607421875
1738772410410318300,1.024318359375,-0.2571563720703125,-0.9689788818359375,-0.0047607421875
1738772410420309200,1.034309326171875,-0.248291015625,-0.9685516357421875,-0.0001220703125
1738772410430300400,1.044300537109375,-0.2624969482421875,-0.968658447265625,0.00115966796875
1738772410440291300,1.054291259765625,-0.2556610107421875,-0.969879150390625,0.00042724609375
1738772410450283500,1.064283447265625,-0.250701904296875,-0.96807861328125,-0.002716064453125
1738772410460274400,1.0742744140625,-0.2548980712890625,-0.96826171875,-0.0020751953125
1738772410470265300,1.084265380859375,-0.255950927734375,-0.968658447265625,0.0006866455078125
1738772410480256300,1.09425634765625,-0.2572174072265625,-0.9687347412109375,-0.00048828125
1738772410490247400,1.104247314453125,-0.2526397705078125,-0.96795654296875,0.0011749267578125
1738772410500239400,1.1142392578125,-0.254058837890625,-0.96826171875,-0.00299072265625
1738772410510230300,1.124230224609375,-0.2540283203125,-0.9689788818359375,-0.000244140625
1738772410520221400,1.134221435546875,-0.257568359375,-0.9706878662109375,0.000579833984375
1738772410530212400,1.14421240234375,-0.255828857421875,-0.9692535400390625,-0.000274658203125
1738772410540203300,1.154203369140625,-0.25244140625,-0.9687042236328125,-0.0006103515625
1738772410550195500,1.164195556640625,-0.254791259765625,-0.9685516357421875,-0.0002593994140625
1738772410560186400,1.174186279296875,-0.2570037841796875,-0.96881103515625,-0.00006103515625
1738772410570177300,1.18417724609375,-0.2559356689453125,-0.9691009521484375,0.000885009765625
1738772410580168400,1.19416845703125,-0.2557525634765625,-0.9686126708984375,0.000701904296875
1738772410590159400,1.204159423828125,-0.2557525634765625,-0.969146728515625,-0.000579833984375
1738772410600151300,1.2141513671875,-0.2531890869140625,-0.9697113037109375,0.00018310546875
1738772410610142500,1.224142578125,-0.2554931640625,-0.9679412841796875,-0.00006103515625
1738772410620133400,1.23413330078125,-0.2572479248046875,-0.96807861328125,-0.001556396484375
1738772410630124300,1.244124267578125,-0.2552337646484375,-0.9690399169921875,-0.000823974609375
1738772410640115500,1.254115478515625,-0.2542877197265625,-0.967742919921875,-0.0013885498046875
1738772410650107400,1.264107421875,-0.2557220458984375,-0.967864990234375,0.00030517578125
1738772410660098300,1.274098388671875,-0.25543212890625,-0.9674224853515625,-0.000335693359375
1738772410670089500,1.28408935546875,-0.25439453125,-0.9688720703125,-0.001007080078125
1738772410680080400,1.294080322265625,-0.2558135986328125,-0.9693603515625,-0.0001373291015625
1738772410690071300,1.3040712890625,-0.255462646484375,-0.9678497314453125,-0.00164794921875
1738772410700063500,1.3140634765625,-0.2538299560546875,-0.96875,-0.0005950927734375
1738772410710054400,1.324054443359375,-0.2562713623046875,-0.968841552734375,-0.00103759765625
1738772410720045300,1.33404541015625,-0.2548370361328125,-0.9687347412109375,-0.0008697509765625
1738772410730036500,1.344036376953125,-0.2545623779296875,-0.968658447265625,-0.0006103515625
1738772410740027400,1.35402734375,-0.255584716796875,-0.969146728515625,-0.0011749267578125
1738772410750019300,1.364019287109375,-0.2549591064453125,-0.9696044921875,-0.0007476806640625
1738772410760010500,1.374010498046875,-0.2550506591796875,-0.967864990234375,-0.0007476806640625
1738772410770001400,1.38400146484375,-0.255615234375,-0.969207763671875,0.000030517578125
1738772410779992300,1.393992431640625,-0.2557525634765625,-0.969268798828125,-0.001678466796875
1738772410789983500,1.4039833984375,-0.253662109375,-0.9676971435546875,-0.000946044921875
1738772410799975400,1.413975341796875,-0.2538299560546875,-0.9693603515625,0.0008544921875
1738772410809966300,1.42396630859375,-0.25604248046875,-0.9697723388671875,-0.00048828125
1738772410819957500,1.43395751953125,-0.2537841796875,-0.9669647216796875,-0.0001068115234375
1738772410829948400,1.443948486328125,-0.25482177734375,-0.968475341796875,-0.001190185546875
1738772410839939300,1.453939208984375,-0.255218505859375,-0.9672698974609375,0.00006103515625
1738772410849930500,1.463930419921875,-0.254119873046875,-0.9666290283203125,-0.0006103515625
1738772410859922400,1.47392236328125,-0.254913330078125,-0.96826171875,-0.0006103515625
1738772410869913300,1.483913330078125,-0.255126953125,-0.968994140625,-0.0001983642578125
1738772410879904500,1.493904541015625,-0.2558441162109375,-0.96929931640625,-0.00115966796875
1738772410889895400,1.5038955078125,-0.2546539306640625,-0.9684906005859375,0.00006103515625
1738772410899887400,1.513887451171875,-0.25555419921875,-0.9689178466796875,-0.00048828125
1738772410909878500,1.52387841796875,-0.2554473876953125,-0.967376708984375,-0.000732421875
1738772410919869400,1.533869384765625,-0.2560272216796875,-0.9674224853515625,-0.0005645751953125
1738772410929860400,1.5438603515625,-0.256256103515625,-0.969085693359375,0
1738772410939851500,1.5538515625,-0.2554473876953125,-0.9681396484375,0.000091552734375
1738772410949843500,1.563843505859375,-0.2559661865234375,-0.9696502685546875,-0.0009765625
1738772410959834400,1.57383447265625,-0.255218505859375,-0.9685211181640625,-0.001190185546875
1738772410969825500,1.583825439453125,-0.2555389404296875,-0.968292236328125,-0.0002593994140625
1738772410979816400,1.59381640625,-0.2551116943359375,-0.96905517578125,0.0004425048828125
1738772410989807400,1.603807373046875,-0.254425048828125,-0.96868896484375,-0.000518798828125
1738772410999798300,1.61379833984375,-0.255706787109375,-0.969024658203125,-0.0008087158203125
1738772411009790500,1.62379052734375,-0.25689697265625,-0.9680938720703125,-0.0010223388671875
1738772411019781400,1.633781494140625,-0.2554168701171875,-0.967803955078125,-0.002166748046875
1738772411029772500,1.6437724609375,-0.25506591796875,-0.9677581787109375,-0.00018310546875
1738772411039763500,1.653763427734375,-0.2550811767578125,-0.9676055908203125,-0.0004119873046875
1738772411049754400,1.66375439453125,-0.255523681640625,-0.9674530029296875,-0.00042724609375
1738772411059746600,1.67374658203125,-0.2550506591796875,-0.967132568359375,0.0003509521484375
1738772411069737500,1.683737548828125,-0.256317138671875,-0.969451904296875,0.00079345703125
1738772411079728400,1.693728271484375,-0.2542877197265625,-0.968841552734375,-0.0001373291015625
1738772411089719300,1.70371923828125,-0.2542877197265625,-0.9687042236328125,-0.0023651123046875
1738772411099710500,1.71371044921875,-0.254791259765625,-0.96881103515625,0.00030517578125
1738772411109702400,1.723702392578125,-0.25537109375,-0.9698028564453125,0.0005340576171875
1738772411119693600,1.733693603515625,-0.2537078857421875,-0.9681396484375,0.0001068115234375
1738772411129684500,1.7436845703125,-0.254425048828125,-0.9695281982421875,-0.000030517578125
1738772411139675400,1.75367529296875,-0.256103515625,-0.9692840576171875,0.0002593994140625
1738772411149666300,1.763666259765625,-0.25445556640625,-0.969451904296875,-0.001007080078125
1738772411159658500,1.773658447265625,-0.254730224609375,-0.9683685302734375,-0.001373291015625
1738772411169649400,1.7836494140625,-0.2573394775390625,-0.96807861328125,-0.0004730224609375
1738772411179640300,1.793640380859375,-0.2532958984375,-0.9680633544921875,-0.0015411376953125
1738772411189631500,1.803631591796875,-0.252349853515625,-0.96832275390625,-0.0003509521484375
1738772411199622400,1.813622314453125,-0.257080078125,-0.9685821533203125,-0.0001373291015625
1738772411209614600,1.823614501953125,-0.254913330078125,-0.9697418212890625,-0.0011749267578125
1738772411219605500,1.83360546875,-0.2542877197265625,-0.9687957763671875,0.0001983642578125
1738772411229596400,1.843596435546875,-0.25555419921875,-0.9691619873046875,-0.000457763671875
1738772411239587300,1.85358740234375,-0.253875732421875,-0.968170166015625,-0.0012664794921875
1738772411249578500,1.86357861328125,-0.2552337646484375,-0.9689788818359375,-0.00164794921875
1738772411259570400,1.8735703125,-0.255401611328125,-0.9695892333984375,-0.00042724609375
1738772411269561600,1.8835615234375,-0.254913330078125,-0.967681884765625,-0.00042724609375
1738772411279552500,1.893552490234375,-0.255645751953125,-0.9691314697265625,-0.0010986328125
1738772411289543400,1.90354345703125,-0.2547149658203125,-0.968414306640625,-0.0009002685546875
1738772411299534300,1.913534423828125,-0.2552642822265625,-0.968414306640625,-0.001068115234375
1738772411309526500,1.923526611328125,-0.2557830810546875,-0.969573974609375,-0.0009765625
1738772411319517400,1.933517333984375,-0.254913330078125,-0.9684600830078125,-0.0013885498046875
1738772411329508400,1.94350830078125,-0.2552337646484375,-0.9680633544921875,-0.0002899169921875
1738772411339499500,1.95349951171875,-0.2552642822265625,-0.969573974609375,-0.00091552734375
1738772411349490400,1.963490478515625,-0.2557373046875,-0.9688262939453125,-0.0003509521484375
1738772411359481300,1.9734814453125,-0.2546234130859375,-0.96917724609375,-0.00018310546875
1738772411369473500,1.9834736328125,-0.2557220458984375,-0.9689788818359375,-0.00091552734375
1738772411379464400,1.99346435546875,-0.2544403076171875,-0.9681549072265625,-0.0013275146484375
1738772411389455400,2.003455322265625,-0.2549285888671875,-0.967559814453125,0.000518798828125
1738772411399446500,2.013446533203125,-0.2552490234375,-0.9688720703125,-0.0008392333984375
1738772411409437400,2.0234375,-0.254913330078125,-0.9683837890625,-0.00115966796875
1738772411419429400,2.033429443359375,-0.2545318603515625,-0.9676513671875,0.0003204345703125
1738772411429420500,2.043420654296875,-0.255401611328125,-0.9681396484375,0.0001373291015625
1738772411439411500,2.053411376953125,-0.255859375,-0.9693450927734375,-0.000579833984375
1738772411449402400,2.06340234375,-0.256072998046875,-0.96875,-0.0011138916015625
1738772411459393500,2.0733935546875,-0.25390625,-0.968048095703125,-0.0003814697265625
1738772411469385500,2.083385498046875,-0.2548828125,-0.968170166015625,-0.0011138916015625
1738772411479376400,2.09337646484375,-0.257049560546875,-0.9692840576171875,-0.0005950927734375
1738772411489367600,2.103367431640625,-0.2535858154296875,-0.9691619873046875,0.0001983642578125
1738772411499358500,2.1133583984375,-0.25482177734375,-0.967926025390625,-0.00030517578125
1738772411509349400,2.123349365234375,-0.2566070556640625,-0.96875,-0.0020751953125
1738772411519341600,2.133341552734375,-0.255340576171875,-0.9686431884765625,0.0001678466796875
1738772411529332500,2.14333251953125,-0.254638671875,-0.969024658203125,0.0000457763671875
1738772411539323400,2.153323486328125,-0.256439208984375,-0.9697418212890625,-0.000244140625
1738772411549314600,2.163314453125,-0.2545013427734375,-0.9683074951171875,0.000335693359375
1738772411559305500,2.173305419921875,-0.2553558349609375,-0.9681549072265625,-0.0018157958984375
1738772411569297400,2.18329736328125,-0.25543212890625,-0.9676513671875,-0.0001068115234375
1738772411579288600,2.19328857421875,-0.2565155029296875,-0.9687347412109375,0.0016632080078125
1738772411589279500,2.203279541015625,-0.2548828125,-0.96893310546875,0.000030517578125
1738772411599270400,2.2132705078125,-0.25567626953125,-0.9680328369140625,-0.0008697509765625
1738772411609261600,2.223261474609375,-0.2549285888671875,-0.968841552734375,-0.00103759765625
1738772411619253500,2.23325341796875,-0.2547454833984375,-0.9683685302734375,-0.0019378662109375
1738772411629244400,2.243244384765625,-0.25408935546875,-0.9692840576171875,-0.0003204345703125
1738772411639235600,2.253235595703125,-0.2553863525390625,-0.968536376953125,-0.0000762939453125
1738772411649226500,2.2632265625,-0.2565765380859375,-0.96807861328125,-0.0008544921875
1738772411659217400,2.273217529296875,-0.2548065185546875,-0.968170166015625,-0.0002899169921875
1738772411669208600,2.28320849609375,-0.2540283203125,-0.968505859375,-0.0012054443359375
1738772411679200500,2.293200439453125,-0.2565765380859375,-0.969085693359375,-0.000640869140625
1738772411689191400,2.30319140625,-0.2561798095703125,-0.9686279296875,0.000030517578125
1738772411699182600,2.3131826171875,-0.2541351318359375,-0.9692230224609375,-0.000885009765625
1738772411709173500,2.323173583984375,-0.25384521484375,-0.9682769775390625,-0.0010223388671875
1738772411719164400,2.333164306640625,-0.25531005859375,-0.9676361083984375,-0.0022735595703125
1738772411729156600,2.343156494140625,-0.25537109375,-0.9691314697265625,0.0006561279296875
1738772411739147500,2.3531474609375,-0.2555389404296875,-0.9691619873046875,0.000640869140625
1738772411749138400,2.363138427734375,-0.2558746337890625,-0.96771240234375,-0.0011138916015625
1738772411759129600,2.373129638671875,-0.255157470703125,-0.9672698974609375,-0.0014190673828125
1738772411769120500,2.38312060546875,-0.2559356689453125,-0.9691162109375,-0.0010223388671875
1738772411779112400,2.393112548828125,-0.253936767578125,-0.9683990478515625,-0.000946044921875
1738772411789103600,2.403103515625,-0.2541046142578125,-0.96893310546875,-0.0016326904296875
1738772411799094500,2.413094482421875,-0.25445556640625,-0.9683380126953125,0.0005645751953125
1738772411809085400,2.42308544921875,-0.2550201416015625,-0.9696044921875,-0.0011749267578125
1738772411819076400,2.433076416015625,-0.254730224609375,-0.9687347412109375,-0.0013275146484375
1738772411829068500,2.443068603515625,-0.2567291259765625,-0.9676513671875,-0.0003204345703125
1738772411839059500,2.4530595703125,-0.2537841796875,-0.9679718017578125,-0.0008392333984375
1738772411849050600,2.463050537109375,-0.255279541015625,-0.9690399169921875,-0.001220703125
1738772411859041500,2.47304150390625,-0.2544097900390625,-0.9690093994140625,-0.0016937255859375
1738772411869032400,2.483032470703125,-0.253448486328125,-0.9685211181640625,-0.0007476806640625
1738772411879023400,2.4930234375,-0.255615234375,-0.9691162109375,-0.000213623046875
1738772411889015600,2.503015625,-0.2558441162109375,-0.967987060546875,0
1738772411899006500,2.51300634765625,-0.2547607421875,-0.967132568359375,-0.0020904541015625
1738772411908997400,2.522997314453125,-0.2552032470703125,-0.9672698974609375,-0.0012359619140625
1738772411918988500,2.532988525390625,-0.2564239501953125,-0.96875,-0.0007476806640625
1738772411928979500,2.5429794921875,-0.2549896240234375,-0.968505859375,0.0003662109375
1738772411938971400,2.552971435546875,-0.254638671875,-0.9689788818359375,-0.000030517578125
1738772411948962600,2.562962646484375,-0.2548370361328125,-0.968841552734375,-0.0021209716796875
1738772411958953500,2.572953369140625,-0.256072998046875,-0.9674835205078125,-0.001220703125
1738772411968944400,2.5829443359375,-0.2570037841796875,-0.9685211181640625,-0.00274658203125
1738772411978935600,2.592935546875,-0.2516632080078125,-0.9700775146484375,0.0004730224609375
1738772411988927500,2.602927490234375,-0.2547760009765625,-0.97021484375,0.011932373046875
1738772411998918400,2.61291845703125,-0.2736053466796875,-0.964080810546875,-0.002349853515625
1738772412008909600,2.62290966796875,-0.240509033203125,-0.968963623046875,-0.0121917724609375
1738772412018900500,2.632900390625,-0.2361602783203125,-0.970703125,0.000213623046875
1738772412028891400,2.642891357421875,-0.28204345703125,-0.9677581787109375,0.005706787109375
1738772412038883300,2.65288330078125,-0.26605224609375,-0.9669036865234375,0.0036773681640625
1738772412048874500,2.66287451171875,-0.2331085205078125,-0.9691162109375,-0.0058441162109375
1738772412058865400,2.672865478515625,-0.248077392578125,-0.9705047607421875,-0.0037841796875
1738772412068856600,2.682856689453125,-0.2767791748046875,-0.9683074951171875,-0.0010986328125
1738772412078847500,2.692847412109375,-0.2512664794921875,-0.9686737060546875,0.002197265625
1738772412088839200,2.702839111328125,-0.2402191162109375,-0.967926025390625,0.0020599365234375
1738772412098830300,2.712830322265625,-0.2664794921875,-0.9691619873046875,-0.002899169921875
1738772412108821500,2.722821533203125,-0.2558746337890625,-0.969207763671875,-0.003204345703125
1738772412118812400,2.7328125,-0.2431182861328125,-0.9679718017578125,0.00238037109375
1738772412128803600,2.742803466796875,-0.2640838623046875,-0.9674224853515625,0.00494384765625
1738772412138794500,2.75279443359375,-0.2593994140625,-0.96875,-0.0027618408203125
1738772412148786400,2.762786376953125,-0.2426605224609375,-0.9687652587890625,-0.0057220458984375
1738772412158777600,2.772777587890625,-0.258941650390625,-0.9676055908203125,0.002044677734375
1738772412168768500,2.7827685546875,-0.26214599609375,-0.9686279296875,0.0025787353515625
1738772412178759400,2.792759521484375,-0.247406005859375,-0.9687957763671875,-0.0027313232421875
1738772412188750600,2.80275048828125,-0.257171630859375,-0.9690704345703125,-0.001129150390625
1738772412198742300,2.8127421875,-0.2567138671875,-0.9677886962890625,0.0014495849609375
1738772412208733400,2.8227333984375,-0.2543182373046875,-0.968170166015625,-0.0063934326171875
1738772412218724600,2.832724609375,-0.24591064453125,-0.9698944091796875,0.0017547607421875
1738772412228715500,2.842715576171875,-0.268829345703125,-0.9665985107421875,0.0054779052734375
1738772412238706400,2.85270654296875,-0.2573089599609375,-0.9675140380859375,-0.0031280517578125
1738772412248698400,2.862698486328125,-0.2389678955078125,-0.9694061279296875,-0.0044708251953125
1738772412258689300,2.872689208984375,-0.2617950439453125,-0.9689483642578125,-0.00152587890625
1738772412268680400,2.882680419921875,-0.260833740234375,-0.968109130859375,0.0039520263671875
1738772412278671600,2.892671630859375,-0.2551116943359375,-0.9681854248046875,-0.0043182373046875
1738772412288662800,2.902662841796875,-0.2437591552734375,-0.97003173828125,-0.0007171630859375
1738772412298654500,2.912654541015625,-0.262176513671875,-0.9679412841796875,0.001312255859375
1738772412308645600,2.922645751953125,-0.26287841796875,-0.9680938720703125,-0.0020904541015625
1738772412318636500,2.932636474609375,-0.23956298828125,-0.9689788818359375,0.00030517578125
1738772412328627700,2.942627685546875,-0.25775146484375,-0.9680023193359375,0.001007080078125
1738772412338618600,2.95261865234375,-0.26885986328125,-0.968231201171875,0.00347900390625
1738772412348609800,2.96260986328125,-0.24761962890625,-0.968536376953125,-0.0030517578125
1738772412358601500,2.9726015625,-0.2449188232421875,-0.9686737060546875,0.0003814697265625
1738772412368592400,2.98259228515625,-0.2679901123046875,-0.9668731689453125,-0.0005035400390625
1738772412378583600,2.99258349609375,-0.2527313232421875,-0.9696197509765625,-0.0016021728515625
1738772412388574700,3.00257470703125,-0.246917724609375,-0.9691925048828125,0.0008544921875
1738772412398565600,3.012565673828125,-0.26220703125,-0.9678802490234375,0.0012664794921875
1738772412408557600,3.0225576171875,-0.2540130615234375,-0.9688568115234375,-0.001434326171875
1738772412418548500,3.032548583984375,-0.248260498046875,-0.969573974609375,-0.0010986328125
1738772412428539400,3.042539306640625,-0.262237548828125,-0.96734619140625,0.0013275146484375
1738772412438530600,3.052530517578125,-0.25787353515625,-0.96917724609375,-0.0004119873046875
1738772412448521700,3.062521728515625,-0.24700927734375,-0.968353271484375,-0.003448486328125
1738772412458513700,3.072513671875,-0.2556304931640625,-0.9678497314453125,-0.00146484375
1738772412468504600,3.082504638671875,-0.2623748779296875,-0.9687042236328125,0.001129150390625
1738772412478495500,3.09249560546875,-0.2499847412109375,-0.9676513671875,-0.0004425048828125
1738772412488486700,3.102486572265625,-0.2526397705078125,-0.9671783447265625,-0.001556396484375
1738772412498477800,3.112477783203125,-0.2616119384765625,-0.967926025390625,0.0015411376953125
1738772412508468700,3.12246875,-0.2526702880859375,-0.969207763671875,-0.0014190673828125
1738772412518460400,3.13246044921875,-0.2499847412109375,-0.9669647216796875,-0.002777099609375
1738772412528451600,3.14245166015625,-0.257720947265625,-0.968597412109375,0.0001220703125
1738772412538442500,3.1524423828125,-0.2572479248046875,-0.9690093994140625,0.0004425048828125
1738772412548433700,3.16243359375,-0.2536163330078125,-0.968017578125,-0.0000762939453125
1738772412558424800,3.1724248046875,-0.2538299560546875,-0.9680328369140625,-0.001739501953125
1738772412568416500,3.18241650390625,-0.2544403076171875,-0.968505859375,-0.0003204345703125
1738772412578407400,3.192407470703125,-0.254608154296875,-0.96795654296875,-0.001983642578125
1738772412588398600,3.202398681640625,-0.2553253173828125,-0.9693756103515625,0.0009765625
1738772412598389500,3.212389404296875,-0.2546844482421875,-0.968841552734375,0.00103759765625
1738772412608380700,3.222380615234375,-0.2559967041015625,-0.9698486328125,0.0005950927734375
1738772412618372600,3.23237255859375,-0.255767822265625,-0.96832275390625,-0.0009765625
1738772412628363500,3.242363525390625,-0.254669189453125,-0.968231201171875,0.000396728515625
1738772412638354400,3.2523544921875,-0.2543182373046875,-0.96820068359375,-0.000030517578125
1738772412648345600,3.262345703125,-0.2564544677734375,-0.969085693359375,-0.0003509521484375
1738772412658336500,3.27233642578125,-0.2564697265625,-0.9681549072265625,0.0006866455078125
1738772412668327700,3.28232763671875,-0.2561798095703125,-0.9687347412109375,-0.0001983642578125
1738772412678319600,3.292319580078125,-0.2535400390625,-0.9685821533203125,-0.002044677734375
1738772412688310500,3.302310546875,-0.25390625,-0.9679718017578125,0.000823974609375
1738772412698301400,3.312301513671875,-0.2589569091796875,-0.9681396484375,0.000762939453125
1738772412708292600,3.322292724609375,-0.2545166015625,-0.967376708984375,-0.00091552734375
1738772412718283800,3.33228369140625,-0.254425048828125,-0.9687652587890625,-0.0011138916015625
1738772412728275500,3.342275390625,-0.255645751953125,-0.9692535400390625,0.001007080078125
1738772412738266600,3.3522666015625,-0.25567626953125,-0.967803955078125,-0.0012359619140625
1738772412748257500,3.362257568359375,-0.2542572021484375,-0.9676971435546875,0.000030517578125
1738772412758248400,3.37224853515625,-0.253875732421875,-0.9672088623046875,-0.000335693359375
1738772412768239600,3.382239501953125,-0.2561492919921875,-0.9687347412109375,-0.0010986328125
1738772412778231600,3.3922314453125,-0.2534332275390625,-0.9687957763671875,-0.000274658203125
1738772412788222500,3.402222412109375,-0.2548675537109375,-0.9685821533203125,-0.0007171630859375
1738772412798213600,3.412213623046875,-0.2559967041015625,-0.9677581787109375,0.0011749267578125
1738772412808204500,3.42220458984375,-0.255157470703125,-0.9679107666015625,-0.0002593994140625
1738772412818195500,3.432195556640625,-0.255126953125,-0.9686431884765625,-0.00006103515625
1738772412828186600,3.4421865234375,-0.2539215087890625,-0.96929931640625,-0.0015716552734375
1738772412838178600,3.452178466796875,-0.25396728515625,-0.9694976806640625,-0.00048828125
1738772412848169500,3.46216943359375,-0.2552947998046875,-0.96844482421875,-0.0016021728515625
1738772412858160600,3.47216064453125,-0.25531005859375,-0.968414306640625,0
1738772412868151600,3.482151611328125,-0.2546844482421875,-0.96856689453125,-0.0002593994140625
1738772412878142700,3.492142822265625,-0.255340576171875,-0.9690093994140625,-0.0007781982421875
1738772412888134700,3.502134765625,-0.2543182373046875,-0.9698028564453125,-0.0009002685546875
1738772412898125600,3.51212548828125,-0.2557830810546875,-0.96893310546875,0.000030517578125
1738772412908116500,3.522116455078125,-0.25628662109375,-0.968017578125,0.00030517578125
1738772412918107400,3.532107421875,-0.25445556640625,-0.9676055908203125,-0.0001678466796875
1738772412928098600,3.5420986328125,-0.25469970703125,-0.96856689453125,-0.0009002685546875
1738772412938090500,3.552090576171875,-0.2544097900390625,-0.9686737060546875,-0.0014190673828125
1738772412948081700,3.56208154296875,-0.252838134765625,-0.96832275390625,-0.0008697509765625
1738772412958072600,3.572072509765625,-0.257232666015625,-0.9691009521484375,-0.0002288818359375
1738772412968063500,3.5820634765625,-0.2561492919921875,-0.968353271484375,-0.0005645751953125
1738772412978054400,3.592054443359375,-0.2548675537109375,-0.9681243896484375,-0.000640869140625
1738772412988046600,3.602046630859375,-0.2574462890625,-0.96905517578125,-0.00146484375
1738772412998037500,3.61203759765625,-0.2538604736328125,-0.9691314697265625,-0.000213623046875
1738772413008028400,3.6220283203125,-0.2536773681640625,-0.9685516357421875,-0.001312255859375
1738772413018019600,3.63201953125,-0.256103515625,-0.9690093994140625,-0.0006561279296875
1738772413028010500,3.642010498046875,-0.255035400390625,-0.9693603515625,-0.0001068115234375
1738772413038001700,3.652001708984375,-0.2531890869140625,-0.9688262939453125,-0.0001068115234375
1738772413047993600,3.66199365234375,-0.2566986083984375,-0.9693756103515625,0
1738772413057984500,3.671984619140625,-0.2558441162109375,-0.968109130859375,-0.000457763671875
1738772413067975400,3.681975341796875,-0.2557220458984375,-0.96917724609375,-0.0009765625
1738772413077966600,3.691966552734375,-0.2556915283203125,-0.967926025390625,-0.000152587890625
1738772413087957500,3.70195751953125,-0.252349853515625,-0.968902587890625,-0.000518798828125
1738772413097949400,3.711949462890625,-0.2542572021484375,-0.96868896484375,-0.0016937255859375
1738772413107940600,3.721940673828125,-0.2566070556640625,-0.969573974609375,-0.0009613037109375
1738772413117931500,3.731931640625,-0.2537384033203125,-0.96832275390625,0.000274658203125
1738772413127922400,3.74192236328125,-0.255462646484375,-0.9679412841796875,-0.000396728515625
1738772413137913600,3.75191357421875,-0.25372314453125,-0.96832275390625,0.00048828125
1738772413147905500,3.761905517578125,-0.255279541015625,-0.968658447265625,0.000030517578125
1738772413157896400,3.771896484375,-0.2558746337890625,-0.9687042236328125,-0.0009765625
1738772413167887600,3.7818876953125,-0.253326416015625,-0.9677886962890625,-0.0001983642578125
1738772413177878500,3.79187841796875,-0.2561187744140625,-0.9678802490234375,-0.0012664794921875
1738772413187869400,3.801869384765625,-0.254547119140625,-0.969451904296875,-0.0003814697265625
1738772413197860600,3.811860595703125,-0.2537384033203125,-0.9695281982421875,0.000640869140625
1738772413207852500,3.8218525390625,-0.255218505859375,-0.96917724609375,-0.0004730224609375
1738772413217843500,3.831843505859375,-0.255950927734375,-0.9683074951171875,0.000579833984375
1738772413227834600,3.841834716796875,-0.2554779052734375,-0.967926025390625,-0.0005950927734375
1738772413237825500,3.851825439453125,-0.25372314453125,-0.9681396484375,-0.00128173828125
1738772413247816400,3.86181640625,-0.25537109375,-0.967681884765625,-0.000091552734375
1738772413257808600,3.87180859375,-0.2559967041015625,-0.966766357421875,-0.0013275146484375
1738772413267799600,3.881799560546875,-0.2521209716796875,-0.968597412109375,0.0004119873046875
1738772413277791500,3.89179150390625,-0.2555389404296875,-0.9680938720703125,0.0006561279296875
1738772413287782700,3.90178271484375,-0.2576446533203125,-0.96783447265625,0.0006103515625
1738772413297773600,3.911773681640625,-0.2538604736328125,-0.967926025390625,-0.00146484375
1738772413307764500,3.921764404296875,-0.2555694580078125,-0.9689483642578125,-0.0008392333984375
1738772413317756700,3.931756591796875,-0.256195068359375,-0.96893310546875,-0.001434326171875
1738772413327747600,3.94174755859375,-0.2551422119140625,-0.968048095703125,-0.00146484375
1738772413337738500,3.951738525390625,-0.2552032470703125,-0.9678802490234375,0.00103759765625
1738772413347730700,3.961730712890625,-0.2560577392578125,-0.968048095703125,0.0001068115234375
1738772413357721600,3.9717216796875,-0.2542724609375,-0.96807861328125,-0.0004119873046875
1738772413367712800,3.981712646484375,-0.2543792724609375,-0.9698944091796875,-0.0004119873046875
1738772413377703700,3.99170361328125,-0.2544403076171875,-0.9684600830078125,0.00042724609375
1738772413387694600,4.001694580078125,-0.2562103271484375,-0.96807861328125,-0.000762939453125
1738772413397685500,4.011685546875,-0.2532501220703125,-0.96868896484375,0.00042724609375
1738772413407677700,4.021677734375,-0.2546539306640625,-0.9685821533203125,-0.000579833984375
1738772413417668600,4.031668701171875,-0.2551727294921875,-0.96832275390625,-0.000946044921875
1738772413427659500,4.041659423828125,-0.2534027099609375,-0.9679412841796875,0.000152587890625
1738772413437650700,4.051650634765625,-0.2552490234375,-0.9685821533203125,0.0010986328125
1738772413447641600,4.0616416015625,-0.2550811767578125,-0.968902587890625,0.0005340576171875
1738772413457633800,4.0716337890625,-0.254608154296875,-0.9700927734375,-0.000762939453125
1738772413467624700,4.081624755859375,-0.256103515625,-0.9673004150390625,-0.000732421875
1738772413477615600,4.09161572265625,-0.2535858154296875,-0.96844482421875,-0.0013885498046875
1738772413487606500,4.1016064453125,-0.2541961669921875,-0.968170166015625,0.0012359619140625
1738772413497597700,4.11159765625,-0.2553558349609375,-0.967742919921875,0.000579833984375
1738772413507589600,4.121589599609375,-0.254852294921875,-0.9680633544921875,-0.00091552734375
1738772413517580500,4.13158056640625,-0.2557220458984375,-0.96966552734375,-0.000732421875
1738772413527571700,4.14157177734375,-0.25408935546875,-0.969268798828125,0.0007171630859375
1738772413537562600,4.151562744140625,-0.25506591796875,-0.96893310546875,-0.000518798828125
1738772413547553500,4.161553466796875,-0.2550048828125,-0.9682464599609375,0.0003509521484375
1738772413557544700,4.171544677734375,-0.253662109375,-0.96875,-0.000396728515625
1738772413567536600,4.18153662109375,-0.255096435546875,-0.9686737060546875,0.0001220703125
1738772413577527600,4.191527587890625,-0.2562255859375,-0.968841552734375,-0.0003509521484375
1738772413587518700,4.201518798828125,-0.25518798828125,-0.9683685302734375,-0.00140380859375
1738772413597509600,4.211509521484375,-0.2551727294921875,-0.9665679931640625,-0.000030517578125
1738772413607500500,4.22150048828125,-0.2549285888671875,-0.969207763671875,-0.002105712890625
1738772413617492700,4.23149267578125,-0.2541351318359375,-0.969512939453125,-0.0005950927734375
1738772413627483600,4.241483642578125,-0.256622314453125,-0.9685516357421875,-0.0001220703125
1738772413637474600,4.251474609375,-0.255126953125,-0.968841552734375,-0.000457763671875
1738772413647465700,4.2614658203125,-0.2540130615234375,-0.9685211181640625,-0.0003814697265625
1738772413657456600,4.27145654296875,-0.2549591064453125,-0.9681854248046875,-0.0003509521484375
1738772413667448600,4.281448486328125,-0.25445556640625,-0.9677276611328125,-0.001251220703125
1738772413677439700,4.291439697265625,-0.254913330078125,-0.9689178466796875,-0.000152587890625
1738772413687430700,4.3014306640625,-0.2553558349609375,-0.96783447265625,-0.000579833984375
1738772413697421600,4.311421630859375,-0.25396728515625,-0.96929931640625,-0.0011444091796875
1738772413707412700,4.321412841796875,-0.254180908203125,-0.9677734375,-0.0008087158203125
1738772413717403600,4.331403564453125,-0.255035400390625,-0.96795654296875,0.0001068115234375
1738772413727395600,4.3413955078125,-0.255279541015625,-0.9683990478515625,-0.0009307861328125
1738772413737386800,4.35138671875,-0.2576751708984375,-0.969512939453125,-0.0013427734375
1738772413747377700,4.361377685546875,-0.2545318603515625,-0.9690704345703125,-0.0013275146484375
1738772413757368600,4.37136865234375,-0.2524566650390625,-0.969818115234375,0.0001068115234375
1738772413767359700,4.38135986328125,-0.2541351318359375,-0.96929931640625,-0.0011444091796875
1738772413777351700,4.3913515625,-0.254119873046875,-0.967132568359375,-0.00115966796875
1738772413787342600,4.401342529296875,-0.254852294921875,-0.9681243896484375,0.0003814697265625
1738772413797333800,4.411333740234375,-0.255706787109375,-0.9683685302734375,-0.00042724609375
1738772413807324700,4.42132470703125,-0.253326416015625,-0.9688568115234375,-0.00030517578125
1738772413817315600,4.431315673828125,-0.25469970703125,-0.96881103515625,-0.001556396484375
1738772413827307800,4.441307861328125,-0.25714111328125,-0.9688873291015625,0.00054931640625
1738772413837298700,4.451298583984375,-0.25433349609375,-0.9679412841796875,-0.0011444091796875
1738772413847289600,4.46128955078125,-0.254425048828125,-0.968963623046875,-0.0002288818359375
1738772413857280800,4.47128076171875,-0.2565155029296875,-0.9688720703125,-0.0000457763671875
1738772413867271700,4.481271728515625,-0.253662109375,-0.9682159423828125,-0.0012664794921875
1738772413877262600,4.4912626953125,-0.2564697265625,-0.96826171875,-0.0000457763671875
1738772413887254800,4.5012548828125,-0.256866455078125,-0.9685211181640625,-0.0000762939453125
1738772413897245700,4.51124560546875,-0.2545318603515625,-0.968505859375,-0.0006103515625
1738772413907236600,4.521236572265625,-0.2540283203125,-0.96795654296875,-0.0007476806640625
1738772413917227500,4.5312275390625,-0.2545166015625,-0.969207763671875,0.0007781982421875
1738772413927218700,4.54121875,-0.2547454833984375,-0.969085693359375,0.0009307861328125
1738772413937210600,4.551210693359375,-0.2558746337890625,-0.9686431884765625,-0.0009765625
1738772413947201800,4.561201904296875,-0.2542877197265625,-0.968353271484375,-0.002166748046875
1738772413957192700,4.571192626953125,-0.2525482177734375,-0.970001220703125,0.0006866455078125
1738772413967183600,4.58118359375,-0.25738525390625,-0.9684906005859375,0.0003204345703125
1738772413977174500,4.591174560546875,-0.2553863525390625,-0.966796875,-0.0007171630859375
1738772413987166700,4.601166748046875,-0.253875732421875,-0.9685516357421875,-0.000030517578125
1738772413997157600,4.61115771484375,-0.255828857421875,-0.9693603515625,0.001129150390625
1738772414007148500,4.6211484375,-0.255706787109375,-0.9689178466796875,-0.00054931640625
1738772414017139700,4.6311396484375,-0.2551116943359375,-0.9684600830078125,-0.00213623046875
1738772414027130600,4.641130615234375,-0.2553863525390625,-0.96868896484375,0.000762939453125
1738772414037122800,4.651122802734375,-0.2564849853515625,-0.96905517578125,0.000091552734375
1738772414047113700,4.66111376953125,-0.2547607421875,-0.9688720703125,-0.0015716552734375
1738772414057104600,4.671104736328125,-0.254608154296875,-0.9698486328125,-0.0000762939453125
1738772414067095600,4.681095458984375,-0.2590789794921875,-0.968841552734375,-0.0006103515625
1738772414077086700,4.691086669921875,-0.2541961669921875,-0.968414306640625,-0.0001220703125
1738772414087078700,4.70107861328125,-0.25408935546875,-0.9693450927734375,-0.00018310546875
1738772414097069600,4.711069580078125,-0.255859375,-0.968475341796875,0.0003204345703125
1738772414107060700,4.721060791015625,-0.25567626953125,-0.9679412841796875,0.0008697509765625
1738772414117051600,4.7310517578125,-0.256103515625,-0.968658447265625,0.000152587890625
1738772414127042600,4.74104248046875,-0.2572174072265625,-0.968780517578125,-0.000946044921875
1738772414137033700,4.75103369140625,-0.253875732421875,-0.969146728515625,-0.0003814697265625
1738772414147025700,4.761025634765625,-0.25579833984375,-0.96923828125,-0.0004119873046875
1738772414157016600,4.7710166015625,-0.2553253173828125,-0.9676666259765625,0.000244140625
1738772414167007700,4.7810078125,-0.2521209716796875,-0.9684295654296875,0
1738772414176998700,4.79099853515625,-0.2584228515625,-0.968719482421875,-0.0004730224609375
1738772414186989600,4.800989501953125,-0.2543182373046875,-0.96844482421875,-0.0009613037109375
1738772414196981800,4.810981689453125,-0.25341796875,-0.968414306640625,0.000244140625
1738772414206972700,4.82097265625,-0.257598876953125,-0.96795654296875,-0.0005035400390625
1738772414216963600,4.830963623046875,-0.25299072265625,-0.968292236328125,-0.0009613037109375
1738772414226954800,4.840954833984375,-0.256103515625,-0.9692840576171875,-0.0015869140625
1738772414236945700,4.850945556640625,-0.2564697265625,-0.9688720703125,-0.0018310546875
1738772414246937600,4.8609375,-0.2537994384765625,-0.9677276611328125,-0.0015716552734375
1738772414256928800,4.8709287109375,-0.2560577392578125,-0.9687957763671875,-0.000274658203125
1738772414266919700,4.880919677734375,-0.2562255859375,-0.9692230224609375,0.0001220703125
1738772414276908800,4.89090869140625,-0.254364013671875,-0.968231201171875,0.0007781982421875
1738772414286899700,4.900899658203125,-0.256011962890625,-0.968994140625,-0.000030517578125
1738772414296892000,4.910891845703125,-0.2557525634765625,-0.968109130859375,-0.0011138916015625
1738772414306882800,4.9208828125,-0.2555999755859375,-0.968505859375,-0.000030517578125
1738772414316874000,4.9308740234375,-0.255584716796875,-0.9692535400390625,0.000457763671875
1738772414326865000,4.940864990234375,-0.2557525634765625,-0.9686431884765625,0.000091552734375
1738772414336855800,4.950855712890625,-0.2571563720703125,-0.96856689453125,-0.0008697509765625
1738772414346848000,4.960847900390625,-0.2545166015625,-0.9678192138671875,-0.0015411376953125
1738772414356839000,4.9708388671875,-0.2543487548828125,-0.969451904296875,-0.0002288818359375
1738772414366829800,4.980829833984375,-0.256195068359375,-0.967803955078125,-0.0016632080078125
1738772414376820700,4.99082080078125,-0.2555999755859375,-0.9699554443359375,-0.0015716552734375
1738772414386812000,5.00081201171875,-0.253082275390625,-0.9683380126953125,-0.00030517578125
1738772414396802800,5.010802734375,-0.25579833984375,-0.968841552734375,-0.0006103515625
1738772414406795000,5.020794921875,-0.2540740966796875,-0.969635009765625,-0.0007781982421875
1738772414416786000,5.030785888671875,-0.254364013671875,-0.9686737060546875,-0.000152587890625
1738772414426776800,5.04077685546875,-0.2567138671875,-0.968597412109375,0.0002899169921875
1738772414436767700,5.050767822265625,-0.253875732421875,-0.967498779296875,-0.0002899169921875
1738772414446759000,5.060759033203125,-0.255767822265625,-0.968170166015625,0.0018310546875
1738772414456750800,5.070750732421875,-0.254974365234375,-0.96826171875,0.0004425048828125
1738772414466741800,5.08074169921875,-0.2552032470703125,-0.9686737060546875,-0.0001220703125
1738772414476733000,5.09073291015625,-0.2553863525390625,-0.9675750732421875,-0.00054931640625
1738772414486723800,5.100723876953125,-0.254608154296875,-0.968017578125,-0.000579833984375
1738772414496714800,5.11071484375,-0.2546234130859375,-0.969024658203125,0.000396728515625
1738772414506707000,5.12070703125,-0.2555389404296875,-0.9698028564453125,0.00018310546875
1738772414516697900,5.13069775390625,-0.2530517578125,-0.9690399169921875,0.0003204345703125
1738772414526688800,5.140688720703125,-0.2547454833984375,-0.968353271484375,-0.00006103515625
1738772414536680000,5.150679931640625,-0.2558746337890625,-0.969482421875,0.0001220703125
1738772414546670800,5.1606708984375,-0.2548828125,-0.9674072265625,-0.0011749267578125
1738772414556661800,5.170661865234375,-0.25384521484375,-0.966705322265625,0.0012969970703125
1738772414566654000,5.180654052734375,-0.254669189453125,-0.9686737060546875,-0.0015869140625
1738772414576644900,5.190644775390625,-0.253509521484375,-0.969329833984375,-0.000732421875
1738772414586635800,5.2006357421875,-0.25408935546875,-0.9691619873046875,-0.000213623046875
1738772414596627000,5.210626953125,-0.255828857421875,-0.9686279296875,0.0003509521484375
1738772414606619000,5.220618896484375,-0.2552642822265625,-0.9680633544921875,-0.0008087158203125
1738772414616609800,5.23060986328125,-0.255706787109375,-0.967803955078125,-0.0009002685546875
1738772414626601000,5.24060107421875,-0.25408935546875,-0.9681396484375,0.0000457763671875
1738772414636591900,5.250591796875,-0.256866455078125,-0.9687957763671875,0.0007171630859375
1738772414646582800,5.260582763671875,-0.2547454833984375,-0.9679412841796875,0.0001220703125
1738772414656574000,5.270573974609375,-0.2556915283203125,-0.9686126708984375,-0.0003509521484375
1738772414666566000,5.28056591796875,-0.25775146484375,-0.9702911376953125,0.0004119873046875
1738772414676556800,5.290556884765625,-0.2554168701171875,-0.9672698974609375,-0.00115966796875
1738772414686548000,5.3005478515625,-0.2554931640625,-0.96856689453125,-0.0019683837890625
1738772414696539000,5.310538818359375,-0.2547149658203125,-0.9689178466796875,-0.0008087158203125
1738772414706529800,5.32052978515625,-0.255340576171875,-0.9679412841796875,-0.000396728515625
1738772414716522000,5.33052197265625,-0.2570953369140625,-0.9686431884765625,-0.00079345703125
1738772414726513000,5.340512939453125,-0.2547454833984375,-0.968719482421875,-0.000030517578125
1738772414736503800,5.35050390625,-0.2555999755859375,-0.96728515625,-0.0003509521484375
1738772414746495000,5.360494873046875,-0.257110595703125,-0.968841552734375,-0.000640869140625
1738772414756486000,5.37048583984375,-0.2546844482421875,-0.9690399169921875,-0.0009613037109375
1738772414766477800,5.380477783203125,-0.2536773681640625,-0.9695587158203125,0.0001373291015625
1738772414776469000,5.390468994140625,-0.2574920654296875,-0.96832275390625,0.0003662109375
1738772414786460000,5.4004599609375,-0.2562103271484375,-0.96795654296875,-0.0016021728515625
1738772414796450800,5.410450927734375,-0.253875732421875,-0.9698638916015625,0.000518798828125
1738772414806442000,5.42044189453125,-0.256317138671875,-0.96881103515625,-0.001190185546875
1738772414816433000,5.430432861328125,-0.254547119140625,-0.968658447265625,0
1738772414826424800,5.4404248046875,-0.254364013671875,-0.9684600830078125,-0.001678466796875
1738772414836416000,5.450416015625,-0.2555999755859375,-0.9689178466796875,-0.0011444091796875
1738772414846407000,5.460406982421875,-0.2545928955078125,-0.96929931640625,0.000030517578125
1738772414856397800,5.470397705078125,-0.254486083984375,-0.96929931640625,-0.0003509521484375
1738772414866388700,5.480388671875,-0.25537109375,-0.9677581787109375,0.0006256103515625
1738772414876381000,5.490380859375,-0.25408935546875,-0.9686126708984375,-0.00048828125
1738772414886371800,5.500371826171875,-0.2571563720703125,-0.968536376953125,0
1738772414896363000,5.510363037109375,-0.255096435546875,-0.9682464599609375,0.0016021728515625
1738772414906354000,5.52035400390625,-0.25555419921875,-0.9698486328125,0.00018310546875
1738772414916344800,5.5303447265625,-0.256103515625,-0.9686737060546875,-0.0005645751953125
1738772414926337000,5.5403369140625,-0.2544097900390625,-0.967681884765625,-0.000885009765625
1738772414936328000,5.550327880859375,-0.254974365234375,-0.9687347412109375,-0.0001678466796875
1738772414946318800,5.56031884765625,-0.2562713623046875,-0.9673919677734375,-0.0008697509765625
1738772414956309800,5.570309814453125,-0.2547454833984375,-0.9674530029296875,0.0009765625
1738772414966301000,5.580301025390625,-0.255645751953125,-0.9686279296875,0.0008087158203125
1738772414976291800,5.590291748046875,-0.2548675537109375,-0.9685516357421875,-0.0015106201171875
1738772414986284000,5.600283935546875,-0.2540283203125,-0.968963623046875,0.000579833984375
1738772414996275000,5.61027490234375,-0.257354736328125,-0.9684600830078125,-0.0003662109375
1738772415006265900,5.620265869140625,-0.2560272216796875,-0.968719482421875,-0.0023040771484375
1738772415016256800,5.6302568359375,-0.2536773681640625,-0.96856689453125,-0.001678466796875
1738772415026248000,5.640248046875,-0.2564544677734375,-0.9691925048828125,-0.0001983642578125
1738772415036240000,5.650239990234375,-0.254913330078125,-0.96832275390625,0.0015411376953125
1738772415046230800,5.660230712890625,-0.254974365234375,-0.969146728515625,-0.0001068115234375
1738772415056222000,5.670221923828125,-0.256683349609375,-0.9696502685546875,0.000030517578125
1738772415066212900,5.680212890625,-0.25384521484375,-0.9678955078125,0.0001983642578125
1738772415076203800,5.690203857421875,-0.2548065185546875,-0.9690399169921875,0.000091552734375
1738772415086196000,5.700196044921875,-0.2547454833984375,-0.9695281982421875,0.0004425048828125
1738772415096187000,5.710186767578125,-0.2547760009765625,-0.9683990478515625,-0.0013275146484375
1738772415106177800,5.720177734375,-0.2550201416015625,-0.96856689453125,-0.0015716552734375
1738772415116169000,5.7301689453125,-0.2551116943359375,-0.9681854248046875,-0.0016937255859375
1738772415126160000,5.740159912109375,-0.25555419921875,-0.9691009521484375,-0.00164794921875
1738772415136150800,5.75015087890625,-0.2560272216796875,-0.968231201171875,0.000244140625
1738772415146143000,5.76014306640625,-0.2548980712890625,-0.9688568115234375,-0.0013427734375
1738772415156134000,5.7701337890625,-0.2553558349609375,-0.9701690673828125,-0.0005035400390625
1738772415166124800,5.780124755859375,-0.255035400390625,-0.96832275390625,-0.00030517578125
1738772415176116000,5.790115966796875,-0.255462646484375,-0.96826171875,-0.0005645751953125
1738772415186107000,5.80010693359375,-0.2542877197265625,-0.9685211181640625,-0.000885009765625
1738772415196098800,5.810098876953125,-0.2544097900390625,-0.96917724609375,0.0006561279296875
1738772415206090000,5.820090087890625,-0.25579833984375,-0.96966552734375,0.000030517578125
1738772415216081000,5.830080810546875,-0.2547454833984375,-0.9690093994140625,0.0006866455078125
1738772415226071800,5.84007177734375,-0.2552490234375,-0.96905517578125,-0.0001373291015625
1738772415236063000,5.85006298828125,-0.2547454833984375,-0.968658447265625,-0.000213623046875
1738772415246055000,5.860054931640625,-0.2584075927734375,-0.9688262939453125,0.0005340576171875
1738772415256045800,5.8700458984375,-0.2555999755859375,-0.968719482421875,-0.0005035400390625
1738772415266037000,5.880037109375,-0.253814697265625,-0.9680023193359375,0.000732421875
1738772415276028400,5.8900283203125,-0.255584716796875,-0.9669342041015625,-0.0005340576171875
1738772415286019300,5.900019287109375,-0.2536773681640625,-0.9688568115234375,-0.00054931640625
1738772415296010200,5.91001025390625,-0.2545013427734375,-0.9686279296875,-0.0008697509765625
1738772415306002400,5.92000244140625,-0.2542266845703125,-0.9681396484375,-0.0006866455078125
1738772415315993300,5.929993408203125,-0.253753662109375,-0.9687957763671875,-0.0007476806640625
1738772415325984300,5.939984375,-0.25579833984375,-0.968719482421875,0
1738772415335975200,5.94997509765625,-0.25628662109375,-0.968902587890625,-0.0006256103515625
1738772415345966300,5.95996630859375,-0.2539825439453125,-0.967559814453125,-0.00128173828125
1738772415355958300,5.969958251953125,-0.2565460205078125,-0.9672698974609375,0.0011444091796875
1738772415365949400,5.979949462890625,-0.2559967041015625,-0.967559814453125,-0.0013580322265625
1738772415375940400,5.9899404296875,-0.25408935546875,-0.969635009765625,-0.00006103515625
1738772415385931300,5.99993115234375,-0.256256103515625,-0.968902587890625,-0.0020294189453125
1738772415395922200,6.009922119140625,-0.25482177734375,-0.9690704345703125,-0.00201416015625
1738772415405914400,6.019914306640625,-0.254180908203125,-0.9671173095703125,-0.0008697509765625
1738772415415905300,6.0299052734375,-0.256195068359375,-0.96722412109375,-0.000579833984375
1738772415425896200,6.039896240234375,-0.2552337646484375,-0.9686279296875,0.000030517578125
1738772415435887400,6.049887451171875,-0.2537078857421875,-0.9674224853515625,-0.0002288818359375
1738772415445878300,6.059878173828125,-0.2561798095703125,-0.9692230224609375,-0.0004425048828125
1738772415455869200,6.069869140625,-0.2549896240234375,-0.96746826171875,0.00006103515625
1738772415465861400,6.079861328125,-0.254302978515625,-0.9688720703125,0.0011444091796875
1738772415475852300,6.089852294921875,-0.25537109375,-0.968536376953125,-0.0018157958984375
1738772415485843200,6.09984326171875,-0.2545166015625,-0.968475341796875,-0.0004425048828125
1738772415495834400,6.10983447265625,-0.25567626953125,-0.9699249267578125,0.00079345703125
1738772415505825300,6.1198251953125,-0.2559051513671875,-0.9692535400390625,-0.000640869140625
1738772415515817500,6.1298173828125,-0.2533416748046875,-0.9684600830078125,-0.0007476806640625
1738772415525808400,6.139808349609375,-0.255584716796875,-0.9694366455078125,-0.0001678466796875
1738772415535799300,6.14979931640625,-0.255645751953125,-0.9695587158203125,-0.001373291015625
1738772415545790200,6.159790283203125,-0.2545318603515625,-0.96820068359375,0.00067138671875
1738772415555781400,6.169781494140625,-0.2551116943359375,-0.968109130859375,-0.000762939453125
1738772415565773300,6.179773193359375,-0.255645751953125,-0.9675140380859375,-0.0012969970703125
1738772415575764200,6.18976416015625,-0.2544097900390625,-0.968231201171875,-0.0006103515625
1738772415585755400,6.19975537109375,-0.2544097900390625,-0.9684295654296875,-0.0005950927734375
1738772415595746300,6.209746337890625,-0.2557220458984375,-0.967559814453125,-0.00042724609375
1738772415605737200,6.2197373046875,-0.2537384033203125,-0.969024658203125,-0.0003814697265625
1738772415615728400,6.229728271484375,-0.25555419921875,-0.9686279296875,0.000244140625
1738772415625720300,6.23972021484375,-0.2548675537109375,-0.969329833984375,-0.00018310546875
1738772415635711200,6.249711181640625,-0.2538604736328125,-0.968902587890625,-0.0013427734375
1738772415645702400,6.259702392578125,-0.2546844482421875,-0.9685211181640625,-0.0008697509765625
1738772415655693300,6.269693359375,-0.2539520263671875,-0.9689483642578125,-0.0009002685546875
1738772415665684200,6.279684326171875,-0.2549896240234375,-0.96942138671875,-0.001007080078125
1738772415675676400,6.289676513671875,-0.2546234130859375,-0.968597412109375,-0.001617431640625
1738772415685667300,6.299667236328125,-0.252777099609375,-0.96759033203125,0.00048828125
1738772415695658200,6.309658203125,-0.2542266845703125,-0.968505859375,0.000274658203125
1738772415705649400,6.3196494140625,-0.2545928955078125,-0.96832275390625,-0.0010528564453125
1738772415715640300,6.329640380859375,-0.255462646484375,-0.9671478271484375,-0.00152587890625
1738772415725632300,6.33963232421875,-0.2545318603515625,-0.9700469970703125,-0.001190185546875
1738772415735623400,6.34962353515625,-0.25445556640625,-0.969268798828125,-0.0011444091796875
1738772415745614300,6.3596142578125,-0.2548065185546875,-0.9679412841796875,0.00006103515625
1738772415755605200,6.369605224609375,-0.2538604736328125,-0.968475341796875,0.001373291015625
1738772415765596400,6.379596435546875,-0.2546539306640625,-0.9680023193359375,-0.00079345703125
1738772415775587300,6.38958740234375,-0.25457763671875,-0.967742919921875,-0.0008087158203125
1738772415785579300,6.399579345703125,-0.254608154296875,-0.9690704345703125,-0.0014495849609375
1738772415795570400,6.4095703125,-0.255035400390625,-0.968170166015625,0.0003814697265625
1738772415805561300,6.419561279296875,-0.2549591064453125,-0.968109130859375,-0.0015869140625
1738772415815552300,6.42955224609375,-0.255401611328125,-0.9686126708984375,-0.0011444091796875
1738772415825543400,6.43954345703125,-0.2541961669921875,-0.9693145751953125,-0.00018310546875
1738772415835535400,6.449535400390625,-0.25543212890625,-0.969268798828125,0.0000762939453125
1738772415845526300,6.4595263671875,-0.25634765625,-0.9682769775390625,-0.0005340576171875
1738772415855517400,6.469517333984375,-0.2544708251953125,-0.96905517578125,-0.001129150390625
1738772415865508400,6.47950830078125,-0.2545166015625,-0.9688873291015625,-0.0001220703125
1738772415875499300,6.489499267578125,-0.2548370361328125,-0.968902587890625,-0.00091552734375
1738772415885490200,6.499490234375,-0.2540283203125,-0.9698333740234375,-0.0012664794921875
1738772415895482400,6.509482421875,-0.25494384765625,-0.9679107666015625,-0.0011749267578125
1738772415905473300,6.519473388671875,-0.2569580078125,-0.96929931640625,0.0003509521484375
1738772415915464400,6.52946435546875,-0.25640869140625,-0.96746826171875,-0.0004119873046875
1738772415925455400,6.539455322265625,-0.254913330078125,-0.96893310546875,-0.0010986328125
1738772415935446300,6.5494462890625,-0.254852294921875,-0.968994140625,-0.0009307861328125
1738772415945438500,6.5594384765625,-0.254241943359375,-0.9674530029296875,-0.0015106201171875
1738772415955429400,6.569429443359375,-0.2555694580078125,-0.9684600830078125,-0.0005645751953125
1738772415965420300,6.579420166015625,-0.25482177734375,-0.9695281982421875,0.0001068115234375
1738772415975411200,6.5894111328125,-0.253326416015625,-0.9686279296875,-0.00140380859375
1738772415985402400,6.59940234375,-0.2545928955078125,-0.9683685302734375,-0.0004730224609375
1738772415995394300,6.609394287109375,-0.256622314453125,-0.96868896484375,-0.000457763671875
1738772416005385500,6.619385498046875,-0.2552337646484375,-0.9680938720703125,-0.000244140625
1738772416015376400,6.62937646484375,-0.25457763671875,-0.969024658203125,0.0001373291015625
1738772416025367300,6.6393671875,-0.25518798828125,-0.9691009521484375,-0.000396728515625
1738772416035358200,6.649358154296875,-0.254852294921875,-0.96893310546875,-0.0004425048828125
1738772416045349400,6.659349365234375,-0.25537109375,-0.969146728515625,0.0001983642578125
1738772416055341300,6.66934130859375,-0.2550811767578125,-0.968963623046875,0.00048828125
1738772416065332200,6.679332275390625,-0.255584716796875,-0.9683380126953125,-0.0003509521484375
1738772416075323400,6.689323486328125,-0.25518798828125,-0.968780517578125,-0.000030517578125
1738772416085314300,6.699314208984375,-0.2538299560546875,-0.96771240234375,0.000335693359375
1738772416095305200,6.70930517578125,-0.2529754638671875,-0.9672088623046875,-0.0009002685546875
1738772416105297400,6.71929736328125,-0.2555084228515625,-0.968963623046875,-0.0003509521484375
1738772416115288300,6.729288330078125,-0.2549896240234375,-0.9680328369140625,-0.0011444091796875
1738772416125279200,6.739279296875,-0.25445556640625,-0.9683837890625,-0.0008544921875
1738772416135270400,6.7492705078125,-0.2550201416015625,-0.9675750732421875,-0.0006561279296875
1738772416145261300,6.75926123046875,-0.255035400390625,-0.9686126708984375,0.000244140625
1738772416155252200,6.769252197265625,-0.2564849853515625,-0.9687652587890625,0.0001678466796875
1738772416165244400,6.779244384765625,-0.2553863525390625,-0.967742919921875,-0.00238037109375
1738772416175235300,6.7892353515625,-0.2545318603515625,-0.9677581787109375,-0.0016632080078125
1738772416185226200,6.799226318359375,-0.256591796875,-0.96795654296875,-0.0002899169921875
1738772416195217400,6.809217529296875,-0.2546844482421875,-0.9691314697265625,-0.0005645751953125
1738772416205208300,6.819208251953125,-0.2543487548828125,-0.96820068359375,0.0001983642578125
1738772416215200300,6.8292001953125,-0.2564849853515625,-0.9683074951171875,-0.0008544921875
1738772416225191400,6.83919140625,-0.2532196044921875,-0.9691009521484375,-0.00048828125
1738772416235182300,6.849182373046875,-0.2543487548828125,-0.9677886962890625,0.0004119873046875
1738772416245173200,6.85917333984375,-0.2561492919921875,-0.967864990234375,-0.0003662109375
1738772416255164400,6.869164306640625,-0.253936767578125,-0.9674072265625,0.0008544921875
1738772416265156400,6.87915625,-0.25555419921875,-0.968841552734375,-0.000823974609375
1738772416275147300,6.889147216796875,-0.253936767578125,-0.96905517578125,0.000091552734375
1738772416285138700,6.899138671875,-0.253265380859375,-0.96820068359375,-0.0008544921875
1738772416295129600,6.909129638671875,-0.254547119140625,-0.9680938720703125,-0.0006866455078125
1738772416305120800,6.919120849609375,-0.2549591064453125,-0.9680023193359375,-0.0008697509765625
1738772416315111700,6.929111572265625,-0.2552642822265625,-0.96868896484375,-0.00006103515625
1738772416325103600,6.939103515625,-0.256591796875,-0.967498779296875,-0.0007781982421875
1738772416335094800,6.9490947265625,-0.2548980712890625,-0.96868896484375,-0.000244140625
1738772416345085700,6.959085693359375,-0.2534637451171875,-0.9694671630859375,0.0018310546875
1738772416355076600,6.96907666015625,-0.2576751708984375,-0.9676971435546875,-0.00030517578125
1738772416365067800,6.97906787109375,-0.254150390625,-0.968170166015625,-0.0030059814453125
1738772416375059700,6.989059814453125,-0.253509521484375,-0.968505859375,0.000396728515625
1738772416385050600,6.999050537109375,-0.2576904296875,-0.9690093994140625,-0.0010986328125
1738772416395041800,7.009041748046875,-0.2536468505859375,-0.9687957763671875,0.0002593994140625
1738772416405032700,7.01903271484375,-0.25665283203125,-0.96844482421875,0.0003509521484375
1738772416415023600,7.029023681640625,-0.2562255859375,-0.969268798828125,-0.001251220703125
1738772416425015800,7.039015869140625,-0.2532958984375,-0.9688568115234375,-0.0008697509765625
1738772416435006700,7.0490068359375,-0.256134033203125,-0.9685821533203125,-0.0000152587890625
1738772416444997600,7.05899755859375,-0.2568206787109375,-0.9691162109375,-0.0008544921875
1738772416454988800,7.06898876953125,-0.254180908203125,-0.9682769775390625,-0.00091552734375
1738772416464979700,7.078979736328125,-0.254852294921875,-0.968963623046875,-0.0015716552734375
1738772416474971600,7.0889716796875,-0.2551116943359375,-0.9688720703125,-0.0009918212890625
1738772416484962800,7.098962890625,-0.252410888671875,-0.9682769775390625,-0.0005340576171875
1738772416494953700,7.10895361328125,-0.2548065185546875,-0.9680328369140625,0.0009613037109375
1738772416504944600,7.118944580078125,-0.2546234130859375,-0.9691162109375,-0.0001068115234375
1738772416514935800,7.128935791015625,-0.2540740966796875,-0.968841552734375,-0.00079345703125
1738772416524926700,7.1389267578125,-0.254425048828125,-0.9686737060546875,-0.0001983642578125
1738772416534918700,7.148918701171875,-0.2563323974609375,-0.96966552734375,-0.000762939453125
1738772416544909800,7.158909912109375,-0.255401611328125,-0.9681549072265625,0.0001220703125
1738772416554900700,7.168900634765625,-0.2549896240234375,-0.969390869140625,-0.000335693359375
1738772416564891600,7.1788916015625,-0.255035400390625,-0.9695281982421875,-0.0003814697265625
1738772416574882600,7.188882568359375,-0.254241943359375,-0.968536376953125,-0.0010528564453125
1738772416584874800,7.198874755859375,-0.255279541015625,-0.9677886962890625,0.00042724609375
1738772416594865700,7.20886572265625,-0.2545166015625,-0.9687042236328125,-0.0008544921875
1738772416604856800,7.21885693359375,-0.255035400390625,-0.967864990234375,-0.0000457763671875
1738772416614847700,7.22884765625,-0.256195068359375,-0.9685821533203125,-0.00091552734375
1738772416624838700,7.238838623046875,-0.25347900390625,-0.9687652587890625,-0.0013427734375
1738772416634830600,7.24883056640625,-0.2569122314453125,-0.968048095703125,-0.00006103515625
1738772416644821800,7.25882177734375,-0.25604248046875,-0.9701690673828125,0.001373291015625
1738772416654812700,7.268812744140625,-0.25439453125,-0.9695892333984375,0.0004425048828125
1738772416664803600,7.278803466796875,-0.256134033203125,-0.96966552734375,-0.000396728515625
1738772416674794800,7.288794677734375,-0.255096435546875,-0.9681549072265625,-0.000030517578125
1738772416684785700,7.29878564453125,-0.2543182373046875,-0.967864990234375,-0.000335693359375
1738772416694777600,7.308777587890625,-0.2558441162109375,-0.968414306640625,-0.0010223388671875
1738772416704768800,7.318768798828125,-0.25555419921875,-0.968475341796875,-0.0000152587890625
1738772416714759700,7.328759765625,-0.2553558349609375,-0.9697723388671875,0.000244140625
1738772416724750600,7.33875048828125,-0.2556915283203125,-0.9684600830078125,-0.000335693359375
1738772416734741800,7.34874169921875,-0.25433349609375,-0.9691162109375,0.0004425048828125
1738772416744733700,7.358733642578125,-0.2545318603515625,-0.968994140625,-0.0000152587890625
1738772416754724600,7.368724609375,-0.257110595703125,-0.9681396484375,-0.0004425048828125
1738772416764715800,7.3787158203125,-0.2548828125,-0.9691162109375,-0.00042724609375
1738772416774706700,7.388706787109375,-0.254730224609375,-0.9691314697265625,-0.0010833740234375
1738772416784697600,7.398697509765625,-0.2548828125,-0.968292236328125,-0.000152587890625
1738772416794689500,7.408689453125,-0.253936767578125,-0.9680938720703125,0.000152587890625
1738772416804680700,7.4186806640625,-0.255523681640625,-0.96905517578125,-0.000335693359375
1738772416814671600,7.428671630859375,-0.2545623779296875,-0.968505859375,-0.000701904296875
1738772416824662800,7.438662841796875,-0.253448486328125,-0.9683380126953125,-0.0002288818359375
1738772416834653700,7.44865380859375,-0.2558135986328125,-0.9679412841796875,-0.00140380859375
1738772416844644600,7.45864453125,-0.2557373046875,-0.96728515625,-0.0005645751953125
1738772416854636500,7.468636474609375,-0.255035400390625,-0.968048095703125,-0.0001068115234375
1738772416864627700,7.478627685546875,-0.2544708251953125,-0.9680633544921875,-0.000152587890625
1738772416874618600,7.48861865234375,-0.2557830810546875,-0.968994140625,0.000152587890625
1738772416884609800,7.49860986328125,-0.2538909912109375,-0.968994140625,-0.0002288818359375
1738772416894600700,7.5086005859375,-0.2555389404296875,-0.9683837890625,-0.0010528564453125
1738772416904592600,7.518592529296875,-0.2558441162109375,-0.9694671630859375,-0.0003204345703125
1738772416914583800,7.528583740234375,-0.25592041015625,-0.9677276611328125,-0.001800537109375
1738772416924574700,7.53857470703125,-0.2542266845703125,-0.9686279296875,0.000823974609375
1738772416934565600,7.548565673828125,-0.254180908203125,-0.9679412841796875,-0.0008544921875
1738772416944556800,7.558556884765625,-0.2538604736328125,-0.9687652587890625,0.0000762939453125
1738772416954548500,7.568548583984375,-0.254913330078125,-0.9687652587890625,0.000946044921875
1738772416964539600,7.57853955078125,-0.25482177734375,-0.969512939453125,-0.000274658203125
1738772416974530800,7.58853076171875,-0.253631591796875,-0.9693145751953125,-0.0003204345703125
1738772416984521700,7.598521728515625,-0.2541656494140625,-0.96832275390625,-0.0001373291015625
1738772416994512600,7.6085126953125,-0.256256103515625,-0.9675445556640625,0.0001678466796875
1738772417004503800,7.61850390625,-0.2534637451171875,-0.9678802490234375,-0.0003662109375
1738772417014495500,7.62849560546875,-0.254791259765625,-0.968841552734375,-0.000579833984375
1738772417024486700,7.638486572265625,-0.255828857421875,-0.9683685302734375,-0.0011749267578125
1738772417034477800,7.648477783203125,-0.25408935546875,-0.9680328369140625,0.0005035400390625
1738772417044468700,7.65846875,-0.255767822265625,-0.9683837890625,-0.0014801025390625
1738772417054459600,7.668459716796875,-0.25537109375,-0.9678497314453125,0.000152587890625
1738772417064451600,7.67845166015625,-0.255615234375,-0.9683685302734375,0.0005035400390625
1738772417074442800,7.68844287109375,-0.2553863525390625,-0.9681854248046875,-0.001922607421875
1738772417084433700,7.69843359375,-0.2521514892578125,-0.9688873291015625,-0.000823974609375
1738772417094424800,7.7084248046875,-0.255706787109375,-0.970367431640625,-0.0011138916015625
1738772417104415700,7.718415771484375,-0.256744384765625,-0.96771240234375,-0.0004119873046875
1738772417114406700,7.72840673828125,-0.2537078857421875,-0.9675140380859375,0.0001678466796875
1738772417124398600,7.738398681640625,-0.2542877197265625,-0.9680328369140625,-0.00048828125
1738772417134389800,7.7483896484375,-0.25665283203125,-0.9684600830078125,-0.0014190673828125
1738772417144380700,7.758380615234375,-0.2562103271484375,-0.968536376953125,-0.0011444091796875
1738772417154371600,7.76837158203125,-0.25634765625,-0.9678497314453125,0.00115966796875
1738772417164362800,7.77836279296875,-0.2558746337890625,-0.9696197509765625,-0.0010528564453125
1738772417174354400,7.7883544921875,-0.2542877197265625,-0.9683074951171875,-0.0016632080078125
1738772417184345600,7.798345703125,-0.2569427490234375,-0.96820068359375,-0.0001983642578125
1738772417194336800,7.808336669921875,-0.2549285888671875,-0.9685211181640625,-0.0001983642578125
1738772417204327700,7.81832763671875,-0.2549896240234375,-0.9682464599609375,-0.000152587890625
1738772417214318600,7.828318603515625,-0.2563629150390625,-0.96820068359375,-0.0004730224609375
1738772417224310500,7.838310546875,-0.2545928955078125,-0.9687347412109375,-0.000701904296875
1738772417234301400,7.848301513671875,-0.2536468505859375,-0.96990966796875,-0.00091552734375
1738772417244292900,7.85829296875,-0.2542724609375,-0.96942138671875,0.0001220703125
1738772417254283800,7.86828369140625,-0.253997802734375,-0.96881103515625,-0.0009002685546875
1738772417264274700,7.878274658203125,-0.2561187744140625,-0.96881103515625,-0.0013275146484375
1738772417274265600,7.888265625,-0.2541351318359375,-0.9677886962890625,-0.0013580322265625
1738772417284257000,7.898257080078125,-0.2541961669921875,-0.9680633544921875,-0.000244140625
1738772417294248200,7.908248291015625,-0.256072998046875,-0.9686279296875,-0.0005035400390625
1738772417304239000,7.918239013671875,-0.2546844482421875,-0.9686737060546875,-0.0001068115234375
1738772417314230000,7.92822998046875,-0.2557373046875,-0.9704437255859375,-0.000335693359375
1738772417324221000,7.938220947265625,-0.2559051513671875,-0.9693450927734375,-0.000518798828125
1738772417334213000,7.948213134765625,-0.25445556640625,-0.96795654296875,0.0001068115234375
1738772417344204000,7.9582041015625,-0.2539825439453125,-0.9703369140625,0.0004730224609375
1738772417354195000,7.96819482421875,-0.2558135986328125,-0.9699554443359375,-0.00054931640625
1738772417364186000,7.97818603515625,-0.2567901611328125,-0.96722412109375,-0.0012054443359375
1738772417374177000,7.988177001953125,-0.254425048828125,-0.9680023193359375,-0.0015869140625
1738772417384169200,7.998169189453125,-0.25665283203125,-0.9680938720703125,-0.0005950927734375
1738772417394160000,8.00816015625,-0.255157470703125,-0.9688873291015625,-0.00048828125
1738772417404151000,8.018151123046875,-0.2542724609375,-0.9687042236328125,0.0006561279296875
1738772417414142000,8.028141845703125,-0.25469970703125,-0.969268798828125,0.0008392333984375
1738772417424133000,8.038133056640625,-0.25616455078125,-0.96893310546875,0.000396728515625
1738772417434124000,8.0481240234375,-0.254852294921875,-0.9691162109375,-0.0003662109375
1738772417444116000,8.058115966796874,-0.256011962890625,-0.96783447265625,0.000274658203125
1738772417454107100,8.068107177734374,-0.2539215087890625,-0.968048095703125,-0.0003814697265625
1738772417464098000,8.07809814453125,-0.2545318603515625,-0.9681854248046875,-0.0002899169921875
1738772417474089000,8.0880888671875,-0.256103515625,-0.9677581787109375,0.000152587890625
1738772417484080000,8.098080078125,-0.2550201416015625,-0.968902587890625,-0.0001678466796875
1738772417494072000,8.108072021484375,-0.254791259765625,-0.9686126708984375,-0.0003662109375
1738772417504063000,8.11806298828125,-0.2556915283203125,-0.9694061279296875,-0.000244140625
1738772417514054100,8.12805419921875,-0.254425048828125,-0.969390869140625,0.000732421875
1738772417524045000,8.138045166015624,-0.2536163330078125,-0.967987060546875,0.0000762939453125
1738772417534036000,8.148035888671876,-0.253143310546875,-0.9690399169921875,-0.00164794921875
1738772417544027100,8.158027099609376,-0.255859375,-0.969146728515625,-0.0003509521484375
1738772417554019000,8.16801904296875,-0.255950927734375,-0.9687347412109375,-0.0010223388671875
1738772417564010000,8.178010009765625,-0.2534027099609375,-0.96893310546875,0.000946044921875
1738772417574001200,8.188001220703125,-0.255584716796875,-0.9677886962890625,0.0011138916015625
1738772417583992000,8.197991943359375,-0.254852294921875,-0.9679107666015625,-0.00067138671875
1738772417593983000,8.20798291015625,-0.25341796875,-0.96954345703125,-0.000091552734375
1738772417603975200,8.21797509765625,-0.2549896240234375,-0.96923828125,-0.0003204345703125
1738772417613966000,8.227966064453126,-0.252716064453125,-0.96795654296875,0.000396728515625
1738772417623957000,8.23795703125,-0.2557220458984375,-0.9683685302734375,-0.0004119873046875
1738772417633948200,8.2479482421875,-0.2554779052734375,-0.9698028564453125,-0.0010986328125
1738772417643939000,8.25793896484375,-0.2546844482421875,-0.9692230224609375,-0.000732421875
1738772417653931000,8.267930908203125,-0.2554779052734375,-0.9687042236328125,-0.001007080078125
1738772417663922200,8.277922119140625,-0.25537109375,-0.9668121337890625,0.000518798828125
1738772417673913000,8.2879130859375,-0.2545318603515625,-0.9677276611328125,-0.0000457763671875
1738772417683904000,8.297904052734374,-0.2563934326171875,-0.9681243896484375,0.0004425048828125
1738772417693895200,8.307895263671876,-0.25543212890625,-0.96807861328125,-0.000946044921875
1738772417703886000,8.317885986328125,-0.25439453125,-0.968170166015625,0.000335693359375
1738772417713878000,8.3278779296875,-0.25579833984375,-0.9686126708984375,-0.0004730224609375
1738772417723869200,8.337869140625,-0.25579833984375,-0.9680938720703125,-0.0002899169921875
1738772417733860000,8.347860107421875,-0.2558135986328125,-0.968994140625,-0.001190185546875
1738772417743851000,8.35785107421875,-0.25445556640625,-0.9681243896484375,-0.00103759765625
1738772417753842000,8.367842041015624,-0.253936767578125,-0.9682464599609375,0.0013275146484375
1738772417763834000,8.377834228515624,-0.2559967041015625,-0.9674530029296875,0.0008087158203125
1738772417773825000,8.387824951171876,-0.255859375,-0.9681243896484375,-0.000885009765625
1738772417783816200,8.397816162109375,-0.253692626953125,-0.9697113037109375,0.0007781982421875
1738772417793807000,8.40780712890625,-0.255462646484375,-0.9684295654296875,-0.0010986328125
1738772417803798000,8.417798095703125,-0.2535552978515625,-0.9691925048828125,-0.000885009765625
1738772417813789000,8.427788818359375,-0.2539215087890625,-0.9679718017578125,-0.000640869140625
1738772417823781000,8.437781005859375,-0.2555084228515625,-0.9683074951171875,-0.000030517578125
1738772417833772000,8.44777197265625,-0.25274658203125,-0.967926025390625,-0.0003509521484375
1738772417843763000,8.457762939453126,-0.2574462890625,-0.9689788818359375,-0.0008697509765625
1738772417853754000,8.467754150390626,-0.2539520263671875,-0.9686126708984375,-0.0002593994140625
1738772417863745000,8.4777451171875,-0.2539520263671875,-0.9672698974609375,0.001129150390625
1738772417873737200,8.4877373046875,-0.2551727294921875,-0.968505859375,-0.0018157958984375
1738772417883728100,8.49772802734375,-0.252105712890625,-0.96893310546875,-0.0006561279296875
1738772417893719000,8.507718994140625,-0.2552032470703125,-0.968902587890625,-0.0007476806640625
1738772417903710000,8.5177099609375,-0.2556304931640625,-0.968719482421875,-0.000579833984375
1738772417913701000,8.527701171875,-0.253692626953125,-0.9681396484375,-0.0011749267578125
1738772417923693000,8.537693115234376,-0.2564544677734375,-0.9697723388671875,-0.0006256103515625
1738772417933684200,8.547684326171876,-0.2567901611328125,-0.968292236328125,0.0011138916015625
1738772417943675100,8.557675048828125,-0.2535400390625,-0.9682769775390625,0.0001678466796875
1738772417953666000,8.567666015625,-0.2551116943359375,-0.9692230224609375,0.0002288818359375
1738772417963657000,8.577656982421875,-0.255523681640625,-0.9680023193359375,0.000213623046875
1738772417973649200,8.587649169921875,-0.2552947998046875,-0.9691925048828125,0.0000152587890625
1738772417983640000,8.59764013671875,-0.25634765625,-0.968475341796875,-0.000152587890625
1738772417993631000,8.607630859375,-0.254913330078125,-0.967254638671875,-0.0009307861328125
1738772418003622100,8.6176220703125,-0.253082275390625,-0.9683074951171875,-0.0008392333984375
1738772418013613000,8.627613037109375,-0.25567626953125,-0.9693145751953125,-0.00054931640625
1738772418023604000,8.63760400390625,-0.254302978515625,-0.968109130859375,0.0002593994140625
1738772418033596200,8.64759619140625,-0.2552032470703125,-0.9697113037109375,0.00030517578125
1738772418043587000,8.657587158203125,-0.255279541015625,-0.9683685302734375,0.000091552734375
1738772418053578000,8.667577880859374,-0.2534332275390625,-0.9686431884765625,-0.0001068115234375
1738772418063569200,8.677569091796874,-0.25482177734375,-0.967987060546875,0.0001983642578125
1738772418073560000,8.68756005859375,-0.2547607421875,-0.96832275390625,-0.0004119873046875
1738772418083552000,8.697552001953126,-0.2533111572265625,-0.9689788818359375,-0.0005340576171875
1738772418093543200,8.707543212890625,-0.2550201416015625,-0.9685211181640625,-0.0008544921875
1738772418103534000,8.7175341796875,-0.25262451171875,-0.9682159423828125,-0.000640869140625
1738772418113525000,8.72752490234375,-0.2537384033203125,-0.9695281982421875,0.0001983642578125
1738772418123516200,8.73751611328125,-0.2560882568359375,-0.967559814453125,-0.0008087158203125
1738772418133507800,8.7475078125,-0.255401611328125,-0.9681549072265625,0.0004119873046875
1738772418143499000,8.7574990234375,-0.2542724609375,-0.9681549072265625,-0.00146484375
1738772418153490200,8.767490234375,-0.2542724609375,-0.9678802490234375,-0.0022430419921875
1738772418163481000,8.777481201171875,-0.254608154296875,-0.969482421875,0.0003509521484375
1738772418173472000,8.787471923828125,-0.2551727294921875,-0.968505859375,0.0002593994140625
1738772418183463200,8.797463134765625,-0.2552947998046875,-0.9673919677734375,-0.000396728515625
1738772418193455000,8.807455078125,-0.254119873046875,-0.9680023193359375,-0.000701904296875
1738772418203446000,8.817446044921875,-0.255645751953125,-0.96923828125,0.0006103515625
1738772418213437200,8.827437255859374,-0.254608154296875,-0.9684295654296875,-0.0005035400390625
1738772418223428000,8.837427978515626,-0.254302978515625,-0.9680328369140625,-0.000335693359375
1738772418233419000,8.8474189453125,-0.257171630859375,-0.9683990478515625,-0.0013885498046875
1738772418243411000,8.857410888671875,-0.2544097900390625,-0.968963623046875,-0.000823974609375
1738772418253402000,8.867402099609375,-0.254425048828125,-0.967498779296875,0.00018310546875
1738772418263393000,8.87739306640625,-0.2581787109375,-0.968170166015625,-0.000213623046875
1738772418273384200,8.88738427734375,-0.253692626953125,-0.969818115234375,0.0000152587890625
1738772418283375000,8.897375,-0.254180908203125,-0.96759033203125,-0.0016021728515625
1738772418293367000,8.907366943359374,-0.2557373046875,-0.967803955078125,-0.00054931640625
1738772418303358000,8.91735791015625,-0.253692626953125,-0.9683074951171875,0.0006256103515625
1738772418313349000,8.92734912109375,-0.255523681640625,-0.9686279296875,-0.001312255859375
1738772418323340000,8.937340087890625,-0.25421142578125,-0.9689788818359375,0.0001983642578125
1738772418333331200,8.947331298828125,-0.2539215087890625,-0.9685516357421875,-0.0004119873046875
1738772418343323000,8.957322998046875,-0.25518798828125,-0.9678497314453125,-0.000213623046875
1738772418353314000,8.96731396484375,-0.254547119140625,-0.96722412109375,-0.00067138671875
1738772418363305200,8.97730517578125,-0.254791259765625,-0.9687042236328125,-0.000091552734375
1738772418373296000,8.987296142578124,-0.2561798095703125,-0.968292236328125,0.0002593994140625
1738772418383287000,8.997287109375,-0.254058837890625,-0.968719482421875,-0.0006256103515625
1738772418393279000,9.007279052734376,-0.255218505859375,-0.968719482421875,0.0003814697265625
1738772418403270000,9.017269775390625,-0.2557830810546875,-0.968475341796875,-0.000823974609375
1738772418413261000,9.027260986328125,-0.2532806396484375,-0.96832275390625,-0.000457763671875
1738772418423252200,9.037252197265625,-0.255340576171875,-0.9689483642578125,0.0003509521484375
1738772418433243100,9.0472431640625,-0.25653076171875,-0.9689178466796875,0.0000152587890625
1738772418443234000,9.057234130859374,-0.255462646484375,-0.9670562744140625,-0.000762939453125
1738772418453226000,9.06722607421875,-0.2539825439453125,-0.9681396484375,-0.0007171630859375
1738772418463217000,9.077216796875,-0.2550048828125,-0.9680023193359375,-0.0009002685546875
1738772418473208000,9.0872080078125,-0.25494384765625,-0.9680023193359375,0.0005340576171875
1738772418483199200,9.09719921875,-0.2555084228515625,-0.9680328369140625,-0.0003814697265625
1738772418493190100,9.107190185546875,-0.2547607421875,-0.968841552734375,-0.00091552734375
1738772418503181800,9.117181884765625,-0.2545166015625,-0.9704742431640625,-0.0009918212890625
1738772418513173000,9.127173095703125,-0.2547607421875,-0.968597412109375,-0.0004730224609375
1738772418523164200,9.1371640625,-0.255767822265625,-0.9682159423828125,-0.0007781982421875
1738772418533155000,9.147155029296876,-0.254669189453125,-0.968719482421875,0.00054931640625
1738772418543146200,9.157146240234376,-0.2560882568359375,-0.96856689453125,-0.00103759765625
1738772418553138000,9.167137939453125,-0.25457763671875,-0.9699554443359375,0.000396728515625
1738772418563128800,9.17712890625,-0.2546539306640625,-0.9677581787109375,-0.0016937255859375
1738772418573120000,9.1871201171875,-0.2554168701171875,-0.9688720703125,-0.00006103515625
1738772418583111200,9.197111083984375,-0.2554168701171875,-0.9670257568359375,-0.0004730224609375
1738772418593102000,9.20710205078125,-0.2543792724609375,-0.9684600830078125,-0.0010833740234375
1738772418603094000,9.217093994140624,-0.2559967041015625,-0.968231201171875,-0.00042724609375
1738772418613085000,9.2270849609375,-0.2540283203125,-0.967681884765625,0.0007171630859375
1738772418623075800,9.237075927734375,-0.2544403076171875,-0.9687652587890625,-0.0006256103515625
1738772418633067000,9.24706689453125,-0.256256103515625,-0.96746826171875,-0.0005340576171875
1738772418643058200,9.25705810546875,-0.2539520263671875,-0.9680633544921875,0.00030517578125
1738772418653049000,9.267049072265625,-0.253387451171875,-0.968505859375,0.0002593994140625
1738772418663041000,9.277041015625,-0.254302978515625,-0.9685516357421875,-0.001434326171875
1738772418673032000,9.287031982421874,-0.2549591064453125,-0.9681549072265625,0.0001373291015625
1738772418683022800,9.29702294921875,-0.2546234130859375,-0.9687652587890625,0.0005035400390625
1738772418693014300,9.30701416015625,-0.2552337646484375,-0.969085693359375,-0.0010833740234375
1738772418703005200,9.317005126953125,-0.2541961669921875,-0.9693756103515625,-0.0011749267578125
1738772418712996900,9.326996826171875,-0.2540435791015625,-0.96826171875,0.0002899169921875
1738772418722988000,9.336988037109375,-0.2544097900390625,-0.9692535400390625,0.000946044921875
1738772418732979000,9.34697900390625,-0.254058837890625,-0.969329833984375,0.000152587890625
1738772418742970000,9.35697021484375,-0.255279541015625,-0.9681854248046875,-0.0004730224609375
1738772418752961000,9.3669609375,-0.2539215087890625,-0.9682769775390625,-0.0005645751953125
1738772418762953000,9.376952880859376,-0.255615234375,-0.9694671630859375,-0.000213623046875
1738772418772944000,9.38694384765625,-0.255615234375,-0.9688262939453125,0.0001220703125
1738772418782935000,9.39693505859375,-0.2562255859375,-0.967681884765625,-0.000732421875
1738772418792926000,9.406926025390625,-0.2555999755859375,-0.9687042236328125,-0.0007476806640625
1738772418802917000,9.416917236328125,-0.2546234130859375,-0.9676971435546875,-0.00238037109375
1738772418812908000,9.426907958984375,-0.2545166015625,-0.96929931640625,0.000244140625
1738772418822900000,9.43689990234375,-0.25494384765625,-0.968170166015625,0.0017242431640625
1738772418832891000,9.446890869140624,-0.255279541015625,-0.9687957763671875,-0.0006866455078125
1738772418842881800,9.4568818359375,-0.254852294921875,-0.968780517578125,-0.000274658203125
1738772418852873000,9.466873046875,-0.2537994384765625,-0.968017578125,-0.001068115234375
1738772418862864100,9.476864013671875,-0.25439453125,-0.967376708984375,-0.000823974609375
1738772418872856000,9.48685595703125,-0.255828857421875,-0.968048095703125,0.000885009765625
1738772418882847000,9.496846923828125,-0.2540130615234375,-0.9692840576171875,0.0001678466796875
1738772418892838000,9.506837890625,-0.2543487548828125,-0.969696044921875,-0.0000457763671875
1738772418902829000,9.5168291015625,-0.2558441162109375,-0.96856689453125,-0.0005035400390625
1738772418912820200,9.5268203125,-0.2551116943359375,-0.9691009521484375,0.00030517578125
1738772418922812000,9.53681201171875,-0.2554779052734375,-0.9685211181640625,-0.0009918212890625
1738772418932803000,9.546802978515625,-0.255584716796875,-0.9686279296875,-0.0013427734375
1738772418942794000,9.5567939453125,-0.2557220458984375,-0.9684295654296875,0.0000762939453125
1738772418952785000,9.566784912109375,-0.256500244140625,-0.968719482421875,-0.0001983642578125
1738772418962776000,9.576776123046875,-0.254791259765625,-0.9678192138671875,-0.0010528564453125
1738772418972767200,9.586767333984374,-0.2554168701171875,-0.969482421875,-0.000885009765625
1738772418982759000,9.596759033203124,-0.2556304931640625,-0.96820068359375,0.0012359619140625
1738772418992749800,9.606749755859376,-0.2554168701171875,-0.9685211181640625,0.0001068115234375
1738772419002741000,9.616740966796876,-0.2547607421875,-0.9684295654296875,-0.00140380859375
1738772419012732000,9.62673193359375,-0.25457763671875,-0.9678497314453125,-0.001373291015625
1738772419022723000,9.63672314453125,-0.2546234130859375,-0.968109130859375,-0.00042724609375
1738772419032715000,9.646715087890625,-0.2542724609375,-0.9680938720703125,0.0001373291015625
1738772419042706000,9.656705810546875,-0.2552642822265625,-0.96826171875,-0.0000152587890625
1738772419052696800,9.66669677734375,-0.2552032470703125,-0.967498779296875,0.000152587890625
1738772419062688000,9.67668798828125,-0.2536163330078125,-0.9695892333984375,0.0008697509765625
1738772419072679200,9.68667919921875,-0.25543212890625,-0.967926025390625,-0.0003814697265625
1738772419082670800,9.6966708984375,-0.2548980712890625,-0.969146728515625,0.0000762939453125
1738772419092662000,9.706662109375,-0.2536773681640625,-0.9681243896484375,0.000335693359375
1738772419102653000,9.71665283203125,-0.2558746337890625,-0.9683380126953125,-0.00067138671875
1738772419112643800,9.726643798828125,-0.254974365234375,-0.969024658203125,-0.0016632080078125
1738772419122635000,9.736635009765624,-0.255584716796875,-0.967437744140625,0.00042724609375
1738772419132626200,9.746626220703124,-0.2545623779296875,-0.968353271484375,0.000457763671875
1738772419142617900,9.756617919921876,-0.2557373046875,-0.9689178466796875,-0.000701904296875
1738772419152609000,9.766609130859376,-0.2552490234375,-0.969757080078125,-0.0009307861328125
1738772419162600000,9.776599853515625,-0.25372314453125,-0.9684295654296875,-0.001434326171875
1738772419172590800,9.7865908203125,-0.25592041015625,-0.9693603515625,-0.0011444091796875
1738772419182582000,9.79658203125,-0.2559661865234375,-0.968597412109375,0.0010986328125
1738772419192574000,9.806573974609375,-0.2552032470703125,-0.9678955078125,-0.0010528564453125
1738772419202564900,9.81656494140625,-0.2555389404296875,-0.9681396484375,-0.000274658203125
1738772419212556000,9.82655615234375,-0.255279541015625,-0.969085693359375,0.0003662109375
1738772419222547000,9.836546875,-0.2552947998046875,-0.9684906005859375,-0.0013885498046875
1738772419232538000,9.8465380859375,-0.25445556640625,-0.96881103515625,-0.0015716552734375
1738772419242530000,9.856530029296875,-0.2554473876953125,-0.9684600830078125,0.0008087158203125
1738772419252521000,9.86652099609375,-0.255035400390625,-0.9680023193359375,0.0005035400390625
1738772419262511900,9.876511962890625,-0.2550506591796875,-0.9681243896484375,-0.0003509521484375
1738772419272503000,9.8865029296875,-0.25579833984375,-0.968170166015625,-0.001007080078125
1738772419282494500,9.896494384765624,-0.2541961669921875,-0.96875,-0.00115966796875
1738772419292485400,9.9064853515625,-0.2543487548828125,-0.9683990478515625,-0.0004425048828125
1738772419302477600,9.9164775390625,-0.2546539306640625,-0.9671478271484375,-0.001312255859375
1738772419312468500,9.926468505859376,-0.2550201416015625,-0.9670257568359375,-0.0001983642578125
1738772419322459400,9.93645947265625,-0.2552642822265625,-0.9676055908203125,-0.0009918212890625
1738772419332450300,9.9464501953125,-0.255218505859375,-0.9683380126953125,-0.0015716552734375
1738772419342441500,9.95644140625,-0.2550201416015625,-0.9676361083984375,-0.0000762939453125
1738772419352433400,9.966433349609375,-0.2546844482421875,-0.968048095703125,-0.0008087158203125
1738772419362424600,9.976424560546874,-0.2538299560546875,-0.9698486328125,-0.00079345703125
1738772419372415500,9.98641552734375,-0.2552947998046875,-0.969482421875,-0.00067138671875
1738772419382406400,9.996406494140626,-0.255340576171875,-0.9684600830078125,-0.001007080078125
1738772419392397300,10.006397216796875,-0.2535400390625,-0.968109130859375,-0.00115966796875
1738772419402389500,10.016389404296875,-0.25335693359375,-0.9691162109375,0.0002288818359375
1738772419412380400,10.02638037109375,-0.2555084228515625,-0.9678802490234375,0.000274658203125
1738772419422371300,10.036371337890625,-0.2548980712890625,-0.9687042236328125,-0.0002593994140625
1738772419432362500,10.046362548828125,-0.2537384033203125,-0.96881103515625,-0.0005340576171875
1738772419442353400,10.056353515625,-0.2550506591796875,-0.968048095703125,-0.0001678466796875
1738772419452344300,10.06634423828125,-0.2549591064453125,-0.96875,0.0006561279296875
1738772419462336500,10.07633642578125,-0.2560577392578125,-0.966888427734375,-0.000244140625
1738772419472327400,10.086327392578125,-0.256256103515625,-0.967559814453125,-0.0001068115234375
1738772419482318300,10.096318359375,-0.2529296875,-0.9684600830078125,0.0003662109375
1738772419492309500,10.1063095703125,-0.255767822265625,-0.9686126708984375,-0.000885009765625
1738772419502300400,10.116300537109375,-0.2545928955078125,-0.9687347412109375,-0.00048828125
1738772419512292400,10.126292236328124,-0.25433349609375,-0.969024658203125,-0.000579833984375
1738772419522283500,10.136283447265624,-0.2556915283203125,-0.9700469970703125,-0.000518798828125
1738772419532274400,10.1462744140625,-0.25604248046875,-0.9691925048828125,0.0003814697265625
1738772419542265300,10.156265380859375,-0.255462646484375,-0.9678955078125,-0.0004730224609375
1738772419552256500,10.166256591796875,-0.2542572021484375,-0.9685211181640625,-0.00152587890625
1738772419562248400,10.17624853515625,-0.2558441162109375,-0.9675750732421875,-0.000701904296875
1738772419572239400,10.1862392578125,-0.2549896240234375,-0.9687957763671875,-0.00054931640625
1738772419582230500,10.19623046875,-0.254791259765625,-0.967864990234375,0.0003509521484375
1738772419592221400,10.206221435546874,-0.2552490234375,-0.969207763671875,-0.0009307861328125
1738772419602212400,10.21621240234375,-0.255096435546875,-0.96917724609375,0.0001068115234375
1738772419612203500,10.22620361328125,-0.2562255859375,-0.9678192138671875,-0.00042724609375
1738772419622195500,10.236195556640626,-0.2542724609375,-0.9694366455078125,0.000396728515625
1738772419632186400,10.246186279296875,-0.2540435791015625,-0.96832275390625,-0.0009613037109375
1738772419642177500,10.256177490234375,-0.2555999755859375,-0.96893310546875,-0.001190185546875
1738772419652168400,10.26616845703125,-0.2551116943359375,-0.9688262939453125,-0.000457763671875
1738772419662159400,10.276159423828124,-0.254119873046875,-0.968048095703125,-0.0009613037109375
1738772419672151600,10.286151611328124,-0.2548828125,-0.9683074951171875,-0.000457763671875
1738772419682142500,10.296142578125,-0.2564239501953125,-0.96917724609375,-0.0004425048828125
1738772419692133400,10.30613330078125,-0.254638671875,-0.9677734375,0.001373291015625
1738772419702124500,10.31612451171875,-0.2557525634765625,-0.968658447265625,0.0007171630859375
1738772419712115500,10.326115478515625,-0.255035400390625,-0.968170166015625,-0.000457763671875
1738772419722106400,10.3361064453125,-0.2543792724609375,-0.96868896484375,-0.0010223388671875
1738772419732098600,10.3460986328125,-0.2552947998046875,-0.968994140625,0.001068115234375
1738772419742089500,10.35608935546875,-0.255096435546875,-0.9686126708984375,0.0001983642578125
1738772419752080400,10.366080322265624,-0.2554779052734375,-0.969696044921875,-0.0011138916015625
1738772419762071600,10.376071533203126,-0.255859375,-0.9678497314453125,-0.000732421875
1738772419772062500,10.3860625,-0.255462646484375,-0.9683990478515625,-0.001739501953125
1738772419782054400,10.396054443359375,-0.254791259765625,-0.9683074951171875,0.0000762939453125
1738772419792045600,10.406045654296875,-0.2564849853515625,-0.9691009521484375,0.0002899169921875
1738772419802036500,10.416036376953125,-0.2551727294921875,-0.9692840576171875,-0.0000762939453125
1738772419812027400,10.42602734375,-0.25592041015625,-0.96820068359375,-0.0008697509765625
1738772419822018300,10.436018310546874,-0.25433349609375,-0.9692840576171875,-0.000762939453125
1738772419832010500,10.446010498046874,-0.253997802734375,-0.967498779296875,-0.0000152587890625
1738772419842001400,10.45600146484375,-0.25677490234375,-0.96771240234375,-0.00054931640625
1738772419851992600,10.46599267578125,-0.25469970703125,-0.9683074951171875,-0.00030517578125
1738772419861983500,10.4759833984375,-0.2547454833984375,-0.968048095703125,-0.001495361328125
1738772419871974400,10.485974365234375,-0.2544403076171875,-0.96923828125,-0.000579833984375
1738772419881965300,10.49596533203125,-0.253875732421875,-0.96771240234375,0.0004730224609375
1738772419891957500,10.50595751953125,-0.2552032470703125,-0.9684295654296875,-0.000457763671875
1738772419901948400,10.515948486328124,-0.2558135986328125,-0.9679412841796875,0.000762939453125
1738772419911939300,10.525939208984376,-0.255279541015625,-0.9688873291015625,-0.000762939453125
1738772419921930500,10.535930419921876,-0.2542572021484375,-0.96856689453125,-0.000732421875
1738772419931921400,10.54592138671875,-0.255279541015625,-0.96881103515625,-0.00042724609375
1738772419941913600,10.55591357421875,-0.256256103515625,-0.9674224853515625,-0.0009307861328125
1738772419951904500,10.565904541015625,-0.2535858154296875,-0.9685516357421875,-0.0014495849609375
1738772419961895400,10.5758955078125,-0.2542572021484375,-0.9685821533203125,-0.0008392333984375
1738772419971886300,10.58588623046875,-0.2577667236328125,-0.96875,-0.000030517578125
1738772419981877500,10.59587744140625,-0.2538299560546875,-0.9683990478515625,0.0006103515625
1738772419991869400,10.605869384765626,-0.256683349609375,-0.96759033203125,-0.0012054443359375
1738772420001860400,10.6158603515625,-0.254302978515625,-0.967864990234375,0.0000762939453125
1738772420011851500,10.6258515625,-0.2544708251953125,-0.968048095703125,0.0005035400390625
1738772420021842400,10.635842529296875,-0.2569427490234375,-0.968780517578125,-0.00146484375
1738772420031833300,10.645833251953125,-0.2535552978515625,-0.9683685302734375,-0.0003814697265625
1738772420041824500,10.655824462890624,-0.2562713623046875,-0.9690704345703125,-0.0015716552734375
1738772420051816400,10.66581640625,-0.255706787109375,-0.969207763671875,-0.0001220703125
1738772420061807400,10.675807373046876,-0.253692626953125,-0.9688720703125,0.0002593994140625
1738772420071798500,10.685798583984376,-0.254638671875,-0.9687957763671875,0.0012054443359375
1738772420081789400,10.69578955078125,-0.2567291259765625,-0.9683990478515625,0.00030517578125
1738772420091780400,10.7057802734375,-0.255218505859375,-0.9680938720703125,-0.000152587890625
1738772420101772500,10.7157724609375,-0.255767822265625,-0.968353271484375,0.000457763671875
1738772420111763500,10.725763427734375,-0.25396728515625,-0.9683380126953125,-0.0018310546875
1738772420121754400,10.73575439453125,-0.254119873046875,-0.96875,0.0001678466796875
1738772420131745500,10.74574560546875,-0.2558135986328125,-0.9690399169921875,0.000640869140625
1738772420141736400,10.755736328125,-0.2554931640625,-0.9682464599609375,-0.0005950927734375
1738772420151728400,10.765728271484376,-0.254180908203125,-0.968963623046875,0.000885009765625
1738772420161719600,10.775719482421875,-0.25445556640625,-0.96826171875,0.0007171630859375
1738772420171710500,10.78571044921875,-0.2557525634765625,-0.968292236328125,-0.00048828125
1738772420181701400,10.795701416015625,-0.2555084228515625,-0.96820068359375,-0.001251220703125
1738772420191692500,10.805692626953125,-0.25372314453125,-0.96844482421875,0.0003814697265625
1738772420201683500,10.815683349609374,-0.2543182373046875,-0.9690704345703125,-0.00067138671875
1738772420211675400,10.82567529296875,-0.25439453125,-0.96868896484375,0.0004730224609375
1738772420221666600,10.83566650390625,-0.255706787109375,-0.968780517578125,0.0007171630859375
1738772420231657500,10.845657470703125,-0.25555419921875,-0.968475341796875,-0.00054931640625
1738772420241648400,10.8556484375,-0.2545166015625,-0.9688568115234375,-0.0005340576171875
1738772420251639600,10.8656396484375,-0.2532196044921875,-0.96844482421875,-0.000396728515625
1738772420261631500,10.875631591796875,-0.2545623779296875,-0.9698333740234375,0.000152587890625
1738772420271622400,10.885622314453125,-0.25518798828125,-0.968536376953125,-0.0000457763671875
1738772420281613800,10.89561376953125,-0.2537078857421875,-0.9679107666015625,0.00006103515625
1738772420291604700,10.905604736328126,-0.2547454833984375,-0.96893310546875,-0.00177001953125
1738772420301595600,10.915595703125,-0.2557525634765625,-0.9689483642578125,-0.0008544921875
1738772420311586800,10.9255869140625,-0.2548370361328125,-0.968414306640625,-0.0009918212890625
1738772420321578800,10.935578857421875,-0.2553863525390625,-0.9697723388671875,-0.00018310546875
1738772420331569700,10.945569580078125,-0.2544403076171875,-0.9698028564453125,0.0002899169921875
1738772420341560800,10.955560791015625,-0.255157470703125,-0.9676361083984375,0.000457763671875
1738772420351551700,10.9655517578125,-0.2548065185546875,-0.9684600830078125,-0.0012664794921875
1738772420361542700,10.975542724609374,-0.253387451171875,-0.9690399169921875,0.000579833984375
1738772420371534800,10.985534912109374,-0.25433349609375,-0.96844482421875,-0.00091552734375
1738772420381525800,10.99552587890625,-0.254852294921875,-0.9679718017578125,0.0003814697265625
1738772420391516700,11.0055166015625,-0.2556304931640625,-0.9673919677734375,-0.0011138916015625
1738772420401507800,11.0155078125,-0.25494384765625,-0.9687957763671875,0.00048828125
1738772420411498800,11.025498779296875,-0.2558441162109375,-0.969482421875,-0.00079345703125
1738772420421489700,11.03548974609375,-0.2555694580078125,-0.9680633544921875,-0.0003814697265625
1738772420431481900,11.04548193359375,-0.25384521484375,-0.9683074951171875,0.000244140625
1738772420441472800,11.05547265625,-0.2554779052734375,-0.968353271484375,-0.0010986328125
1738772420451463700,11.065463623046876,-0.253204345703125,-0.9689483642578125,-0.000152587890625
1738772420461454600,11.07545458984375,-0.2559967041015625,-0.96893310546875,-0.0002899169921875
1738772420471445800,11.08544580078125,-0.2565765380859375,-0.9685516357421875,-0.00079345703125
1738772420481437700,11.095437744140625,-0.2554168701171875,-0.9681549072265625,0.0000762939453125
1738772420491428900,11.105428955078125,-0.2567596435546875,-0.9683990478515625,-0.0001220703125
1738772420501419800,11.115419677734375,-0.2541961669921875,-0.968963623046875,-0.0007781982421875
1738772420511410700,11.12541064453125,-0.2537078857421875,-0.968597412109375,0.0001983642578125
1738772420521401600,11.135401611328126,-0.2554168701171875,-0.9685211181640625,-0.0008087158203125
1738772420531393800,11.145393798828126,-0.2537384033203125,-0.968048095703125,-0.0005340576171875
1738772420541384700,11.155384765625,-0.2544097900390625,-0.9688262939453125,-0.0003204345703125
1738772420551375600,11.165375732421875,-0.2558441162109375,-0.9686279296875,-0.000518798828125
1738772420561366800,11.17536669921875,-0.254150390625,-0.968658447265625,-0.001220703125
1738772420571357700,11.185357666015625,-0.2558441162109375,-0.96856689453125,-0.000579833984375
1738772420581348600,11.1953486328125,-0.2550506591796875,-0.96868896484375,-0.00048828125
1738772420591340800,11.2053408203125,-0.2536773681640625,-0.9688568115234375,-0.0011444091796875
1738772420601331700,11.215331787109376,-0.254791259765625,-0.9683685302734375,-0.000274658203125
1738772420611322600,11.225322509765626,-0.254852294921875,-0.9691925048828125,-0.001007080078125
1738772420621313800,11.235313720703125,-0.2540130615234375,-0.9698944091796875,-0.0001220703125
1738772420631304700,11.2453046875,-0.2547760009765625,-0.9699249267578125,0.0005950927734375
1738772420641296600,11.255296630859375,-0.25457763671875,-0.9680633544921875,-0.002593994140625
1738772420651287800,11.265287841796875,-0.2537384033203125,-0.968841552734375,-0.001953125
1738772420661278700,11.27527880859375,-0.2546539306640625,-0.968963623046875,-0.001739501953125
1738772420671269600,11.28526953125,-0.2545318603515625,-0.96807861328125,0.001190185546875
1738772420681260800,11.2952607421875,-0.2559814453125,-0.9673309326171875,-0.0003509521484375
1738772420691251700,11.305251708984375,-0.2541656494140625,-0.9691619873046875,0.0001678466796875
1738772420701243600,11.31524365234375,-0.254791259765625,-0.9683074951171875,-0.0003662109375
1738772420711234800,11.32523486328125,-0.255767822265625,-0.968658447265625,-0.0018768310546875
1738772420721225700,11.335225830078125,-0.25384521484375,-0.96807861328125,0.000457763671875
1738772420731216600,11.345216552734374,-0.2558746337890625,-0.96844482421875,-0.0001068115234375
1738772420741207800,11.355207763671874,-0.2552947998046875,-0.969024658203125,0.0003509521484375
1738772420751199700,11.36519970703125,-0.2548675537109375,-0.9680938720703125,-0.0018157958984375
1738772420761190700,11.375190673828126,-0.253997802734375,-0.9680938720703125,-0.0011444091796875
1738772420771181800,11.385181884765625,-0.2545318603515625,-0.9688873291015625,0.0001983642578125
1738772420781172700,11.3951728515625,-0.2555389404296875,-0.96923828125,0.000030517578125
1738772420791163600,11.40516357421875,-0.2542572021484375,-0.9686126708984375,0.0001373291015625
1738772420801155800,11.41515576171875,-0.2568817138671875,-0.9680023193359375,-0.0005340576171875
1738772420811146800,11.425146728515625,-0.2545318603515625,-0.9684295654296875,-0.0003204345703125
1738772420821137700,11.4351376953125,-0.254638671875,-0.967926025390625,-0.0002899169921875
1738772420831128800,11.44512890625,-0.2548370361328125,-0.9697113037109375,-0.000579833984375
1738772420841119700,11.45511962890625,-0.2535858154296875,-0.9688720703125,-0.000946044921875
1738772420851110700,11.465110595703125,-0.256256103515625,-0.96881103515625,-0.0011444091796875
1738772420861102800,11.475102783203125,-0.2550811767578125,-0.9671173095703125,-0.0003662109375
1738772420871093800,11.48509375,-0.254669189453125,-0.96893310546875,0.0000152587890625
1738772420881084700,11.495084716796875,-0.2576751708984375,-0.9685821533203125,-0.0002593994140625
1738772420891075800,11.505075927734374,-0.2547149658203125,-0.9680938720703125,0.0000457763671875
1738772420901066800,11.515066650390626,-0.2552947998046875,-0.96881103515625,-0.001495361328125
1738772420911058700,11.52505859375,-0.2545318603515625,-0.9694671630859375,-0.0016632080078125
1738772420921049900,11.5350498046875,-0.253753662109375,-0.968505859375,0.0007781982421875
1738772420931040800,11.545040771484375,-0.2540740966796875,-0.96820068359375,0.0003204345703125
1738772420941031700,11.55503173828125,-0.2555694580078125,-0.96844482421875,0.0009307861328125
1738772420951022600,11.565022705078125,-0.254638671875,-0.9686737060546875,-0.00103759765625
1738772420961013800,11.575013671875,-0.2537689208984375,-0.969635009765625,-0.0000152587890625
1738772420971005700,11.585005615234374,-0.254608154296875,-0.9683074951171875,-0.0016326904296875
1738772420980996900,11.594996826171876,-0.25445556640625,-0.9683837890625,-0.0005035400390625
1738772420990987800,11.60498779296875,-0.255859375,-0.9674530029296875,0.0004119873046875
1738772421000978700,11.614978759765625,-0.254119873046875,-0.9675445556640625,-0.00030517578125
1738772421010969600,11.624969482421875,-0.25433349609375,-0.9679412841796875,0.0002593994140625
1738772421020961800,11.6349619140625,-0.2578887939453125,-0.9691162109375,0.0000457763671875
1738772421030952700,11.64495263671875,-0.2551116943359375,-0.968048095703125,-0.0001678466796875
1738772421040943900,11.65494384765625,-0.254730224609375,-0.9686737060546875,0.00091552734375
1738772421050934800,11.664934814453124,-0.2543182373046875,-0.968719482421875,-0.00054931640625
1738772421060925700,11.67492578125,-0.253814697265625,-0.9665069580078125,-0.0002899169921875
1738772421070916600,11.68491650390625,-0.257843017578125,-0.96820068359375,-0.0000762939453125
1738772421080908800,11.69490869140625,-0.25494384765625,-0.96905517578125,0.0000762939453125
1738772421090899700,11.704899658203125,-0.2540283203125,-0.9684906005859375,-0.00042724609375
1738772421100890600,11.714890625,-0.2559356689453125,-0.96856689453125,-0.0016021728515625
1738772421110881800,11.7248818359375,-0.2537078857421875,-0.9694061279296875,0.000213623046875
1738772421120872700,11.734872802734374,-0.2545623779296875,-0.969085693359375,-0.000244140625
1738772421130865000,11.744864990234374,-0.2544708251953125,-0.9677581787109375,-0.000396728515625
1738772421140855800,11.754855712890626,-0.255523681640625,-0.9686737060546875,-0.000640869140625
1738772421150846700,11.7648466796875,-0.2548828125,-0.9686431884765625,0.0001220703125
1738772421160837600,11.774837646484375,-0.254638671875,-0.969146728515625,0.0000762939453125
1738772421170828800,11.784828857421875,-0.2555694580078125,-0.9683837890625,-0.0028533935546875
1738772421180819700,11.79481982421875,-0.2541656494140625,-0.9694671630859375,-0.00048828125
1738772421190811600,11.804811767578125,-0.25531005859375,-0.96875,0.0010833740234375
1738772421200802800,11.814802734375,-0.2554779052734375,-0.9688720703125,-0.0001983642578125
1738772421210793700,11.824793701171876,-0.2544708251953125,-0.970611572265625,0.000091552734375
1738772421220784600,11.83478466796875,-0.2561187744140625,-0.9688262939453125,-0.0007781982421875
1738772421230775800,11.84477587890625,-0.2536773681640625,-0.9681549072265625,-0.0000152587890625
1738772421240767700,11.854767822265625,-0.2535400390625,-0.9691009521484375,0.00018310546875
1738772421250758700,11.864758544921875,-0.2550201416015625,-0.9684600830078125,-0.0016326904296875
1738772421260749800,11.874749755859375,-0.2553863525390625,-0.968109130859375,-0.000762939453125
1738772421270740700,11.88474072265625,-0.2549285888671875,-0.969482421875,-0.0005950927734375
1738772421280732000,11.89473193359375,-0.255950927734375,-0.968414306640625,-0.0012969970703125
1738772421290722800,11.904722900390626,-0.2542724609375,-0.9678955078125,-0.00018310546875
1738772421300715000,11.914715087890626,-0.25604248046875,-0.96807861328125,-0.000640869140625
1738772421310706000,11.924705810546875,-0.2545166015625,-0.9687957763671875,-0.000762939453125
1738772421320696800,11.93469677734375,-0.2541351318359375,-0.9673919677734375,0.0001678466796875
1738772421330687700,11.944687744140625,-0.258392333984375,-0.96697998046875,-0.0008544921875
1738772421340680000,11.954679931640625,-0.2533111572265625,-0.96893310546875,0.000701904296875
1738772421350670800,11.9646708984375,-0.2543182373046875,-0.9691619873046875,0.0001983642578125
1738772421360662000,11.974662109375,-0.257354736328125,-0.9684295654296875,-0.0009307861328125
1738772421370653000,11.98465283203125,-0.25360107421875,-0.96893310546875,-0.000518798828125
1738772421380643800,11.994643798828125,-0.2559051513671875,-0.968780517578125,0.00018310546875
1738772421390634800,12.004634765625,-0.255950927734375,-0.967315673828125,-0.0006256103515625
1738772421400627000,12.014626953125,-0.2523193359375,-0.9675750732421875,-0.0006561279296875
1738772421410617900,12.024617919921875,-0.2542877197265625,-0.9684906005859375,-0.00177001953125
1738772421420608800,12.03460888671875,-0.2557830810546875,-0.9668731689453125,0.0008697509765625
1738772421430600000,12.044599853515624,-0.2565460205078125,-0.9688262939453125,-0.0018463134765625
1738772421440590800,12.0545908203125,-0.2542724609375,-0.96844482421875,-0.0003509521484375
1738772421450583000,12.0645830078125,-0.253936767578125,-0.967498779296875,-0.0008544921875
1738772421460574000,12.074573974609375,-0.255340576171875,-0.9683685302734375,0.000518798828125
1738772421470564900,12.08456494140625,-0.2556304931640625,-0.9688262939453125,-0.0012664794921875
1738772421480555800,12.0945556640625,-0.2545166015625,-0.968475341796875,-0.000335693359375
1738772421490547000,12.104546875,-0.2555694580078125,-0.9676666259765625,-0.0006103515625
1738772421500537900,12.114537841796874,-0.256072998046875,-0.9677886962890625,0.0001220703125
1738772421510529800,12.12452978515625,-0.2540130615234375,-0.96820068359375,-0.0002593994140625
1738772421520521000,12.13452099609375,-0.2563934326171875,-0.969696044921875,-0.00030517578125
1738772421530512000,12.144511962890626,-0.254913330078125,-0.9687347412109375,0.0013275146484375
1738772421540502800,12.154502685546875,-0.2549896240234375,-0.968353271484375,-0.000946044921875
1738772421550494000,12.164493896484375,-0.2558746337890625,-0.9686737060546875,-0.000457763671875
1738772421560486000,12.17448583984375,-0.2546234130859375,-0.9683990478515625,0.0006561279296875
1738772421570476800,12.184476806640625,-0.2567901611328125,-0.96832275390625,-0.001068115234375
1738772421580468000,12.194468017578124,-0.25537109375,-0.9693450927734375,0.00006103515625
1738772421590459000,12.204458984375,-0.2545318603515625,-0.9690093994140625,0.00042724609375
1738772421600449800,12.21444970703125,-0.25457763671875,-0.96923828125,-0.001007080078125
1738772421610441000,12.22444091796875,-0.2533111572265625,-0.9694671630859375,-0.0013275146484375
1738772421620433000,12.234432861328125,-0.2566070556640625,-0.9678802490234375,0.0006103515625
1738772421630423800,12.244423828125,-0.254486083984375,-0.969329833984375,-0.000762939453125
1738772421640415000,12.2544150390625,-0.2554168701171875,-0.968841552734375,-0.00115966796875
1738772421650406000,12.264406005859374,-0.254730224609375,-0.9679412841796875,0.000335693359375
1738772421660396800,12.274396728515624,-0.2552032470703125,-0.9688568115234375,-0.0006561279296875
1738772421670389000,12.284388916015626,-0.2541656494140625,-0.969207763671875,-0.000732421875
1738772421680380000,12.2943798828125,-0.2539215087890625,-0.9681854248046875,0.0009307861328125
1738772421690370800,12.304370849609375,-0.256927490234375,-0.9694671630859375,-0.0001068115234375
1738772421700362000,12.314362060546875,-0.255645751953125,-0.9682769775390625,-0.000885009765625
1738772421710353000,12.324352783203125,-0.252899169921875,-0.96759033203125,-0.00201416015625
1738772421720343800,12.33434375,-0.2546234130859375,-0.9697418212890625,-0.000152587890625
1738772421730336000,12.3443359375,-0.257110595703125,-0.9679107666015625,0.0009613037109375
1738772421740327000,12.354326904296874,-0.2548370361328125,-0.96820068359375,-0.000152587890625
1738772421750317800,12.36431787109375,-0.2550811767578125,-0.9690093994140625,0.0005645751953125
1738772421760309000,12.37430908203125,-0.25653076171875,-0.9681396484375,-0.0005950927734375
1738772421770300000,12.3842998046875,-0.2540283203125,-0.9692840576171875,-0.0006561279296875
1738772421780290800,12.394290771484375,-0.2551116943359375,-0.9696197509765625,-0.0009002685546875
1738772421790283000,12.404282958984375,-0.2552642822265625,-0.966888427734375,-0.000457763671875
1738772421800274000,12.41427392578125,-0.2538604736328125,-0.9696502685546875,-0.00054931640625
1738772421810264800,12.424264892578124,-0.2566986083984375,-0.9686737060546875,-0.0006256103515625
1738772421820255700,12.434255859375,-0.2536163330078125,-0.9679412841796875,0.00146484375
1738772421830247000,12.444246826171875,-0.25396728515625,-0.9674835205078125,-0.001251220703125
1738772421840238800,12.45423876953125,-0.2565155029296875,-0.96795654296875,0
1738772421850230000,12.46422998046875,-0.253448486328125,-0.96875,0.00048828125
1738772421860221000,12.474220947265625,-0.25738525390625,-0.9690704345703125,0.000030517578125
1738772421870211800,12.4842119140625,-0.2553558349609375,-0.969085693359375,-0.0002593994140625
1738772421880202800,12.49420263671875,-0.2548065185546875,-0.9691009521484375,-0.000823974609375
1738772421890194000,12.50419384765625,-0.2559051513671875,-0.968841552734375,0.0009307861328125
1738772421900185900,12.514185791015626,-0.2545623779296875,-0.96868896484375,-0.0002288818359375
1738772421910176800,12.5241767578125,-0.2546539306640625,-0.9669647216796875,-0.000244140625
1738772421920168000,12.53416796875,-0.2562408447265625,-0.9688262939453125,-0.000152587890625
1738772421930158800,12.544158935546875,-0.2551422119140625,-0.9675140380859375,0.00042724609375
1738772421940149800,12.554149658203125,-0.2549285888671875,-0.968292236328125,-0.00091552734375
1738772421950142000,12.564141845703125,-0.25506591796875,-0.9686126708984375,-0.0009918212890625
1738772421960132900,12.5741328125,-0.2548675537109375,-0.9691925048828125,-0.00103759765625
1738772421970123800,12.584123779296876,-0.2566070556640625,-0.9678497314453125,-0.000396728515625
1738772421980115000,12.594114990234376,-0.2548370361328125,-0.9672393798828125,-0.0008087158203125
1738772421990105900,12.60410595703125,-0.2538909912109375,-0.968597412109375,0.0004119873046875
1738772422000097800,12.614097900390625,-0.255157470703125,-0.967987060546875,0.0008087158203125
1738772422010089000,12.6240888671875,-0.2548370361328125,-0.9678955078125,-0.001007080078125
1738772422020079900,12.634079833984375,-0.25537109375,-0.969970703125,-0.0015411376953125
1738772422030070800,12.64407080078125,-0.2538299560546875,-0.96929931640625,-0.0007781982421875
1738772422040062000,12.65406201171875,-0.2537994384765625,-0.968505859375,0.0000457763671875
1738772422050054000,12.664053955078124,-0.255645751953125,-0.9686737060546875,0.0005645751953125
1738772422060044800,12.674044921875,-0.25482177734375,-0.96893310546875,-0.0004425048828125
1738772422070036000,12.684035888671875,-0.25567626953125,-0.96893310546875,-0.00103759765625
1738772422080027000,12.69402685546875,-0.2557830810546875,-0.9688262939453125,-0.0000762939453125
1738772422090017800,12.704017822265625,-0.2545318603515625,-0.9680328369140625,-0.0004119873046875
1738772422100010000,12.714010009765625,-0.2537994384765625,-0.9690399169921875,-0.0005645751953125
1738772422110001000,12.7240009765625,-0.2560272216796875,-0.9677886962890625,0.000518798828125
1738772422119991800,12.73399169921875,-0.25408935546875,-0.967803955078125,-0.0001678466796875
1738772422129983000,12.74398291015625,-0.2542877197265625,-0.9686279296875,-0.000457763671875
1738772422139974000,12.753973876953125,-0.25634765625,-0.96917724609375,-0.0007476806640625
1738772422149964800,12.76396484375,-0.254425048828125,-0.9692230224609375,-0.0001068115234375
1738772422159957000,12.77395703125,-0.255584716796875,-0.96893310546875,0.00018310546875
1738772422169948000,12.783947998046875,-0.25616455078125,-0.9684906005859375,-0.0008087158203125
