time,seconds_elapsed,z,y,x
1738772409408700700,0.02270068359375,0.00039058492984622717,-0.00009915442205965519,0.0014211154775694013
1738772409418691600,0.032691650390625,0.00020072911866009235,-0.002139063784852624,-0.00039994920371100307
1738772409428682800,0.042682861328125,-0.001472268719226122,-0.00026899203658103943,0.0010916872415691614
1738772409438673700,0.052673583984375,0.00008957786485552788,0.000687184976413846,0.00008447695290669799
1738772409448665900,0.062665771484375,-0.0012561173643916845,0.0003297890070825815,-0.000254543439950794
1738772409458656800,0.07265673828125,-0.0015105465427041054,0.002219061367213726,0.0008549573249183595
1738772409468647700,0.082647705078125,-0.0005041378899477422,0.0008094506338238716,-0.0008723689243197441
1738772409478638600,0.092638671875,-0.0011898726224899292,0.00002058618701994419,0.00121245626360178
1738772409488629800,0.102629638671875,-0.00037601066287606955,0.00018730014562606812,0.00011709809768944979
1738772409498621700,0.11262158203125,0.001142780645750463,-0.0003994107246398926,0.0007586044957861304
1738772409508612600,0.122612548828125,0.0007270612986758351,0.0008770423009991646,-0.0004965432453900576
1738772409518603800,0.132603759765625,0.0003799565602093935,-0.0008752248249948025,-0.0017102831043303013
1738772409528594700,0.1425947265625,-0.0005079413531348109,-0.0002792093437165022,-0.0007800409803166986
1738772409538585600,0.152585693359375,-0.0009857227560132742,0.0000021047890186309814,0.0010074082529172301
1738772409548577800,0.162577880859375,0.0009562543127685785,0.0006559106986969709,0.0005315013695508242
1738772409558568700,0.172568603515625,0.00014832348097115755,-0.0011050011962652206,-0.0010037822648882866
1738772409568559600,0.1825595703125,-0.0004578119842335582,-0.0009638534393161535,0.0004772015381604433
1738772409578550800,0.19255078125,-0.0006706616259180009,-0.00031866948120296,0.0005840295925736427
1738772409588541700,0.202541748046875,-0.0005143340677022934,0.0013039943296462297,0.00029054927290417254
1738772409598533600,0.21253369140625,0.00030713260639458895,-0.00019851676188409328,-0.00032225032919086516
1738772409608524800,0.22252490234375,0.0004181864205747843,0.0012774073984473944,-0.0002447523584123701
1738772409618515700,0.232515625,0.0009296110365539789,0.000038842204958200455,-0.00013057015894446522
1738772409628506600,0.242506591796875,-0.00124486000277102,-0.0002051033079624176,-0.0010866450611501932
1738772409638497800,0.252497802734375,0.00014839787036180496,-0.0013678416144102812,0.0003277640207670629
1738772409648489700,0.26248974609375,-0.000961075013037771,0.0012420564889907837,-0.000002201646566390991
1738772409658480600,0.272480712890625,0.0017526359297335148,0.0005139715503901243,0.00007836433360353112
1738772409668471800,0.282471923828125,-0.0002069181064143777,-0.000462875934317708,-0.0017379114869982004
1738772409678462700,0.292462646484375,0.0011145566822960973,0.0003659944050014019,0.00008627810166217387
1738772409688453600,0.30245361328125,0.0019718282856047153,-0.00038075586780905724,-0.0008186640334315598
1738772409698445800,0.31244580078125,0.00008076790254563093,-0.00025854678824543953,0.0006250732112675905
1738772409708436700,0.322436767578125,0.0004046082030981779,0.0003483877517282963,-0.00125032477080822
1738772409718427600,0.332427734375,0.0009207418188452721,0.0012540081515908241,0.0016869441606104374
1738772409728418800,0.342418701171875,0.0007939753122627735,0.001304874662309885,-0.00012879908899776638
1738772409738409700,0.35240966796875,-0.0011923718266189098,-0.0002482996787875891,-0.00006413244409486651
1738772409748401700,0.362401611328125,0.00040073110722005367,0.00095704710111022,0.00030471535865217447
1738772409758392800,0.372392822265625,0.0005439847009256482,-0.0006562916096299887,0.00046975002624094486
1738772409768383700,0.3823837890625,-0.000017675920389592648,0.0009269574657082558,0.0016513945301994681
1738772409778374700,0.392374755859375,-0.0008961782441474497,-0.000748420599848032,-0.0003145296941511333
1738772409788365800,0.40236572265625,-0.0004690072382800281,-0.0011167358607053757,-0.0002143948368029669
1738772409798357800,0.412357666015625,0.0004640859551727772,-0.00011828937567770481,-0.00027354119811207056
1738772409808348700,0.4223486328125,-0.00007706834003329277,0.00048598158173263073,-0.0010522494558244944
1738772409818339800,0.43233984375,-0.0009424926829524338,0.0005083414725959301,-0.0015741696115583181
1738772409828330800,0.442330810546875,0.0007624630816280842,0.000881717074662447,0.0019145715050399303
1738772409838321700,0.45232177734375,0.00030639523174613714,0.0004015285521745682,0.0006043793400749564
1738772409848313900,0.46231396484375,-0.00031172443414106965,-0.00014122365973889828,0.0006081077735871077
1738772409858304800,0.4723046875,0.00019799917936325073,-0.000752829946577549,0.0014617086853832006
1738772409868295700,0.482295654296875,-0.0014054900966584682,-0.0001253893133252859,-0.0005412547034211457
1738772409878286800,0.492286865234375,0.00003896572161465883,0.0009551486000418663,0.00013753902749158442
1738772409888278800,0.50227880859375,0.0004368419758975506,0.0005961544811725616,-0.00022358560818247497
1738772409898269700,0.512269775390625,0.0012928270734846592,0.00005648331716656685,-0.0008409318397752941
1738772409908260900,0.5222607421875,0.0036830143071711063,0.0003267941065132618,0.0009274071198888123
1738772409918251800,0.532251708984375,0.0007027395768091083,0.000018440652638673782,-0.001182127627544105
1738772409928242700,0.54224267578125,0.0009416252141818404,-0.000024969223886728287,0.0002911330375354737
1738772409938235000,0.55223486328125,0.001159029663540423,-0.001799865160137415,0.00023050658637657762
1738772409948225800,0.562225830078125,0.002538280561566353,0.00008778320625424385,0.0004297110135667026
1738772409958216700,0.572216796875,0.002527098171412945,-0.00011091469787061214,-0.0006297128275036812
1738772409968208000,0.582207763671875,0.001863704645074904,-0.00163956917822361,0.00016284393495880067
1738772409978198800,0.59219873046875,0.00300338352099061,-0.00045700743794441223,0.0020896545611321926
1738772409988190700,0.602190673828125,0.001689380151219666,-0.0011257273145020008,-0.0001356827560812235
1738772409998182000,0.612181884765625,0.0017079192912206054,-0.0001946212723851204,0.00004043668741360307
1738772410008172800,0.6221728515625,0.0013459956971928477,-0.00034402450546622276,0.0007682786090299487
1738772410018163700,0.632163818359375,0.0009368234314024448,0.0009875241667032242,0.00019556586630642414
1738772410028155000,0.64215478515625,0.003440727246925235,-0.0006338080856949091,-0.0014657140709459782
1738772410038146800,0.652146728515625,0.00023619807325303555,-0.0011103323195129633,0.00042534575914032757
1738772410048137700,0.6621376953125,0.003024527570232749,0.00006864918395876884,0.0009811475174501538
1738772410058129000,0.67212890625,0.0014441570965573192,-0.00030618696473538876,0.0004649470211006701
1738772410068119800,0.682119873046875,0.001585837104357779,-0.00029180594719946384,0.001083865761756897
1738772410078110700,0.69211083984375,0.0016404320485889912,-0.00035812915302813053,0.001833223970606923
1738772410088103000,0.70210302734375,0.0016135340556502342,-0.001534713665023446,0.0002558337291702628
1738772410098093800,0.71209375,-0.0011608442291617393,-0.0009857101831585169,-0.0019432830158621073
1738772410108084700,0.722084716796875,-0.00255021546036005,0.00024387147277593613,-0.001365377102047205
1738772410118076000,0.732075927734375,0.000950472429394722,-0.0003874346148222685,0.00011922232806682587
1738772410128066800,0.74206689453125,-0.0003933585830964148,0.0008562617003917694,0.002672394970431924
1738772410138058800,0.752058837890625,0.0013232139172032475,0.0000881892628967762,0.00047757726861163974
1738772410148050000,0.7620498046875,-0.0016557980561628938,-0.0005621546879410744,-0.0022654784843325615
1738772410158040800,0.772040771484375,0.00039416365325450897,0.0013339831493794918,0.0010952420998364687
1738772410168031700,0.78203173828125,0.0007691365899518132,0.0008370373398065567,0.001559697324410081
1738772410178023000,0.79202294921875,0.0007929727435112,-0.000958059448748827,0.0009331897599622607
1738772410188014800,0.802014892578125,-0.001154863159172237,0.001452634111046791,0.0002990911598317325
1738772410198005800,0.812005859375,-0.0017586825415492058,-0.0008942512795329094,-0.000702931429259479
1738772410207997000,0.821996826171875,0.0008544110460206866,-0.0007536362390965223,-0.0015253154560923576
1738772410217987800,0.83198779296875,0.0007547452114522457,0.00012983987107872963,0.00010976399062201381
1738772410227978800,0.841978759765625,-0.0006231744191609323,0.00043264124542474747,0.001502330880612135
1738772410237971000,0.851970947265625,0.0014747283421456814,0.0002741524949669838,-0.00036251937854103744
1738772410247961900,0.8619619140625,-0.0007040037889964879,-0.000840913038700819,0.0012313826009631157
1738772410257952800,0.871952880859375,-0.000279263942502439,-0.0012345339637249708,-0.0011153296800330281
1738772410267944000,0.88194384765625,-0.00039804092375561595,-0.00035249488428235054,-0.0018873800290748477
1738772410277934300,0.891934326171875,0.0008699536556378007,0.00033218832686543465,0.0008062223787419498
1738772410287926500,0.901926513671875,0.001314168912358582,-0.0015860865823924541,-0.0005871435860171914
1738772410297917400,0.91191748046875,-0.0006745052523910999,0.00019890815019607544,0.00022918815375305712
1738772410307908400,0.921908447265625,0.0007612048648297787,-0.001290597952902317,0.00012825438170693815
1738772410317899500,0.9318994140625,0.000018215039744973183,-0.0006420200224965811,-0.00005789185524918139
1738772410327891500,0.941891357421875,0.0013902755454182625,-0.00038768816739320755,-0.0013889397960156202
1738772410337882600,0.951882568359375,0.0002561106812208891,0.00008416315540671349,0.0007346164784394205
1738772410347873500,0.96187353515625,0.000002045067958533764,0.000023443251848220825,-0.0005189334042370319
1738772410357864400,0.971864501953125,0.0017334807198494673,-0.0002250606194138527,0.0003376039967406541
1738772410367855400,0.98185546875,-0.00015203747898340225,-0.00012519210577011108,0.000912580406293273
1738772410377847600,0.99184765625,-0.0010561721865087748,-0.0003070295788347721,-0.000027242029318585992
1738772410387838500,1.00183837890625,0.001710053184069693,-0.0002721422351896763,-0.0012317898217588663
1738772410397829400,1.011829345703125,-0.00019424606580287218,0.002528783865272999,0.0018893275409936905
1738772410407820500,1.021820556640625,-0.0005820022779516876,-0.00020788051187992096,-0.0011871561873704195
1738772410417811500,1.0318115234375,-0.00046868546633049846,0.00010635983198881149,-0.0035285954363644123
1738772410427803400,1.041803466796875,0.00039843982085585594,-0.000021738465875387192,0.001818765769712627
1738772410437794600,1.051794677734375,0.0015905065229162574,-0.00033509056083858013,0.0008051456534303725
1738772410447785500,1.061785400390625,-0.0010156627977266908,0.000317384023219347,-0.00185881438665092
1738772410457776400,1.0717763671875,-0.0010749682551249862,-0.0001944561954587698,-0.00010284023301210254
1738772410467767600,1.081767578125,0.00003983092028647661,0.0003672041930258274,0.0006566933006979525
1738772410477759500,1.091759521484375,0.0009235067991539836,-0.00023873522877693176,-0.0003347561869304627
1738772410487750400,1.10175048828125,-0.000542297144420445,0.00011919368989765644,0.00048736162716522813
1738772410497741600,1.111741455078125,-0.0006113886483944952,-0.0003729166928678751,-0.0011752091813832521
1738772410507732500,1.121732421875,0.0005750495474785566,-0.00047012208960950375,-0.0010774711845442653
1738772410517723400,1.131723388671875,-0.0003452219534665346,0.0014129763003438711,0.0012645904207602143
1738772410527715300,1.14171533203125,0.0006574582075700164,0.0012665025424212217,-0.00011093233479186893
1738772410537706500,1.15170654296875,-0.00012357637751847506,-0.0009464100003242493,-0.0010846974328160286
1738772410547697400,1.161697509765625,-0.0022130925208330154,0.0004594726487994194,-0.0009310329332947731
1738772410557688600,1.1716884765625,-0.0002686443040147424,0.0003478445578366518,0.0020493282936513424
1738772410567679500,1.181679443359375,0.001152152195572853,-0.0003586921375244856,-0.00024125650816131383
1738772410577671400,1.19167138671875,-0.0010401264298707247,0.0007992209866642952,0.0010892816353589296
1738772410587662300,1.201662353515625,-0.0016494577284902334,0.0002902909182012081,-0.000528056058101356
1738772410597653500,1.211653564453125,-0.0011275249999016523,-0.001917745335958898,0.0003247756394557655
1738772410607644400,1.22164453125,0.00002615631092339754,-0.0009033472742885351,0.00046139577170833945
1738772410617635600,1.231635498046875,-0.0006804912118241191,-0.00010756263509392738,-0.0002375407493673265
1738772410627627300,1.241627197265625,-0.0002823485992848873,0.0002578231506049633,-0.0014852317981421947
1738772410637618200,1.2516181640625,0.0013826414942741394,0.00002128537744283676,-0.0010938491905108094
1738772410647609600,1.261609619140625,-0.0011454974301159382,0.0007438010070472956,0.00024145972565747797
1738772410657600500,1.2716005859375,0.0009393383515998721,0.00017066625878214836,-0.0009679305367171764
1738772410667591400,1.28159130859375,0.0010591807076707482,-0.0008256225846707821,-0.00028136768378317356
1738772410677583400,1.291583251953125,-0.0007046914543025196,0.0017127462197095156,0.00012053331010974944
1738772410687574300,1.30157421875,-0.000542504945769906,0.0006813036743551493,-0.0008227583020925522
1738772410697565400,1.3115654296875,0.0013050962006673217,-0.000277545303106308,0.0007783161127008498
1738772410707556600,1.321556640625,0.0004704615566879511,-0.00032708002254366875,0.000645424413960427
1738772410717547500,1.331547607421875,0.0008563663577660918,-0.0004234327934682369,-0.000823872396722436
1738772410727539200,1.341539306640625,-0.0005761480424553156,-0.0006162456702440977,-0.0003229317953810096
1738772410737530400,1.3515302734375,0.00022598507348448038,-0.0005786691326647997,0.000521901820320636
1738772410747521300,1.361521240234375,0.0009439733112230897,0.0012490584049373865,-0.0010512273292988539
1738772410757512400,1.371512451171875,-0.00027347845025360584,0.00012562074698507786,0.00041279965080320835
1738772410767503600,1.381503662109375,0.0012051085941493511,0.00008780392818152905,-0.00014007255958858877
1738772410777495300,1.391495361328125,0.0004974700277671218,-0.0007675290107727051,-0.00011270245886407793
1738772410787486200,1.401486328125,-0.0004788448568433523,-0.000660203630104661,-0.0011665152851492167
1738772410797477400,1.411477294921875,-0.0005579674034379423,-0.0004050447605550289,-0.0003586650127544999
1738772410807468300,1.42146826171875,0.0006247423589229584,0.000957162119448185,0.0006876910338178277
1738772410817459500,1.43145947265625,-0.0000749609898775816,-0.0010699918493628502,-0.0008576889522373676
1738772410827451400,1.441451416015625,0.0008776517352089286,-0.0007759789004921913,0.0009279605583287776
1738772410837442300,1.4514423828125,0.001625586999580264,0.000856929924339056,0.0011712992563843727
1738772410847433200,1.46143310546875,-0.0008247874211519957,-0.001547371968626976,-0.0006716081406921148
1738772410857424400,1.47142431640625,-0.00023272342514246702,0.0007265112362802029,0.0005469161551445723
1738772410867415600,1.48141552734375,-0.00026441505178809166,-0.00026791333220899105,-0.0013250196352601051
1738772410877407200,1.4914072265625,0.00043581449426710606,-0.00008713733404874802,-0.000722985016182065
1738772410887398400,1.5013984375,0.000017698155716061592,0.000947500579059124,-0.0005538742989301682
1738772410897389300,1.511389404296875,-0.00013061973731964827,-0.0013175462372601032,-0.0009343150304630399
1738772410907380200,1.521380126953125,0.00015859957784414291,0.00020311889238655567,0.0007442754576914012
1738772410917371400,1.531371337890625,0.001337890513241291,-0.0008517918176949024,0.0005074688815511763
1738772410927363300,1.54136328125,-0.0010072891600430012,0.0010169486049562693,0.0008089387556537986
1738772410937354200,1.551354248046875,0.002196049550548196,-0.00115674315020442,0.0012118194717913866
1738772410947345400,1.561345458984375,0.0002868293086066842,-0.0007428878452628851,-0.0007916765753179789
1738772410957336300,1.57133642578125,-0.001228446257300675,0.0008807515259832144,-0.0011601346777752042
1738772410967327200,1.5813271484375,0.00016172381583601236,-0.0012303362600505352,-0.0034549804404377937
1738772410977318400,1.591318359375,-0.0017298799939453602,0.00029883277602493763,0.0001553347974549979
1738772410987310300,1.601310302734375,0.0004424604121595621,0.001032267464324832,-0.0007304325699806213
1738772410997301200,1.61130126953125,0.0007207976887002587,-0.0004943874664604664,0.00036928680492565036
1738772411007292400,1.62129248046875,-0.0012808340834453702,-0.0007266150787472725,0.00010563386604189873
1738772411017283300,1.631283447265625,0.0002140487777069211,0.0005023560952395201,0.00007188439485616982
1738772411027274500,1.6412744140625,0.000457994407042861,-0.0007091157604008913,0.0014585923636332154
1738772411037266400,1.651266357421875,-0.00034622353268787265,0.00011012796312570572,-0.0002459338284097612
1738772411047257300,1.66125732421875,-0.0013094889000058174,-0.0001569869928061962,-0.0006898827850818634
1738772411057248300,1.671248291015625,-0.0003208781126886606,-0.0008397628553211689,-0.00048263638745993376
1738772411067239400,1.681239501953125,-0.00015602842904627323,-0.00001684599556028843,0.0000220326182898134
1738772411077230300,1.691230224609375,0.00033101695589721203,0.0006005626637488604,-0.0013219282263889909
1738772411087222300,1.70122216796875,-0.00043171236757189035,-0.0009307547006756067,-0.00015652889851480722
1738772411097213400,1.71121337890625,0.0004747016355395317,-0.0009163571521639824,0.0007549835136160254
1738772411107204400,1.721204345703125,0.0001553886104375124,-0.00022500054910779,-0.0015885982429608703
1738772411117195300,1.7311953125,-0.00008033215999603271,0.0005170472431927919,0.000551675446331501
1738772411127186200,1.741186279296875,-0.0001564985141158104,0.00016657519154250622,-0.00025446334620937705
1738772411137178400,1.751178466796875,-0.001652069273404777,0.0004827834200114012,0.0011715785367414355
1738772411147169300,1.761169189453125,-0.001077891793102026,0.00022552232258021832,-0.0011152777587994933
1738772411157160400,1.771160400390625,-0.0014811595901846886,0.00043198210187256336,0.00020990733173675835
1738772411167151400,1.7811513671875,-0.00023320235777646303,0.0009073566179722548,0.0007438710890710354
1738772411177142300,1.791142333984375,-0.0004884615773335099,0.0006301321554929018,0.0012112342519685626
1738772411187134500,1.801134521484375,0.0007363260956481099,-0.0001850612461566925,0.0012916617561131716
1738772411197125400,1.81112548828125,0.0007492650765925646,0.0005601882003247738,-0.0002335257304366678
1738772411207116300,1.8211162109375,-0.0005668692174367607,0.00003314879722893238,0.0003739412932191044
1738772411217107200,1.831107177734375,0.0006717614596709609,0.0008215468842536211,-0.00042218712042085826
1738772411227098400,1.841098388671875,0.001659527886658907,-0.0005358662456274033,-0.0004964893450960517
1738772411237090300,1.85109033203125,0.0014627164928242564,0.0004355518613010645,0.0004156310169491917
1738772411247081500,1.86108154296875,-0.000050758011639118195,0.0006382183637470007,-0.0008112873183563352
1738772411257072400,1.871072265625,-0.0005204040789976716,-0.00006510410457849503,-0.00027004501316696405
1738772411267063300,1.881063232421875,0.0008687007939442992,-0.0008821620140224695,-0.00026684923795983195
1738772411277054200,1.89105419921875,0.0004295490216463804,-0.000059691257774829865,-0.000493473606184125
1738772411287046400,1.90104638671875,-0.0010279989801347256,0.002596279140561819,0.00011852080933749676
1738772411297037300,1.911037353515625,0.0008813820313662291,-0.001009807689115405,0.00024063294404186308
1738772411307028200,1.9210283203125,-0.0005966724129393697,0.0001864840742200613,-0.001519183861091733
1738772411317019400,1.931019287109375,-0.0001309249782934785,0.0002596927806735039,0.00024956639390438795
1738772411327010300,1.94101025390625,0.0010179628152400255,-0.00013179192319512367,-0.0003397911787033081
1738772411337002500,1.95100244140625,-0.0008108040783554316,-0.0005572570953518152,0.00013746439071837813
1738772411346993400,1.960993408203125,0.00047869852278381586,0.001273666275665164,-0.0003464319743216038
1738772411356984300,1.970984375,-0.0002738081384450197,0.0012229075655341148,0.0009183711372315884
1738772411366975200,1.980975341796875,0.0000891807721927762,-0.0002410321030765772,0.00037109156255610287
1738772411376966400,1.99096630859375,0.00032629002816975117,-0.0008896158542484045,-0.0019515522290021181
1738772411386957300,2.000957275390625,0.0006591851124539971,-0.0006736335344612598,0.0010580860543996096
1738772411396949200,2.01094921875,0.0005391145823523402,0.0005175240803509951,-0.00046368129551410675
1738772411406940400,2.0209404296875,-0.00048673502169549465,0.0004131279420107603,0.00020264158956706524
1738772411416931300,2.030931396484375,0.0009691050508990884,0.0011169218923896551,0.0004863684589508921
1738772411426922200,2.040922119140625,0.0015411520143970847,-0.0005233190022408962,0.0004051420546602458
1738772411436913400,2.050913330078125,0.0018942971946671605,0.0013154903426766396,-0.0009313946939073503
1738772411446905300,2.0609052734375,-0.0003747160080820322,-0.00036736088804900646,0.0011770299170166254
1738772411456896300,2.070896240234375,-0.0003667679848149419,0.0000017578713595867157,0.0004237258108332753
1738772411466887400,2.080887451171875,-0.00021869619376957417,-0.0003886616323143244,-0.001347009907476604
1738772411476878300,2.09087841796875,-0.0007996413623914123,-0.000013130484148859978,0.00017228233627974987
1738772411486869200,2.100869140625,0.001370302401483059,-0.00037026056088507175,0.00044152792543172836
1738772411496861400,2.110861328125,-0.00039366917917504907,0.00021332944743335247,0.0010699547128751874
1738772411506852400,2.120852294921875,0.0003392327344045043,-0.0007643168792128563,0.00044491078006103635
1738772411516843300,2.13084326171875,-0.00003171083517372608,-0.00035143643617630005,-0.00027941842563450336
1738772411526834400,2.14083447265625,0.0015968122752383351,0.00039797695353627205,-0.0003798195975832641
1738772411536825300,2.150825439453125,0.00016089947894215584,0.00007206480950117111,0.00015528092626482248
1738772411546817300,2.1608173828125,0.002264796756207943,0.00005502067506313324,0.0005353140295483172
1738772411556808400,2.170808349609375,-0.00214366614818573,0.0003649329300969839,-0.0011365633690729737
1738772411566799400,2.18079931640625,-0.000418736832216382,-0.0007075220346450806,-0.00023907804279588163
1738772411576790300,2.190790283203125,-0.00003402726724743843,0.0008755621965974569,0.00032851187279447913
1738772411586781400,2.200781494140625,-0.0013277909019961953,-0.0012741414830088615,-0.0004986659623682499
1738772411596773400,2.2107734375,-0.00008632615208625793,-0.002131466753780842,-0.0015472776722162962
1738772411606764300,2.220764404296875,-0.0001435840968042612,-0.0006829735357314348,-0.00028307517641223967
1738772411616755500,2.23075537109375,0.00044163409620523453,0.0010616290383040905,0.0010254087392240763
1738772411626746400,2.240746337890625,0.00008796632755547762,-0.0015304258558899164,-0.0005333393928594887
1738772411636737300,2.2507373046875,-0.0013945454265922308,-0.00040856399573385715,0.00020136967941652983
1738772411646728400,2.260728515625,-0.00011249969247728586,-0.0010157646611332893,0.00046875106636434793
1738772411656720400,2.270720458984375,0.0003558988682925701,-0.00005482439883053303,0.0006359162507578731
1738772411666711300,2.280711181640625,-0.0023794337175786495,-0.00015788874588906765,0.0010151504538953304
1738772411676702500,2.290702392578125,0.0003502302570268512,0.0001377237495034933,-0.0009148361859843135
1738772411686693400,2.300693359375,-0.00023832835722714663,-0.0000966342631727457,0.0004039612249471247
1738772411696684300,2.310684326171875,-0.000004381407052278519,0.0001153075136244297,0.0005676354630850255
1738772411706676500,2.320676513671875,-0.0005303556681610644,0.0001286230981349945,0.0009276948403567076
1738772411716667400,2.33066748046875,0.0008053855272009969,-0.0026794816367328167,0.0005450565950013697
1738772411726658300,2.340658203125,0.0010796909919008613,-0.0015079572331160307,0.00044279120629653335
1738772411736649500,2.3506494140625,0.0004760216688737273,-0.0007425348740071058,0.00015441080904565752
1738772411746640400,2.360640380859375,0.0010762980673462152,0.0008513669017702341,-0.0001478579652030021
1738772411756632300,2.37063232421875,0.0014665109338238835,0.0004663853906095028,-0.0008715149597264826
1738772411766623500,2.38062353515625,-0.0005548282060772181,0.0004847613163292408,0.00028988957637920976
1738772411776614400,2.390614501953125,-0.0010381980100646615,-0.0005743678193539381,0.00043930549873039126
1738772411786605300,2.400605224609375,0.0006585019873455167,0.002158035524189472,-0.000825962342787534
1738772411796596500,2.410596435546875,-0.0013830425450578332,0.0002690572291612625,0.0020266887731850147
1738772411806588400,2.42058837890625,-0.0009484146721661091,-0.000913386233150959,-0.000038858917832840234
1738772411816579300,2.430579345703125,0.0011707835365086794,0.0006612301804125309,0.0007986107375472784
1738772411826570500,2.440570556640625,-0.001123263267800212,0.00019011693075299263,-0.0012381747364997864
1738772411836561400,2.4505615234375,0.0025332486256957054,-0.0005989917553961277,-0.00008315729792229831
1738772411846552300,2.46055224609375,-0.00018051255028694868,0.00008544069714844227,-0.0004578640509862453
1738772411856544500,2.47054443359375,-0.00037736399099230766,0.0001759778242558241,0.0005759747000411153
1738772411866535400,2.480535400390625,-0.0010966837871819735,0.0019118261989206076,-0.000035220720747020096
1738772411876526300,2.4905263671875,-0.001753239193931222,-0.001132332719862461,0.0007752287201583385
1738772411886517500,2.500517578125,0.0015086005441844463,-0.0004007623065263033,-0.00014329551777336746
1738772411896508400,2.51050830078125,0.0006322026019915938,0.001298768911510706,0.0005334899760782719
1738772411906499300,2.520499267578125,0.0010417967569082975,-0.00046211318112909794,-0.00034348893677815795
1738772411916491500,2.530491455078125,0.00011894223280251026,0.00047135166823863983,0.00028799852589145303
1738772411926482400,2.540482421875,-0.0002712109126150608,0.00011022691614925861,0.00049918721197173
1738772411936473300,2.550473388671875,0.00031865143682807684,0.00017801113426685333,0.0011248866794630885
1738772411946464300,2.56046435546875,0.001455554855056107,-0.0006523625925183296,-0.0008210851810872555
1738772411956455400,2.570455322265625,-0.00011278304737061262,0.0006057440768927336,0.0005998765700496733
1738772411966447400,2.580447265625,-0.004225502721965313,0.00010080891661345959,0.0005221122410148382
1738772411976438500,2.5904384765625,-0.0032006525434553623,-0.0033332377206534147,-0.0028893472626805305
1738772411986429400,2.600429443359375,0.004903079941868782,-0.0016810125671327114,-0.0015628268010914326
1738772411996420400,2.61042041015625,0.001762072672136128,0.004202939569950104,0.011554122902452946
1738772412006411300,2.620411376953125,-0.004573055077344179,-0.000499670160934329,-0.002531336387619376
1738772412016403500,2.630403564453125,-0.0019189525628462434,-0.0040829917415976524,-0.010986358858644962
1738772412026394400,2.640394287109375,0.0019250542391091585,0.0016073842998594046,0.00627891393378377
1738772412036385300,2.65038525390625,0.0025372817181050777,0.003144871676340699,0.007982025854289532
1738772412046376400,2.66037646484375,-0.002280642744153738,-0.0016916953027248383,-0.004473045933991671
1738772412056367400,2.670367431640625,-0.00035882170777767897,-0.002578812651336193,-0.006089398171752691
1738772412066359600,2.680359619140625,-0.000754301086999476,0.0019416369032114744,0.007135859690606594
1738772412076350500,2.6903505859375,-0.0003327256999909878,0.0005226987414062023,0.0010451447451487184
1738772412086341400,2.70034130859375,0.0010449275141581893,-0.0011910453904420137,-0.005563755519688129
1738772412096332300,2.710332275390625,-0.0014804909005761147,0.0009649840649217367,0.00501201581209898
1738772412106323500,2.720323486328125,-0.00035583798307925463,-0.0007998929359018803,0.002976295305415988
1738772412116314400,2.730314453125,-0.0008765061502344906,-0.0015594449359923601,-0.004708174150437117
1738772412126306300,2.740306396484375,0.0016204735729843378,0.0013801520690321922,0.0017507902812212706
1738772412136297500,2.75029736328125,-0.0009127112571150064,0.0014547610189765692,0.003953980747610331
1738772412146288400,2.760288330078125,-0.0011119156843051314,-0.0022989646531641483,-0.0037348319310694933
1738772412156279300,2.770279296875,0.0004123987164348364,-0.001374539453536272,-0.0010501404758542776
1738772412166270500,2.7802705078125,0.0015399811090901494,0.00046863406896591187,0.0033235689625144005
1738772412176262400,2.790262451171875,-0.0010637728264555335,-0.0007212434429675341,-0.0021122335456311703
1738772412186253300,2.80025341796875,-0.0000067641958594322205,0.00014321878552436829,0.0021474927198141813
1738772412196244500,2.810244384765625,0.0016060513444244862,0.0013887532986700535,0.001976023195311427
1738772412206235400,2.8202353515625,-0.002573247067630291,-0.000991579843685031,0.0009648207342252135
1738772412216226300,2.830226318359375,0.0007671139901503921,-0.0011825331021100283,-0.006151428446173668
1738772412226218500,2.840218505859375,0.0016435602447018027,0.0018446817994117737,0.006314828526228666
1738772412236209400,2.85020947265625,0.0014407119015231729,0.0002881207037717104,0.0026823855005204678
1738772412246200300,2.860200439453125,-0.0023654778487980366,-0.0012032492086291313,-0.004901231732219458
1738772412256191500,2.87019140625,0.0009197471663355827,-0.00036656460724771023,0.00026172958314418793
1738772412266182400,2.880182373046875,0.0019836800638586283,0.0020577108953148127,0.004563800059258938
1738772412276174600,2.890174560546875,-0.0008021921385079622,0.0008968159090727568,0.002377617871388793
1738772412286165800,2.900165771484375,0.000041763647459447384,-0.00097858184017241,-0.005688298027962446
1738772412296156700,2.91015673828125,0.00017539132386446,-0.0012937074061483145,-0.0002033597556874156
1738772412306147600,2.920147705078125,-0.00029225985053926706,0.0008123202715069056,0.0060862279497087
1738772412316138500,2.930138427734375,-0.0018974975682795048,-0.001022607320919633,-0.003907603211700916
1738772412326129700,2.940129638671875,0.00006844790186733007,-0.0009224724490195513,-0.0015810655895620584
1738772412336121600,2.95012158203125,0.0008466881699860096,0.0012778234668076038,0.005772660952061415
1738772412346112800,2.96011279296875,-0.0015000894200056791,-0.000026859110221266747,0.0010356965940445662
1738772412356103700,2.970103759765625,-0.0014682773035019636,-0.0022631105966866016,-0.0065034981817007065
1738772412366094600,2.980094482421875,0.001052937121130526,0.001661855960264802,0.005212812684476376
1738772412376085500,2.99008544921875,-0.00042745465179905295,-0.0006107669323682785,0.0001991521567106247
1738772412386077700,3.00007763671875,0.00010650919284671545,-0.0018030641367658973,-0.0016730499919503927
1738772412396068600,3.010068603515625,0.0015560324536636472,0.00035362178459763527,0.000661637750454247
1738772412406059500,3.0200595703125,-0.003196112113073468,-0.0004498541820794344,0.0017972096102312207
1738772412416050700,3.03005078125,-0.0024316362105309963,-0.0012450821232050657,-0.004684176295995712
1738772412426041600,3.04004150390625,0.00003951089456677437,0.0008966319728642702,0.0001979306834982708
1738772412436033800,3.05003369140625,0.0018635792657732964,0.0006006872281432152,0.004337224643677473
1738772412446024700,3.060024658203125,0.000011084368452429771,-0.001962072681635618,-0.0018804576247930527
1738772412456015600,3.070015625,0.0002672638511285186,-0.0009556435979902744,-0.001268200110644102
1738772412466006500,3.080006591796875,0.0020260154269635677,0.000758366659283638,0.004785697907209396
1738772412475997700,3.089997802734375,0.0008684126660227776,-0.0002462295815348625,0.0005790769355371594
1738772412485988600,3.099988525390625,-0.0014874195912852883,-0.00034183706156909466,-0.0025056626182049513
1738772412495980500,3.10998046875,0.0012664425885304809,0.0008390313014388084,0.003088989295065403
1738772412505971700,3.1199716796875,0.0013876165030524135,0.001200688537210226,0.0027323919348418713
1738772412515962600,3.129962646484375,-0.000960545614361763,-0.001141874585300684,-0.0022508541587740183
1738772412525953500,3.13995361328125,0.0013018096797168255,0.0008299299515783787,0.0003843439044430852
1738772412535944700,3.14994482421875,-0.0017070577014237642,-0.0000394526869058609,0.0017719408497214317
1738772412545936600,3.1599365234375,0.00015129614621400833,-0.00018379604443907738,-0.0009133244166150689
1738772412555927600,3.169927490234375,-0.0004106336273252964,0.00003125867806375027,-0.0008898174855858088
1738772412565918700,3.179918701171875,-0.0007672309293411672,0.00031168945133686066,-0.00040672009345144033
1738772412575909600,3.18990966796875,-0.0000679665245115757,-0.00021687638945877552,0.0003670064907055348
1738772412585900500,3.199900634765625,0.0013781299348920584,-0.00013751420192420483,0.001082864124327898
1738772412595892700,3.209892822265625,0.000955885392613709,0.0017476491630077362,-0.0001722567976685241
1738772412605883600,3.219883544921875,0.00007704226300120354,0.0009058238938450813,0.001701276982203126
1738772412615874600,3.22987451171875,-0.0005226911162026227,-0.000463155098259449,-0.00011453832848928869
1738772412625865700,3.23986572265625,0.000062139006331563,0.00018878676928579807,-0.0007169453310780227
1738772412635856600,3.249856689453125,-0.0014449084410443902,0.00004291580989956856,0.00039483513683080673
1738772412645848600,3.2598486328125,-0.001084849121980369,0.0006386649329215288,0.0010329285869374871
1738772412655839700,3.26983984375,0.0013819944579154253,0.0008245764765888453,-0.00126734864898026
1738772412665830700,3.27983056640625,-0.0006254964391700923,0.0006570636760443449,0.0002727574319578707
1738772412675821600,3.289821533203125,0.00011321308556944132,0.00013308227062225342,-0.0008670842507854104
1738772412685812700,3.299812744140625,0.00018937955610454082,0.00007023150101304054,0.000044782093027606606
1738772412695803600,3.3098037109375,-0.0003964635543525219,0.0007794881239533424,0.0010903477668762207
1738772412705795600,3.319795654296875,0.0019465856021270156,-0.0006338511593639851,0.00006236768967937678
1738772412715786800,3.329786865234375,-0.00031702639535069466,0.0002923733554780483,-0.0018766418797895312
1738772412725777700,3.339777587890625,-0.00010530510917305946,-0.0006615712773054838,0.000736185465939343
1738772412735768600,3.3497685546875,0.000833423575386405,-0.00007731118239462376,-0.0003037119749933481
1738772412745759700,3.359759765625,-0.00035168317845091224,-0.00012498185969889164,0.0015778113156557083
1738772412755751700,3.369751708984375,-0.00006694102194160223,-0.0006241346709430218,0.0006816642708145082
1738772412765742600,3.37974267578125,0.00007154338527470827,0.0010648423340171576,0.0012294765328988433
1738772412775733800,3.389733642578125,-0.0003948173834942281,-0.000943260733038187,0.00010897908941842616
1738772412785724700,3.399724609375,0.000141010619699955,-0.0004929201677441597,0.001603811397217214
1738772412795715600,3.409715576171875,0.0006347383605316281,0.0012193205766379833,0.00000726532016415149
1738772412805707800,3.419707763671875,0.00013060204219073057,0.00010372232645750046,0.00007384434866253287
1738772412815698700,3.42969873046875,-0.0006809213082306087,-0.0007632959168404341,-0.00012352498015388846
1738772412825689600,3.439689697265625,0.0018986165523529053,-0.0007909927517175674,-0.00008837126370053738
1738772412835680800,3.4496806640625,-0.00007716414984315634,0.000051039038226008415,-0.0011188541539013386
1738772412845671700,3.459671630859375,-0.00012110627721995115,0.0006190913263708353,0.0009602756472304463
1738772412855662600,3.46966259765625,-0.0011225220514461398,-0.0008159615099430084,0.0008479134412482381
1738772412865654800,3.47965478515625,-0.0003637874615378678,-0.0006319372914731503,0.0006351269548758864
1738772412875645700,3.489645751953125,-0.00047267164336517453,-0.00018967106007039547,-0.00044154422357678413
1738772412885636600,3.49963671875,0.0002549039199948311,0.0004452264402061701,-0.0007523351232521236
1738772412895627800,3.509627685546875,0.0002862747060135007,-0.0009802880231291056,-0.0008720381883904338
1738772412905618700,3.51961865234375,0.000284410547465086,-0.0010010607074946165,0.0016696826787665486
1738772412915610600,3.529610595703125,0.0007355319103226066,-0.0002832193858921528,0.00016628167941235006
1738772412925601800,3.539601806640625,0.0004503072705119848,-0.000774838961660862,0.002467252779752016
1738772412935592700,3.5495927734375,0.0006369809852913022,0.0023140201810747385,-0.0002072721254080534
1738772412945583600,3.55958349609375,-0.00003014085814356804,-0.0003669841680675745,-0.0015998390736058354
1738772412955574500,3.569574462890625,0.0005800765939056873,-0.0007069185376167297,0.0015328393783420324
1738772412965566700,3.579566650390625,0.0010549182770773768,0.000040896935388445854,0.0008633207180537283
1738772412975557600,3.5895576171875,0.0007743496680632234,-0.0007567575667053461,-0.0006686268607154489
1738772412985548800,3.599548828125,-0.0015958637231960893,0.00019159424118697643,0.0011886616703122854
1738772412995539700,3.609539794921875,-0.0010268113110214472,0.00024852436035871506,-0.0011951075866818428
1738772413005530600,3.619530517578125,0.00133354845456779,0.000524960458278656,-0.0008102806750684977
1738772413015521500,3.629521484375,-0.0006564768264070153,0.0008858211804181337,0.0007797646685503423
1738772413025513700,3.639513671875,0.002996048890054226,0.0012695828918367624,0.00042077054968103766
1738772413035504600,3.649504638671875,0.000008430331945419312,-0.001337653724476695,-0.0005671234684996307
1738772413045495600,3.65949560546875,0.0002214832929894328,-0.001093441853299737,0.0010006794473156333
1738772413055486700,3.66948681640625,0.00039009004831314087,-0.0009169543627649546,-0.001361739938147366
1738772413065477600,3.6794775390625,-0.0009910253575071692,-0.0007089613936841488,-0.0003007366321980953
1738772413075469800,3.6894697265625,0.000401971279643476,-0.00035076960921287537,0.0005135707324370742
1738772413085460700,3.699460693359375,-0.0011645001359283924,0.00015443190932273865,0.000386537954909727
1738772413095451600,3.70945166015625,-0.001584411016665399,-0.0011278369929641485,-0.0017387222032994032
1738772413105442600,3.719442626953125,0.0003572996938601136,0.0005126702599227428,0.0012645246461033821
1738772413115433700,3.729433837890625,0.0009985676733776927,0.00047721900045871735,-0.00008468463784083724
1738772413125425700,3.73942578125,-0.001339421491138637,-0.000533450860530138,-0.0010769783984869719
1738772413135416600,3.74941650390625,0.001078530098311603,-0.0013772028032690287,-0.00019715024973265827
1738772413145407700,3.75940771484375,-0.00002961105201393366,0.0003029853105545044,0.0010601280955597758
1738772413155398700,3.769398681640625,0.00030028517358005047,0.0009546654764562845,-0.00024051567015703768
1738772413165389600,3.7793896484375,0.002813510363921523,-0.000322053674608469,0.0011826776899397373
1738772413175380700,3.789380615234375,0.000886277761310339,-0.0007479377090930939,0.002093355404213071
1738772413185372700,3.79937255859375,0.000993603141978383,0.00021213176660239697,-0.0001048178382916376
1738772413195363600,3.809363525390625,0.00010578625369817019,0.0006176652386784554,0.0005368067650124431
1738772413205354800,3.819354736328125,-0.0004327049246057868,-0.0007621184922754765,0.0006561164045706391
1738772413215345700,3.829345703125,-0.0014304271899163723,-0.00031624198891222477,0.0016606039134785533
1738772413225336600,3.839336669921875,0.0008148838533088565,0.00036366283893585205,0.0006946753710508347
1738772413235328800,3.849328857421875,0.0006600893102586269,-0.0010720675345510244,0.00008161686128005385
1738772413245319700,3.859319580078125,-0.000660305900964886,0.0009812298230826855,0.0007697776309214532
1738772413255310600,3.869310546875,0.00028329179622232914,-0.0004315408878028393,0.0006887384224683046
1738772413265301800,3.8793017578125,-0.0006599998450838029,0.0006835246458649635,-0.0008116865064948797
1738772413275293700,3.889293701171875,0.0010661034611985087,-0.00023734942078590393,-0.00016126428090501577
1738772413285285600,3.89928564453125,-0.0005493700155057013,0.0006758484523743391,0.0003314205096103251
1738772413295276500,3.909276611328125,-0.0010819007875397801,-0.0010229432955384254,0.0003236629709135741
1738772413305267500,3.919267333984375,-0.0010587313445284963,0.00020557292737066746,-0.00021456189278978854
1738772413315258600,3.929258544921875,-0.00014568318147212267,-0.0005488567985594273,-0.0008751727873459458
1738772413325249800,3.939249755859375,-0.0006426290492527187,-0.00032248813658952713,-0.0005223039770498872
1738772413336489700,3.95048974609375,-0.0017721853218972683,0.0010202995035797358,0.00009667844278737903
1738772413346481700,3.960481689453125,-0.0009773954516276717,-0.0009035049006342888,0.0002977083786390722
1738772413356472800,3.970472900390625,0.0003432661760598421,0.00003659096546471119,0.0009776133811101317
1738772413366463700,3.980463623046875,0.0012977429432794452,-0.0005897844675928354,0.0002244714996777475
1738772413376454700,3.99045458984375,-0.0007650316110812128,0.001168509479612112,0.0004736421396955848
1738772413386445600,4.000445556640625,0.0006637627957388759,0.0007974919863045216,0.0009838661644607782
1738772413396437800,4.010437744140625,0.000009690411388874054,-0.0006201087962836027,-0.0009932646062225103
1738772413406428700,4.0204287109375,0.00031174218747764826,0.0014451583847403526,-0.00026815474848262966
1738772413416419600,4.030419677734375,0.0012497075367718935,-0.00019188690930604935,-0.0005539119010791183
1738772413426410800,4.04041064453125,-0.0003349288017489016,0.00011675828136503696,0.000060032354667782784
1738772413436401700,4.050401611328125,0.0006302008405327797,-0.0003668717108666897,0.0008406048291362822
1738772413446393900,4.060393798828125,0.0001319956500083208,0.0006386467721313238,0.001731783733703196
1738772413456384800,4.070384765625,0.0005644930060952902,-0.00029878574423491955,-0.0003276386414654553
1738772413466375700,4.080375732421875,-0.00014316500164568424,0.000021263957023620605,-0.0005797218764200807
1738772413476366600,4.09036669921875,0.0007503255037590861,0.0012596340384334326,-0.0004958322970196605
1738772413486357800,4.100357666015625,-0.0006305609713308513,-0.0012916349805891514,-0.0003589913831092417
1738772413496348700,4.1103486328125,0.000179572612978518,-0.0001528675202280283,-0.00012063846224918962
1738772413506340600,4.120340576171875,0.001664640847593546,0.00047292676754295826,-0.0010159735102206469
1738772413516331800,4.130331787109375,0.00033119600266218185,-0.0008272286504507065,-0.002339830854907632
1738772413526322700,4.14032275390625,-0.000894082710146904,-0.000809177290648222,-0.0007961693918332458
1738772413536313600,4.150313720703125,-0.000005652196705341339,0.000836656428873539,0.000015828380128368735
1738772413546304800,4.1603046875,-0.00021893775556236506,-0.00007675588130950928,-0.0007182043045759201
1738772413556296700,4.170296630859375,0.0013206356670707464,-0.0008432136382907629,-0.00111661315895617
1738772413566287600,4.18028759765625,0.00007327157072722912,0.000808090204373002,0.0005254687857814133
1738772413576278800,4.19027880859375,0.0005824678810313344,-0.00001136469654738903,-0.0003618964983616024
1738772413586269700,4.200269775390625,0.0003511959221214056,-0.0004854281432926655,0.0011801535729318857
1738772413596260600,4.210260498046875,0.00006969983223825693,0.0014205961488187313,-0.001436668448150158
1738772413606252500,4.22025244140625,-0.000289659365080297,0.0013615244533866644,0.00040102755883708596
1738772413616243700,4.23024365234375,0.0007199449464678764,0.0002619053702801466,0.0006998342578299344
1738772413626234600,4.240234619140625,0.0012529679806903005,0.0012078953441232443,-0.0015210374258458614
1738772413636225800,4.250225830078125,0.0015557693550363183,-0.00047042896039783955,-0.0005726858507841825
1738772413646216700,4.260216796875,0.0002623600885272026,-0.0003165144007652998,0.0005357275949791074
1738772413656207600,4.27020751953125,-0.00039703852962702513,-0.000030224677175283432,0.0024625244550406933
1738772413666199800,4.28019970703125,-0.0012023462913930416,0.0014590162318199873,-0.000497671717312187
1738772413676190700,4.290190673828125,-0.0004249695921316743,-0.00038415752351284027,-0.00022949138656258583
1738772413686181600,4.300181640625,0.0009569447720423341,-0.00022543314844369888,-0.0000848817580845207
1738772413696172800,4.3101728515625,-0.0003231436712667346,0.0007623794954270124,-0.001046616118401289
1738772413706163700,4.320163818359375,0.000026795663870871067,0.001422577304765582,0.00031905286596156657
1738772413716154600,4.330154541015625,0.001073514111340046,-0.00013915193267166615,0.00045144156320020556
1738772413726146800,4.340146728515625,0.001320921815931797,-0.000043011968955397606,-0.0007294040406122804
1738772413736137700,4.3501376953125,-0.0010850824182853103,-0.000688083004206419,-0.00006135381408967078
1738772413746128600,4.360128662109375,0.00008564325980842113,0.00022964226081967354,-0.00047174692736007273
1738772413756119800,4.370119873046875,0.0004901770735159516,-0.00013067247346043587,-0.0008250326500274241
1738772413766110700,4.38011083984375,-0.0009513919940218329,-0.0004795466084033251,-0.0002900035760831088
1738772413776102700,4.3901025390625,0.0013439747272059321,0.0004924535751342773,-0.0002714220609050244
1738772413786093800,4.40009375,0.0007349097868427634,0.00006608129478991032,-0.00045331596629694104
1738772413796084700,4.410084716796875,0.00037411798257380724,0.000047931214794516563,0.0006825337186455727
1738772413806075600,4.42007568359375,-0.0008112550713121891,0.00035685766488313675,-0.00013532309094443917
1738772413816066600,4.430066650390625,0.0006335981888696551,0.00014199456200003624,-0.00040761844138614833
1738772413826058800,4.440058837890625,-0.0008367330301553011,-0.00008410774171352386,0.00017934225616045296
1738772413836049700,4.450049560546875,0.00049331143964082,0.0001896885223686695,-0.0012834093067795038
1738772413846040800,4.460040771484375,-0.0006119003519415855,-0.0005006028804928064,0.00001594694913364947
1738772413856031700,4.47003173828125,-0.0015649880515411496,-0.00019853748381137848,-0.00019980537763331085
1738772413866022700,4.480022705078125,0.001387924887239933,-0.000884834211319685,0.00027823203708976507
1738772413876013600,4.490013671875,0.0010111754527315497,-0.0007656707894057035,-0.00017357060278300196
1738772413886005800,4.500005859375,-0.000678334035910666,-0.00167700438760221,0.002949252026155591
1738772413895996700,4.50999658203125,-0.0021475583780556917,-0.00017516780644655228,-0.0007690318743698299
1738772413905987600,4.519987548828125,-0.0019957581534981728,0.001524994382634759,0.0011724126525223255
1738772413915978800,4.529978759765625,-0.00007292954251170158,-0.001654121559113264,-0.0006192515138536692
1738772413925969700,4.5399697265625,0.0004391963593661785,-0.00024477671831846237,-0.0003603922377806157
1738772413935961600,4.549961669921875,-0.0016099624335765839,0.0013212859630584717,0.001961969304829836
1738772413945952800,4.559952880859375,0.0006515939021483064,-0.0000851296354085207,-0.000959252065513283
1738772413955943700,4.569943603515625,0.0005936400266364217,-0.001138437306508422,0.000033218442695215344
1738772413965934600,4.5799345703125,0.00032785662915557623,0.0011659960728138685,-0.000004598463419824839
1738772413975925800,4.58992578125,0.0007827613735571504,-0.00039422442205250263,-0.00037531842826865613
1738772413985917700,4.599917724609375,0.0016224562423303723,-0.0005553457885980606,-0.0015907851047813892
1738772413995908900,4.609908935546875,0.000629566959105432,-0.00010319100692868233,0.0006010401411913335
1738772414005899800,4.619899658203125,-0.00046951958211138844,-0.0013538114726543427,0.0010436575394123793
1738772414015890700,4.629890625,-0.00014352367725223303,0.0002271768171340227,-0.0006466409540735185
1738772414025881600,4.639881591796875,-0.0009512604447081685,-0.0006668462883681059,0.00018985793576575816
1738772414035873500,4.64987353515625,-0.0005842595710419118,0.0008929523173719645,-0.0011631427332758904
1738772414045864700,4.65986474609375,-0.0004401825717650354,0.00045299832709133625,-0.0006454242393374443
1738772414055855600,4.669855712890625,-0.00020469888113439083,-0.0007094824686646461,-0.0009440693538635969
1738772414065846800,4.6798466796875,-0.001701661734841764,0.0007629792671650648,0.0011281362967565656
1738772414075837700,4.689837646484375,-0.0013229097239673138,-0.00047074537724256516,-0.0004024402587674558
1738772414085829600,4.69982958984375,-0.0002816137857735157,0.0003564325161278248,-0.0022389560472220182
1738772414095820500,4.709820556640625,-0.000352358038071543,0.0007510918658226728,0.0020985605660825968
1738772414105811700,4.719811767578125,0.0014468735316768289,-0.0012529371306300163,-0.0007512881420552731
1738772414115802600,4.729802734375,-0.0007802735199220479,-0.0007921385113149881,-0.000012093281839042902
1738772414125793800,4.739793701171875,-0.0008383304229937494,-0.0001982536632567644,0.00032932395697571337
1738772414135784700,4.74978466796875,-0.000128435087390244,0.0006528724916279316,-0.001404867391102016
1738772414145776400,4.7597763671875,-0.0011356426402926445,-0.0007524776738137007,-0.0011033974587917328
1738772414155767600,4.769767578125,-0.0013357230927795172,0.000034999800845980644,0.0001643574214540422
1738772414165758700,4.7797587890625,0.0007668425096198916,-0.0016225518193095922,0.00009777839295566082
1738772414175749600,4.78974951171875,-0.0008310134871862829,0.0007333485409617424,0.0005125888274051249
1738772414185740800,4.79974072265625,0.00010295712854713202,-0.00030395248904824257,-0.0009825098095461726
1738772414195732500,4.809732421875,-0.0007586339488625526,-0.00008544931188225746,0.0016804412007331848
1738772414205723600,4.8197236328125,0.0009777471423149109,0.00014438130892813206,-0.0005488908500410616
1738772414215714800,4.82971484375,0.0006262470269575715,-0.00006684777326881886,-0.0017489173915237188
1738772414225705700,4.839705810546875,0.000487762619741261,0.00047617056407034397,0.0013520673383027315
1738772414235696600,4.849696533203125,0.00010459893383085728,0.00034725083969533443,0.0000403255398850888
1738772414245688600,4.8596884765625,0.0007919607451185584,-0.0004887152463197708,-0.0002659379970282316
1738772414255679500,4.869679443359375,-0.00009910075459629297,0.0006756582297384739,-0.0006763887358829379
1738772414265670700,4.879670654296875,-0.00006394705269485712,0.001182457897812128,-0.000312334654154256
1738772414275659800,4.88965966796875,0.0006114204879850149,0.001531955087557435,-0.00018655930762179196
1738772414285651000,4.89965087890625,0.00026627478655427694,0.00023819156922399998,-0.00020307090017013252
1738772414295643000,4.909642822265625,0.0012911198427900672,-0.0004727574996650219,-0.00019791630620602518
1738772414305634000,4.919634033203125,0.00014356384053826332,-0.0010519949719309807,-0.00029379010084085166
1738772414315625000,4.929625,0.001206240151077509,0.0008080019615590572,0.0003559562028385699
1738772414325615900,4.939615966796875,-0.00038340064929798245,0.00022130785509943962,-0.00023473294277209789
1738772414335606800,4.949606689453125,0.00031385954935103655,-0.0007488175760954618,0.0007666193996556103
1738772414345599000,4.959598876953125,-0.001591898500919342,-0.0008249839302152395,-0.001254719914868474
1738772414355590000,4.96958984375,-0.000975190952885896,-0.00020567863248288631,-0.0018895654939115047
1738772414365580800,4.979580810546875,0.0008866249118000269,0.0002712938003242016,-0.00020458351355046034
1738772414375572000,4.989572021484375,-0.0014802450314164162,-0.0004325134214013815,-0.0005874548223800957
1738772414385563000,4.99956298828125,0.00033523188903927803,-0.000449557788670063,-0.00024284179380629212
1738772414395553800,5.0095537109375,-0.0006178997573442757,0.0003935715649276972,-0.0004904638626612723
1738772414405546000,5.0195458984375,0.00004735786933451891,-0.00017394800670444965,-0.0005647660582326353
1738772414415537000,5.029536865234375,-0.00011340680066496134,0.0019264568109065294,0.0006174572627060115
1738772414425527800,5.03952783203125,0.0005190940573811531,-0.0005425598938018084,0.0009301123791374266
1738772414435519000,5.04951904296875,0.0006527721416205168,0.0013722055591642857,-0.0002787360572256148
1738772414445510000,5.059510009765625,0.0005800678627565503,0.00002251565456390381,0.00022273720242083073
1738772414455501800,5.069501708984375,-0.0002738591283559799,0.0008382499217987061,-0.00009567316737957299
1738772414465493000,5.079492919921875,0.0006499914452433586,0.0005056210793554783,-0.0000725036661606282
1738772414475484000,5.08948388671875,0.0016445348737761378,-0.0005071465857326984,0.0006926432251930237
1738772414485474800,5.099474853515625,-0.00048386340495198965,0.000379419419914484,-0.0019526747055351734
1738772414495466000,5.109466064453125,0.0010000442853197455,-0.0006702376995235682,-0.00007668239413760602
1738772414505458000,5.1194580078125,0.0007963123498484492,-0.00019592884927988052,-0.0010825583012774587
1738772414515448800,5.12944873046875,-0.001575574860908091,0.0009550156537443399,-0.0003317628288641572
1738772414525440000,5.13943994140625,0.0005767919356003404,-0.0003752333577722311,-0.0006862295558676124
1738772414535431000,5.149430908203125,0.00028367387130856514,0.000542378518730402,0.00012569196405820549
1738772414545421800,5.159421875,0.0012408139882609248,0.0003101509064435959,0.0009499402949586511
1738772414555413000,5.1694130859375,0.000267038238234818,-0.00001979852095246315,-0.00023934949422255158
1738772414565405000,5.179405029296875,0.00027129927184432745,-0.0010863945353776217,-0.0008092659409157932
1738772414575395800,5.189395751953125,0.0010318655986338854,0.00031267199665308,-0.00007542238745372742
1738772414585387000,5.199386962890625,-0.0005777489277534187,-0.0005416702479124069,-0.0005755640449933708
1738772414595378000,5.2093779296875,-0.00014818902127444744,-0.0003698747605085373,-0.0003595041634980589
1738772414605369900,5.219369873046875,0.001655569882132113,0.0012586484663188457,0.00006580265471711755
1738772414615361000,5.229361083984375,0.0008652834221720695,-0.00018761795945465565,0.00047717627603560686
1738772414625352000,5.23935205078125,-0.0013938761549070477,-0.0002755022142082453,-0.0004093900788575411
1738772414635342800,5.2493427734375,0.0005805075634270906,0.0011356393806636333,0.0005135942483320832
1738772414645334000,5.259333984375,0.0007938267663121223,0.00028662336990237236,0.0010235896334052086
1738772414655325000,5.269324951171875,0.00041965243872255087,-0.00008694874122738838,0.000571749173104763
1738772414665316900,5.27931689453125,0.0013957008486613631,0.0016800588928163052,0.0010226223384961486
1738772414675308000,5.28930810546875,-0.0001305234618484974,0.00023158732801675797,0.000153428060002625
1738772414685299000,5.299298828125,0.00029638130217790604,0.0010843314230442047,-0.0007674930384382606
1738772414695289900,5.309289794921875,-0.0006142532220110297,-0.000013164011761546135,-0.000996058457531035
1738772414705281000,5.319281005859375,0.001235578558407724,-0.001250468660145998,0.0014066454023122787
1738772414715273000,5.32927294921875,-0.0019809904042631388,-0.0006912474054843187,0.0016015118453651667
1738772414725264000,5.339263916015625,-0.002835865132510662,0.001137545332312584,-0.0015018697595223784
1738772414735255000,5.349255126953125,0.0007318680873140693,0.0008359476923942566,0.0005312488647177815
1738772414745246000,5.359245849609375,-0.00032380898483097553,0.0003677639178931713,0.0002548127667978406
1738772414755236900,5.36923681640625,-0.0006969760870561004,-0.0000515978317707777,0.0000051576062105596066
1738772414765229000,5.37922900390625,-0.0011742145288735628,-0.00007103895768523216,-0.0003125575021840632
1738772414775220000,5.389219970703125,-0.0002722706412896514,-0.001124406699091196,-0.00008389590948354453
1738772414785211000,5.3992109375,0.0014976662350818515,-0.0008849885780364275,-0.00008442853868473321
1738772414795202000,5.4092021484375,0.0015127236256375909,0.00012097298167645931,0.0005085926386527717
1738772414805193000,5.41919287109375,0.00015131558757275343,0.00014307722449302673,-0.0009529501548968256
1738772414815184000,5.429183837890625,-0.00016143813263624907,0.0012510395608842373,0.001109865726903081
1738772414825176000,5.439176025390625,-0.0016970167635008693,0.0005767270922660828,0.0002898783714044839
1738772414835167000,5.4491669921875,-0.0006889764918014407,0.0004523079842329025,-0.0000689849111950025
1738772414845158000,5.459157958984375,0.0010082559892907739,0.00041901832446455956,-0.001548370928503573
1738772414855148800,5.469148681640625,-0.001421495107933879,-0.0005747289396822453,0.0005206753266975284
1738772414865140000,5.479139892578125,0.00004617287777364254,0.0007621778640896082,0.0009201496141031384
1738772414875132000,5.4891318359375,-0.0001454417360946536,-0.000926655251532793,-0.0010276110842823982
1738772414885123000,5.499123046875,0.0019709724001586437,0.0003724347334355116,0.00006108908564783633
1738772414895114000,5.509114013671875,-0.0005345807876437902,0.0005443962290883064,-0.0009683101670816541
1738772414905105000,5.51910498046875,0.0008044565329328179,-0.0012961146421730518,0.0011137491092085838
1738772414915095800,5.529095703125,0.0004298044368624687,-0.0003066288772970438,0.0012497219722718
1738772414925088000,5.539087890625,-0.00015822157729417086,0.00020496430806815624,0.0007727497722953558
1738772414935079000,5.549078857421875,-0.001029487233608961,0.00028516585007309914,0.0005810816655866802
1738772414945070000,5.559070068359375,-0.00004465028177946806,-0.00012389593757689,0.00029292760882526636
1738772414955061000,5.56906103515625,0.00043772649951279163,0.00027308473363518715,0.0004477519541978836
1738772414965052000,5.579052001953125,0.0007767468923702836,0.00011249631643295288,0.001000091666355729
1738772414975042800,5.589042724609375,-0.00013339181896299124,-0.0008582703303545713,-0.002176364418119192
1738772414985035000,5.599034912109375,-0.001542736659757793,0.00044028693810105324,-0.002024297835305333
1738772414995026000,5.60902587890625,0.0016244188882410526,-0.0008411167655140162,0.0012310730526223779
1738772415005016800,5.619016845703125,0.0003953700652346015,-0.000715149100869894,-0.0009577790042385459
1738772415015008000,5.629008056640625,0.0002295318990945816,0.00015557976439595222,0.00003604090306907892
1738772415024999000,5.6389990234375,0.0010151644237339497,0.0003222934901714325,-0.00036183535121381283
1738772415034991000,5.6489912109375,0.0006173759466037154,0.0014943855348974466,0.0007102640811353922
1738772415044982000,5.65898193359375,0.001530307694338262,0.00001792912371456623,-0.0005997448461130261
1738772415054973000,5.668972900390625,-0.0014748148387297988,-0.0007273508235812187,-0.00025860557798296213
1738772415064963800,5.6789638671875,-0.0002481628907844424,-0.0010197660885751247,-0.0005464932764880359
1738772415074955000,5.688955078125,-0.0004043674562126398,-0.000635986216366291,0.0009701107046566904
1738772415084947000,5.698947021484375,0.0023434823378920555,-0.0012538395822048187,-0.00135482894256711
1738772415094937900,5.708937744140625,0.0013238604879006743,0.001194025157019496,0.0006631863070651889
1738772415104929000,5.718928955078125,-0.0004223741707392037,0.000107988016679883,-0.00005000818055123091
1738772415114920000,5.728919921875,0.000022843480110168457,0.0003425490576773882,0.0004892800934612751
1738772415124910800,5.738910888671875,-0.0002892790362238884,0.0002959433477371931,0.00018061968148685992
1738772415134902000,5.748902099609375,0.001988717122003436,-0.001087399199604988,0.0002515180967748165
1738772415144894000,5.75889404296875,-0.00036951189395040274,-0.0006282702088356018,0.0004667014873120934
1738772415154884900,5.768884765625,-0.000187678262591362,0.00007199728861451149,-0.0004295004764571786
1738772415164876000,5.7788759765625,0.0011316516902297735,-0.000328275840729475,-0.0014462954131886363
1738772415174867000,5.788866943359375,-0.0010258677648380399,0.0008798390626907349,-0.001296880771405995
1738772415184857900,5.79885791015625,0.0018977505387738347,0.0012992867268621922,0.00006053235847502947
1738772415194850000,5.80885009765625,-0.0011146634351462126,-0.0005318219773471355,0.0002930006885435432
1738772415204841000,5.818841064453125,0.00011225487105548382,0.0012554253917187452,0.00021630161791108549
1738772415214831900,5.828831787109375,0.0025150582659989595,0.0000011762604117393494,0.0007590004242956638
1738772415224823000,5.838822998046875,0.00011288700625300407,0.0012198388576507568,0.00040772947249934077
1738772415234814000,5.84881396484375,-0.0004814958665519953,-0.0007177391089498997,-0.00014407388516701758
1738772415244806000,5.858805908203125,-0.0003778988611884415,0.0009989344980567694,-0.00046045740600675344
1738772415254797000,5.868797119140625,0.0009589581750333309,-0.00018113479018211365,-0.0006509104277938604
1738772415264788000,5.8787880859375,0.0003440342843532562,-0.00005223788321018219,-0.00022853308473713696
1738772415274779400,5.888779296875,-0.0004977058852091432,0.00010576006025075912,-0.0003901096060872078
1738772415284770300,5.898770263671875,-0.00010062858927994967,0.000926279928535223,-0.00008677555888425559
1738772415294761200,5.90876123046875,0.00012157508172094822,0.00044197263196110725,0.0002783777890726924
1738772415304753400,5.91875341796875,0.0011948291212320328,0.00004303106106817722,-0.00025345548056066036
1738772415314744300,5.928744384765625,-0.000085009029135108,-0.0004187833983451128,-0.0015241599176079035
1738772415324735500,5.938735595703125,0.00005880161188542843,0.0005822987295687199,0.0002050305192824453
1738772415334726400,5.948726318359375,-0.0011387168196961284,-0.0008363586384803057,-0.0004480164498090744
1738772415344717300,5.95871728515625,-0.0000912955729290843,-0.0010712493676692247,0.00013681371638085693
1738772415354709500,5.96870947265625,-0.001491294358856976,-0.000005075708031654358,0.0005919040413573384
1738772415364700400,5.978700439453125,0.0008118073455989361,-0.0006929703522473574,-0.00019399478333070874
1738772415374691300,5.98869140625,0.0015956101706251502,-0.0006739299278706312,-0.00040012242970988154
1738772415384682200,5.99868212890625,-0.0006755336071364582,0.00073967594653368,-0.00036843083216808736
1738772415394673400,6.00867333984375,-0.0005966010503470898,0.0006648928392678499,0.00030912039801478386
1738772415404665300,6.018665283203125,-0.000012303469702601433,0.0001698110718280077,-0.0002256423613289371
1738772415414656500,6.028656494140625,-0.00011197046842426062,0.002038985723629594,0.001425436814315617
1738772415424647400,6.0386474609375,-0.00010078516788780689,0.0003409541677683592,0.0009428720222786069
1738772415434638300,6.048638427734375,0.00047892762813717127,-0.00127021549269557,0.00020866481645498425
1738772415444629200,6.058629150390625,0.0005084887379780412,-0.0019067111425101757,0.0006656632758677006
1738772415454620400,6.068620361328125,-0.0006453117821365595,0.00016643968410789967,-0.0008083152933977544
1738772415464612400,6.0786123046875,-0.0011542418505996466,-0.0006519497837871313,0.0005267272936180234
1738772415474603300,6.088603271484375,0.0002872695913538337,0.0005920676048845053,0.0022852690890431404
1738772415484594400,6.098594482421875,-0.0003614764427766204,-0.0005182039458304644,-0.00035791847039945424
1738772415494585300,6.10858544921875,-0.00036025536246597767,-0.00047854543663561344,0.00019082750077359378
1738772415504576300,6.118576171875,-0.0011746500385925174,-0.00044046202674508095,0.00037511822301894426
1738772415514568400,6.128568359375,0.0005948079051449895,-0.00030514621175825596,-0.001700734836049378
1738772415524559400,6.138559326171875,0.0007119870278984308,0.0003957978915423155,0.0007187469745986164
1738772415534550300,6.14855029296875,0.0007916385075077415,0.00033380719833076,-0.0006422532023862004
1738772415544541400,6.15854150390625,0.0006725952262058854,0.00021929130889475346,0.0023354273289442062
1738772415554532400,6.168532470703125,0.0015781584661453962,0.0007336370181292295,0.0003066015779040754
1738772415564524300,6.178524169921875,-0.00008684990461915731,-0.0005595937836915255,0.00179877073969692
1738772415574515500,6.188515380859375,0.000545571674592793,0.0006991350091993809,0.0004610118339769542
1738772415584506400,6.19850634765625,-0.0005569770000874996,0.00013694167137145996,0.00029536322108469903
1738772415594497300,6.208497314453125,-0.0002419519005343318,0.0006682341918349266,0.000591309042647481
1738772415604488400,6.218488525390625,0.0003335572546347976,-0.0006739988457411528,-0.00004998015356250107
1738772415614479400,6.228479248046875,0.0010289186611771584,0.0010977387428283691,-0.0008288882672786713
1738772415624471300,6.23847119140625,0.0005876327631995082,0.0010380842722952366,0.0011559657286852598
1738772415634462500,6.24846240234375,0.0006120842881500721,0.0010149169247597456,-0.0008645131601952016
1738772415644453400,6.258453369140625,-0.0009245597175322473,0.0003531214315444231,0.0005504243308678269
1738772415654444300,6.2684443359375,0.00039071182254701853,0.00019527622498571873,-0.0009938896400853992
1738772415664435500,6.278435546875,0.0004106855485588312,0.0016344485338777304,0.0011563466396182775
1738772415674427400,6.288427490234375,0.0017974541988223791,-0.0007566502317786217,-0.00041097827488556504
1738772415684418300,6.298418212890625,-0.0010686398018151522,-0.00037768250331282616,-0.000565441616345197
1738772415694409500,6.308409423828125,0.0009797888342291117,0.0007667336612939835,0.0007131416932679713
1738772415704400400,6.318400390625,-0.0011440821690484881,0.00041652796790003777,-0.0005183040047995746
1738772415714391300,6.328391357421875,-0.0005137150292284787,-0.0006361883133649826,0.000036813056794926524
1738772415724383200,6.33838330078125,0.00029961438849568367,-0.0007909180130809546,0.000557194696739316
1738772415734374400,6.34837451171875,-0.0015157345915213227,0.0002009822055697441,0.0010301916627213359
1738772415744365300,6.358365234375,0.0013468972174450755,0.0003485213965177536,-0.0005530575872398913
1738772415754356500,6.3683564453125,0.0006535017164424062,0.0006882562302052975,-0.0009495659032836556
1738772415764347400,6.378347412109375,-0.0010714277159422636,0.0006246063858270645,-0.0003402346628718078
1738772415774338300,6.38833837890625,-0.000044974847696721554,0.00023563439026474953,0.001129139680415392
1738772415784330500,6.39833056640625,-0.0006372618954628706,-0.0011231102980673313,0.0012258124770596623
1738772415794321400,6.4083212890625,0.00022128166165202856,-0.0009804593864828348,-0.0001630655606277287
1738772415804312300,6.418312255859375,-0.00005994818639010191,-0.0001000184565782547,-0.000009401162969879806
1738772415814303500,6.428303466796875,-0.001373814302496612,0.00015149032697081566,0.0014297935413196683
1738772415824294400,6.43829443359375,-0.00106382230296731,-0.0009755592327564955,0.00036479553091339767
1738772415834286300,6.448286376953125,0.00020849448628723621,0.000951194204390049,-0.00008612238161731511
1738772415844277500,6.458277587890625,0.00101676385384053,1.7974525690078735e-7,-0.0003260732046328485
1738772415854268400,6.468268310546875,0.0007796700811013579,-0.0007722792215645313,-0.0009959369199350476
1738772415864259300,6.47825927734375,0.001184470602311194,-0.0005264694336801767,-0.00013387168291956186
1738772415874250200,6.488250244140625,0.0007407141383737326,0.00016603199765086174,0.0012833229266107082
1738772415884241400,6.498241455078125,-0.0019751773215830326,0.0004414031282067299,0.0002398962969891727
1738772415894233300,6.5082333984375,-0.00013841374311596155,0.0003981916233897209,0.000696819624863565
1738772415904224500,6.518224609375,-0.00040472991531714797,0.0005302848294377327,-0.0006512724794447422
1738772415914215400,6.52821533203125,-0.000040668644942343235,-0.0007451651617884636,0.0001809240784496069
1738772415924206300,6.538206298828125,-0.00010378553997725248,-0.00003463379107415676,-0.0006824727170169353
1738772415934197200,6.548197265625,-0.0010797020513564348,-0.00010340032167732716,0.00017283615306951106
1738772415944189200,6.558189208984375,0.00018503319006413221,0.00012589804828166962,-0.0012314487248659134
1738772415954180400,6.568180419921875,0.0006808615289628506,-0.0002203313633799553,0.0003656097687780857
1738772415964171300,6.578171142578125,0.0008710110560059547,0.00012188497930765152,0.000012474629329517484
1738772415974162400,6.588162353515625,0.001284804311580956,0.0012326508294790983,-0.0018915868131443858
1738772415984153300,6.5981533203125,0.0007029037224128842,0.00012823776341974735,-0.0005094062071293592
1738772415994145300,6.608145263671875,0.00017795746680349112,-0.0015500965528190136,0.0003885974292643368
1738772416004136400,6.618136474609375,0.0017351076239719987,0.0003407476469874382,-0.0004194056673441082
1738772416014127400,6.62812744140625,-0.0015212842263281345,0.0004946300759911537,-0.001196766970679164
1738772416024118300,6.6381181640625,0.0009266934357583523,0.000415267888456583,0.0013758467976003885
1738772416034109400,6.648109375,-0.0013708398910239339,-0.0010704922024160624,-0.0010603672126308084
1738772416044100400,6.658100341796875,0.00006593542639166117,0.00032713450491428375,0.00038572921766899526
1738772416054092300,6.66809228515625,-0.002250229474157095,0.00043412274681031704,-0.0011455882340669632
1738772416064083500,6.67808349609375,0.0009769890457391739,0.0003901806194335222,-0.0000299900711979717
1738772416074074400,6.688074462890625,0.00030153803527355194,-0.0004975898191332817,0.0010111889569088817
1738772416084065300,6.698065185546875,-0.0002595899859443307,-0.0003385990858078003,-0.0008820523507893085
1738772416094056400,6.708056396484375,-0.000023057800717651844,-0.00006469734944403172,-0.000572858436498791
1738772416104048000,6.718048095703125,-0.0002390401205047965,0.0019150967709720135,-0.0010860495967790484
1738772416114039300,6.728039306640625,-0.0008405026164837182,0.0031366313342005014,-0.0008965627057477832
1738772416124030500,6.738030517578125,0.00005298794712871313,-0.0011486613657325506,-0.0005692602135241032
1738772416134021400,6.748021484375,-0.0001914238091558218,0.0002676653675734997,-0.0004951666342094541
1738772416144012300,6.75801220703125,-0.0008676003781147301,-0.00019439286552369595,0.0004614408244378865
1738772416154003500,6.76800341796875,0.0014831190928816795,0.0009182784706354141,0.0004001556953880936
1738772416163995400,6.777995361328125,0.00018163223285228014,-0.0008109118789434433,0.0010574237676337361
1738772416173986300,6.787986328125,0.00029829738195985556,-0.00033218576572835445,-0.0021429562475532293
1738772416183977500,6.7979775390625,-0.0011358148185536265,0.00003506406210362911,-0.00031602775561623275
1738772416193968400,6.807968505859375,0.000034288386814296246,-0.002768435515463352,-0.0010129163274541497
1738772416203959300,6.817959228515625,0.00042390881571918726,0.0009141836781054735,-0.00039426397415809333
1738772416213951200,6.827951171875,0.0002203750191256404,0.0004950780421495438,0.00009157528984360397
1738772416223942400,6.8379423828125,-0.0020371866412460804,-0.000048739369958639145,-0.001504723448306322
1738772416233933300,6.847933349609375,0.00007853808347135782,-0.000165857607498765,-0.0002804765827022493
1738772416243924500,6.857924560546875,0.00008200015872716904,0.0012450849171727896,0.0007136814529076219
1738772416253915400,6.867915283203125,-0.0006685706903226674,-0.0006333335768431425,0.0002465955913066864
1738772416263907000,6.877906982421875,-0.0002768196864053607,-0.00025090365670621395,-0.0001440901105524972
1738772416273898200,6.887898193359375,0.0007967181736603379,0.000371050089597702,-0.0009109448874369264
1738772416283889400,6.897889404296875,-0.00007546716369688511,-0.0019264589063823223,0.0003157071187160909
1738772416293880600,6.907880615234375,0.00039903842844069004,0.0012584105134010315,0.0007588486769236624
1738772416303871700,6.917871826171875,-0.0003969804383814335,0.00000858912244439125,-0.00014209873916115612
1738772416313862700,6.927862548828125,0.0002667751396074891,-0.00008267024531960487,-0.000443854252807796
1738772416323854600,6.9378544921875,-0.00016625493299216032,-0.000430745305493474,0.0005540321581065655
1738772416333845500,6.947845458984375,0.000650806468911469,0.0007251380011439323,-0.0007904361700639129
1738772416343836700,6.957836669921875,-0.0008863700786605477,0.00027825962752103806,0.00005644906195811927
1738772416353827800,6.967827880859375,-0.00030046398751437664,-0.0002858550287783146,0.002253475831821561
1738772416363818800,6.97781884765625,0.0004199210088700056,0.0008033779449760914,-0.0003463020548224449
1738772416373810400,6.987810546875,-0.0001814280403777957,-0.00034597539342939854,0.00022559642093256116
1738772416383801600,6.997801513671875,-0.0007659919210709631,0.0007677583489567041,0.000834927661344409
1738772416393792500,7.00779248046875,-0.0007509480346925557,-0.0004521056544035673,-0.00009063382458407432
1738772416403783700,7.01778369140625,0.0016658706590533257,0.0001945097465068102,0.0011208381038159132
1738772416413774800,7.02777490234375,-0.00028390984516590834,-0.0002466724254190922,0.000367998203728348
1738772416423766500,7.0377666015625,-0.0002207929501309991,-0.00029913662001490593,-0.0011263014748692513
1738772416433757400,7.04775732421875,0.00010996439959853888,0.0010229742620140314,-0.000363403552910313
1738772416443748600,7.05774853515625,-0.0010628916788846254,0.00040964805521070957,-0.00016393279656767845
1738772416453739500,7.067739501953125,-0.00041234976379200816,-0.0009693601168692112,-0.0008415085612796247
1738772416463730700,7.077730712890625,0.0000648887362331152,-0.0005126278847455978,-0.0013136870693415403
1738772416473722600,7.08772265625,-0.0003095191204920411,0.001514369621872902,0.0010963233653455973
1738772416483713500,7.097713623046875,0.000010060146450996399,0.0005375221371650696,-0.0012062457390129566
1738772416493704400,7.107704345703125,0.0007940339855849743,-0.0007499961648136377,0.0014061371330171824
1738772416503695600,7.117695556640625,-0.000132213463075459,-0.0005720970220863819,0.000020228151697665453
1738772416513686800,7.127686767578125,0.0003045088378712535,0.00012304377742111683,0.0008649342926219106
1738772416523677700,7.137677734375,0.0009295528288930655,0.000666062580421567,-0.000722576049156487
1738772416533669600,7.147669677734375,0.0002183268079534173,0.000049031805247068405,0.0001299394789384678
1738772416543660500,7.15766064453125,-0.0003843464655801654,-0.0020657842978835106,0.0012695060577243567
1738772416553651500,7.1676513671875,0.0007522741798311472,-0.00031283963471651077,0.0004794064734596759
1738772416563642600,7.177642578125,-0.00045573560055345297,-0.00021723215468227863,-0.0005046315491199493
1738772416573633800,7.1876337890625,0.0005163118476048112,0.0007516727782785892,0.0011655236594378948
1738772416583625500,7.19762548828125,-0.0003942229668609798,0.0004691113717854023,-0.00011598949640756473
1738772416593616600,7.20761669921875,-0.00040823937160894275,-0.0008279767353087664,-0.001136705046519637
1738772416603607600,7.217607666015625,-0.0008689662208780646,0.0007933557499200106,0.0007147245341911912
1738772416613598500,7.227598388671875,-0.00006381503771990538,-0.0006309004966169596,0.00024364580167457461
1738772416623589600,7.237589599609375,0.00036628555972129107,0.0007970863953232765,-0.0003638212219811976
1738772416633581600,7.24758154296875,-0.0009400961571373045,-0.0013812407851219177,0.001364853698760271
1738772416643572500,7.257572509765625,-0.002095109084621072,-0.00025206059217453003,0.00046523791388608515
1738772416653563400,7.2675634765625,0.00019348785281181335,-0.00013976660557091236,0.0006236626650206745
1738772416663554600,7.277554443359375,-0.0006957416189834476,-0.0011062277480959892,0.001136587467044592
1738772416673545500,7.28754541015625,0.0021881842985749245,0.0005878238007426262,-0.000011460506357252598
1738772416683536600,7.29753662109375,0.0007681866409257054,-0.0007490827701985836,-0.0008261214825324714
1738772416693528600,7.307528564453125,0.0002095607342198491,0.000040205661207437515,0.001881204079836607
1738772416703519500,7.31751953125,0.0002835966879501939,-0.0017747385427355766,0.0009498966974206269
1738772416713510400,7.327510498046875,-0.0001530300360172987,0.0004313243553042412,0.0009840612765401602
1738772416723501600,7.33750146484375,0.0011817462509498,-0.0007596411742269993,0.001634671469219029
1738772416733492700,7.34749267578125,0.0003637011395767331,-0.00020798086188733578,0.00036067410837858915
1738772416743484700,7.357484619140625,0.0007661049021407962,0.0005084096919745207,-0.00213603931479156
1738772416753475600,7.3674755859375,-0.00022726855240762234,-0.0015453577507287264,0.0004493298183660954
1738772416763466500,7.377466552734375,0.0009200212080031633,-0.00010858243331313133,-0.0010580193484202027
1738772416773457400,7.38745751953125,-0.0013254572404548526,0.0011922810226678848,-0.00006274024781305343
1738772416783448600,7.397448486328125,0.0005946818273514509,0.0000790795311331749,-0.00008084974251687527
1738772416793440500,7.4074404296875,0.0001814470160752535,-0.000129244988784194,0.0005142758600413799
1738772416803431400,7.417431396484375,0.000013667973689734936,0.0017259130254387856,0.0019710250198841095
1738772416813422600,7.427422607421875,0.0007539024809375405,0.000018361490219831467,0.0022474960424005985
1738772416823413500,7.43741357421875,0.00005242589395493269,-0.0005592780653387308,-0.00020128072355873883
1738772416833404400,7.447404296875,0.0005979445995762944,0.00030883215367794037,0.0009552671108394861
1738772416843395600,7.4573955078125,0.00046132446732372046,-0.001292260130867362,0.0008514038054272532
1738772416853387500,7.467387451171875,-0.0007752453675493598,-0.00018868432380259037,-0.0004925999091938138
1738772416863378400,7.47737841796875,-0.0006583326030522585,0.0004243752919137478,-0.0002294795704074204
1738772416873369600,7.48736962890625,-0.0016930066049098969,-0.0004063388332724571,-0.000678676413372159
1738772416883360500,7.497360595703125,-0.0006514443666674197,-0.0011059511452913284,0.00026727840304374695
1738772416893351700,7.5073515625,-0.0011015241034328938,-0.000031092436984181404,-0.0009247558191418648
1738772416903343600,7.517343505859375,-0.0004956549382768571,-0.000033755553886294365,0.000830001023132354
1738772416913334500,7.52733447265625,-0.000488409714307636,0.0019994648173451424,-0.00044113548938184977
1738772416923325400,7.537325439453125,0.0008546224562451243,0.00010595726780593395,-0.002059538383036852
1738772416933316600,7.547316650390625,0.0011772086145356297,0.001129252603277564,-0.0009191801073029637
1738772416943307500,7.5573076171875,-0.00003053492400795221,-0.000006851973012089729,-0.00016390759265050292
1738772416953299500,7.567299560546875,0.00006714509800076485,0.0008713093120604753,0.0011736896121874452
1738772416963290600,7.57729052734375,-0.000020206556655466557,0.00046118232421576977,0.0008059070678427815
1738772416973281500,7.587281494140625,0.000043930369429290295,0.0009612641297280788,-0.002246771939098835
1738772416983272400,7.5972724609375,0.0017238524742424488,-0.0008350380230695009,-0.00029627280309796333
1738772416993263600,7.607263671875,-0.00008900638204067945,0.001148266950622201,-0.0010657628299668431
1738772417003254500,7.617254638671875,0.001010879292152822,0.001175697660073638,0.00013931753346696496
1738772417013246500,7.62724658203125,0.0009367415914312005,0.0008023381233215332,0.0005105119198560715
1738772417023237600,7.637237548828125,-0.00032852613367140293,-0.00024934415705502033,-0.0012351900804787874
1738772417033228500,7.647228515625,-0.0010027976240962744,-0.0007364482153207064,-0.00005022672121413052
1738772417043219500,7.657219482421875,-0.0003370073391124606,0.0015027376357465982,-0.00015915001858957112
1738772417053210600,7.667210693359375,0.00022251473274081945,0.0000714536290615797,0.0005219053709879518
1738772417063202600,7.67720263671875,0.001512550050392747,0.0012376517988741398,0.0007061961223371327
1738772417073193500,7.687193359375,0.00048433535266667604,0.0004119530785828829,-0.0008085378212854266
1738772417083184600,7.6971845703125,-0.0005846574204042554,-0.0018501359736546874,-0.0016828535590320826
1738772417093175600,7.707175537109375,-0.0004757714341394603,0.001018916955217719,-0.0001945111434906721
1738772417103166500,7.71716650390625,-0.0004885545931756496,0.0005917462985962629,-0.00046135985758155584
1738772417113157600,7.72715771484375,-0.000037577818147838116,-0.00021924427710473537,0.001497711637057364
1738772417123149600,7.737149658203125,0.0008404663531109691,0.0013064807280898094,-0.00013560500519815832
1738772417133140500,7.747140380859375,-0.0008689884562045336,0.00005701347254216671,0.0005975110689178109
1738772417143131600,7.757131591796875,-0.0006274397601373494,-0.0014343566726893187,0.00090430723503232
1738772417153122600,7.76712255859375,0.001993803307414055,0.00038910238072276115,-0.0009368532919324934
1738772417163113500,7.777113525390625,-0.0005047742160968482,0.000984585378319025,-0.0014732140116393566
1738772417173105700,7.787105712890625,0.000004638452082872391,0.00005931593477725983,-0.0008691101684235036
1738772417183096600,7.7970966796875,-0.00077886349754408,-0.0009303146507591009,0.0022577072959393263
1738772417193087500,7.80708740234375,0.0001507739070802927,-0.0006870841607451439,0.00011692501720972359
1738772417203078400,7.817078369140625,0.0009236232144758105,-0.00018880655989050865,-0.0016729854978621006
1738772417213069600,7.827069580078125,-0.0000074570998549461365,0.0006756603252142668,0.00020969149773009121
1738772417223061500,7.8370615234375,-0.0018133465200662613,0.0003102745395153761,-0.00197543203830719
1738772417233052700,7.847052734375,-0.0011708962265402079,0.001071467064321041,-0.00007722398731857538
1738772417243043600,7.857043701171875,0.0007503082742914557,-0.0004012607969343662,-0.00046897499123588204
1738772417253034500,7.867034423828125,-0.00004640198312699795,-0.00009332923218607903,0.0012321067042648792
1738772417263025400,7.877025390625,-0.0007468133699148893,0.0003378363326191902,-0.0006898966385051608
1738772417273016600,7.8870166015625,-0.0005017153453081846,-0.00013823830522596836,0.00016004638746380806
1738772417283008000,7.897008056640625,0.00020535383373498917,0.000007702969014644623,-0.0014671450480818748
1738772417292999000,7.9069990234375,0.00032883009407669306,-0.0002763110678642988,-0.0008768100524321198
1738772417302990000,7.916989990234375,-0.0017534955404698849,-0.00010666786693036556,0.001059574307873845
1738772417312981000,7.92698095703125,0.00040819402784109116,0.00018876162357628345,-0.00022843795886728913
1738772417322972200,7.93697216796875,-0.0009047443745657802,0.002565898932516575,-0.000023907196009531617
1738772417334213000,7.948213134765625,0.0011854610638692975,0.00033366098068654537,0.0007437489693984389
1738772417344204000,7.9582041015625,0.00021523970644921064,0.00014115707017481327,-0.00016532563313376158
1738772417354195000,7.96819482421875,-0.0000316352816298604,0.0006737895309925079,-0.00014828139683231711
1738772417364186000,7.97818603515625,-9.19681042432785e-8,0.0006915817502886057,-0.00023926426365505904
1738772417374177000,7.988177001953125,0.0014454718912020326,0.0004372501280158758,-0.0008416713098995388
1738772417384169200,7.998169189453125,-0.00021320930682122707,0.00043576047755777836,-0.0011576797114685178
1738772417394160000,8.00816015625,-0.0006409129127860069,-0.00020339805632829666,-0.0019491711864247918
1738772417404151000,8.018151123046875,0.0003641735529527068,0.00013610138557851315,-0.00008103577420115471
1738772417414142000,8.028141845703125,-0.0031389486975967884,0.00018483726307749748,0.0008393526659347117
1738772417424133000,8.038133056640625,0.0001477536279708147,0.001270486507564783,0.0003203887608833611
1738772417434124000,8.0481240234375,0.00046759925317019224,-0.0008440634701400995,0.0023715554270893335
1738772417444116000,8.058115966796874,0.0006109141977503896,0.0008710576221346855,-0.0005709509714506567
1738772417454107100,8.068107177734374,0.0010633851634338498,0.0013682697899639606,0.00009430665522813797
1738772417464098000,8.07809814453125,0.001081741531379521,0.0003164643421769142,-0.0001545263221487403
1738772417474089000,8.0880888671875,-0.00019098306074738503,-0.000010038958862423897,-0.0013990215957164764
1738772417484080000,8.098080078125,0.000969278160482645,0.00033073732629418373,0.0008850086014717817
1738772417494072000,8.108072021484375,0.00081108626909554,0.0010886727832257748,-0.0015560449101030827
1738772417504063000,8.11806298828125,-0.0009799713734537363,0.0003764412831515074,0.0005949020851403475
1738772417514054100,8.12805419921875,0.00010526669211685658,0.00015539885498583317,0.0000806456373538822
1738772417524045000,8.138045166015624,0.0007854108698666096,0.0007325822953134775,0.001105153700336814
1738772417534036000,8.148035888671876,0.00027408392634242773,0.0008750611450523138,0.0005221876781433821
1738772417544027100,8.158027099609376,0.0011117394315078855,0.00004348927177488804,-0.0003811970818787813
1738772417554019000,8.16801904296875,-0.0008315691957250237,-0.0010787667706608772,-0.0005361930816434324
1738772417564010000,8.178010009765625,0.0007741425652056932,-0.0007724608294665813,0.0004415751318447292
1738772417574001200,8.188001220703125,-0.0008913984638638794,0.00030638580210506916,0.0010578306391835213
1738772417583992000,8.197991943359375,0.0019859690219163895,0.00023473403416574,-0.0025421837344765663
1738772417593983000,8.20798291015625,-0.00016266934107989073,-0.0010254739318042994,0.00011431938037276268
1738772417603975200,8.21797509765625,-0.0006346213631331921,-0.0000787035096436739,-0.00017367953842040151
1738772417613966000,8.227966064453126,0.0012857840629294515,-0.0000022707972675561905,0.00044763594632968307
1738772417623957000,8.23795703125,-0.0013882576022297144,0.001669631339609623,0.00010398897575214505
1738772417633948200,8.2479482421875,0.0005249573150649667,-0.000472349114716053,-0.0011290545808151364
1738772417643939000,8.25793896484375,0.00014898600056767464,-0.0006883279420435429,-0.0005365301622077823
1738772417653931000,8.267930908203125,0.0003886704798787832,-0.00007766531780362129,0.000457894173450768
1738772417663922200,8.277922119140625,0.00010764377657324076,0.000004016794264316559,-0.0012040494475513697
1738772417673913000,8.2879130859375,0.00027568929363042116,-0.0000495128333568573,0.0011515164515003562
1738772417683904000,8.297904052734374,0.00042216316796839237,-0.00022155302576720715,0.0002817281347233802
1738772417693895200,8.307895263671876,-0.00018699467182159424,-0.0001547692809253931,-0.0003033886896446347
1738772417703886000,8.317885986328125,0.0016364717157557607,0.0010913237929344177,0.0009818528778851032
1738772417713878000,8.3278779296875,0.0012291081948205829,-0.00003227801062166691,-0.0002883200941141695
1738772417723869200,8.337869140625,0.0005041958065703511,0.00015281164087355137,-0.00030669590341858566
1738772417733860000,8.347860107421875,0.0000387170584872365,0.0010214075446128845,0.0009431911748833954
1738772417743851000,8.35785107421875,-0.0003117548767477274,0.0007311226800084114,0.00002280273474752903
1738772417753842000,8.367842041015624,0.000004789209924638271,-0.0010321494191884995,-0.0006868555210530758
1738772417763834000,8.377834228515624,0.0004495370667427778,0.0004397798329591751,0.00041143206181004643
1738772417773825000,8.387824951171876,-0.0009203621884807944,0.00005269050598144531,-0.0010035785380750895
1738772417783816200,8.397816162109375,0.0004977710777893662,0.00008384953252971172,-0.00047068006824702024
1738772417793807000,8.40780712890625,0.0006333272904157639,0.0008153619710355997,0.0006553885759785771
1738772417803798000,8.417798095703125,-0.00004737672861665487,-0.0007537726778537035,-0.0004128053260501474
1738772417813789000,8.427788818359375,-0.0006080074817873538,0.0005529571790248156,0.0004370262904558331
1738772417823781000,8.437781005859375,0.0005624517798423767,0.0004608116578310728,-0.00015978809096850455
1738772417833772000,8.44777197265625,-0.000044056097976863384,0.00031317234970629215,-8.57282429933548e-7
1738772417843763000,8.457762939453126,-0.00010264560114592314,0.0006793572101742029,-0.0007207096787169576
1738772417853754000,8.467754150390626,0.0010039749322459102,-0.00037102168425917625,-0.001328673679381609
1738772417863745000,8.4777451171875,0.0009949203813448548,-0.0007601093966513872,0.0008609773358330131
1738772417873737200,8.4877373046875,-0.0005629445658996701,-0.00013752910308539867,-0.00020568525360431522
1738772417883728100,8.49772802734375,0.0016834319103509188,-0.00012421328574419022,-0.00196044216863811
1738772417893719000,8.507718994140625,-0.0008096452220343053,-0.0008648436050862074,0.0018800710095092654
1738772417903710000,8.5177099609375,-0.0002628982765600085,-0.00014179549179971218,0.0004060114442836493
1738772417913701000,8.527701171875,-0.0000790043268352747,-0.0005426299758255482,-0.001263351645320654
1738772417923693000,8.537693115234376,-0.0015160460025072098,-0.00010773586109280586,0.0020395005121827126
1738772417933684200,8.547684326171876,-0.001018824870698154,0.0011672643013298512,0.00023215982946567237
1738772417943675100,8.557675048828125,-0.000899781531188637,0.0005819010548293591,-0.0003095271240454167
1738772417953666000,8.567666015625,-0.0004938244237564504,0.0006928693037480116,0.001341380411759019
1738772417963657000,8.577656982421875,-0.0010405713692307472,-0.0006078188307583332,-0.0007151125464588404
1738772417973649200,8.587649169921875,-0.000317462719976902,0.0003880544099956751,-0.000033518881537020206
1738772417983640000,8.59764013671875,0.0002950642956420779,-0.0006274089682847261,-0.0008188851061277092
1738772417993631000,8.607630859375,-0.0007626015576533973,-0.00023804418742656708,0.00033474090741947293
1738772418003622100,8.6176220703125,-0.0004664580337703228,-0.0005222035106271505,-0.00070042978040874
1738772418013613000,8.627613037109375,-0.0010331410448998213,0.0008442411199212074,-0.0011981769930571318
1738772418023604000,8.63760400390625,-0.0008634976693429053,-0.00009106099605560303,0.000199449947103858
1738772418033596200,8.64759619140625,-0.00012971286196261644,0.00043040537275373936,0.0013794598635286093
1738772418043587000,8.657587158203125,-0.00002425163984298706,0.00033559720031917095,0.0010119436774402857
1738772418053578000,8.667577880859374,-0.00022074056323617697,-0.0009666057303547859,0.0003815653035417199
1738772418063569200,8.677569091796874,0.00033825694117695093,0.00008933758363127708,0.0004484106902964413
1738772418073560000,8.68756005859375,-0.0007467081886716187,0.002049002330750227,-0.0005843071267008781
1738772418083552000,8.697552001953126,0.0007494557648897171,-0.00018352572806179523,-0.00023436773335561156
1738772418093543200,8.707543212890625,-0.0005632451502606273,0.00016538985073566437,0.0002107429609168321
1738772418103534000,8.7175341796875,-0.0002071805065497756,0.0006844401359558105,-0.00019299224368296564
1738772418113525000,8.72752490234375,-0.0013312482042238116,0.0018037562258541584,0.0009139081230387092
1738772418123516200,8.73751611328125,-0.0010148647706955671,-0.001249824184924364,-0.00048185454215854406
1738772418133507800,8.7475078125,0.000585222733207047,-0.0011391639709472656,0.000187793280929327
1738772418143499000,8.7574990234375,0.00010239158291369677,0.0010944290552288294,0.0013622472761198878
1738772418153490200,8.767490234375,-0.0009340785909444094,0.0006398018449544907,0.00034993886947631836
1738772418163481000,8.777481201171875,-0.001266174716874957,-0.0000883063767105341,-0.000772849831264466
1738772418173472000,8.787471923828125,-0.000861690379679203,-0.0005065763834863901,-0.00042572407983243465
1738772418183463200,8.797463134765625,-0.0005210720701143146,-0.0017372231232002378,-0.0005618116119876504
1738772418193455000,8.807455078125,-0.0008225818746723235,-0.0003570199478417635,-0.0001791520626284182
1738772418203446000,8.817446044921875,-0.0011642654426395893,0.0031748642213642597,0.0009164723451249301
1738772418213437200,8.827437255859374,-0.0014670826494693756,0.0010717730037868023,0.00023182149743661284
1738772418223428000,8.837427978515626,0.000183278345502913,-0.0012129528913646936,-0.00019428427913226187
1738772418233419000,8.8474189453125,-0.0002119616838172078,0.0004964785184711218,0.0002646175562404096
1738772418243411000,8.857410888671875,-0.00029798178002238274,-0.00023083086125552654,0.0020886166021227837
1738772418253402000,8.867402099609375,-0.0006966314977034926,0.00033946637995541096,0.00014861629460938275
1738772418263393000,8.87739306640625,0.000857855542562902,0.00086011434905231,0.0005909673636779189
1738772418273384200,8.88738427734375,0.00042904727160930634,0.0009061384480446577,0.00016919674817472696
1738772418283375000,8.897375,-0.0015491486992686987,-0.00011811335571110249,0.00018624099902808666
1738772418293367000,8.907366943359374,-0.0010268368059769273,-0.000488754827529192,0.00006208012928254902
1738772418303358000,8.91735791015625,0.00011938775423914194,0.0013110095169395208,-0.000013553653843700886
1738772418313349000,8.92734912109375,0.0008238963782787323,-0.0008539936970919371,-0.00014846317935734987
1738772418323340000,8.937340087890625,0.0012547958176583052,0.0022741553839296103,-0.0012835024390369654
1738772418333331200,8.947331298828125,0.00008312216959893703,0.0013538075145334005,-0.0013672142522409558
1738772418343323000,8.957322998046875,-0.0005091648199595511,0.00118549563921988,0.0001015191082842648
1738772418353314000,8.96731396484375,-0.00006986013613641262,-0.0006102018523961306,-0.0004389896639622748
1738772418363305200,8.97730517578125,0.001975713763386011,-0.0008165969047695398,0.00038232922088354826
1738772418373296000,8.987296142578124,-0.0010324798058718443,0.000009410548955202103,0.0008510012412443757
1738772418383287000,8.997287109375,0.0009377268142998219,0.0007540301885455847,-0.0006374394870363176
1738772418393279000,9.007279052734376,0.0002002962864935398,0.0012734481133520603,0.0005283938371576369
1738772418403270000,9.017269775390625,-0.000388528686016798,0.0005357521586120129,0.0020623744931071997
1738772418413261000,9.027260986328125,-0.0006669764406979084,0.0006188603583723307,-0.0017112414352595806
1738772418423252200,9.037252197265625,-0.0007266312022693455,-0.0007729073986411095,0.0010560492519289255
1738772418433243100,9.0472431640625,0.00028922222554683685,0.0009339109528809786,0.00016884820070117712
1738772418443234000,9.057234130859374,-0.0009523434564471245,0.0023171568755060434,-0.0003981387708336115
1738772418453226000,9.06722607421875,-0.0000173195730894804,0.0007282800506800413,-0.00013400714669842273
1738772418463217000,9.077216796875,-0.0009134732536040246,0.00020150677300989628,-0.00014572504733223468
1738772418473208000,9.0872080078125,-0.0008752600406296551,-0.00013246294111013412,0.0004987438442185521
1738772418483199200,9.09719921875,0.0018257179763168097,-0.0013535220641642809,-0.00022963066294323653
1738772418493190100,9.107190185546875,0.0020984048023819923,0.0001822600606828928,0.0008839546353556216
1738772418503181800,9.117181884765625,-0.0004068309208378196,-0.00013332441449165344,-0.0012612217105925083
1738772418513173000,9.127173095703125,-0.0011735090520232916,0.00005491077899932861,-0.0014069481985643506
1738772418523164200,9.1371640625,-0.0015695211477577686,0.0004581133835017681,-0.0007472832221537828
1738772418533155000,9.147155029296876,0.00029136508237570524,-0.0005458444356918335,0.0006441468722186983
1738772418543146200,9.157146240234376,0.0010815249988809228,-0.0002811262384057045,0.000037212419556453824
1738772418553138000,9.167137939453125,0.00009063282050192356,0.000015172874554991722,0.0005418373621068895
1738772418563128800,9.17712890625,0.0006999641191214323,0.0002663086634129286,-0.0011474057100713253
1738772418573120000,9.1871201171875,0.00041002524085342884,-0.0012945323251187801,0.00022361267474479973
1738772418583111200,9.197111083984375,0.0012039134744554758,0.0005126886535435915,0.0022510772105306387
1738772418593102000,9.20710205078125,-0.0007986955461092293,0.0021167476661503315,0.00016601770767010748
1738772418603094000,9.217093994140624,0.000030346447601914406,-0.0007051376160234213,0.0012232926674187183
1738772418613085000,9.2270849609375,-0.00044873537262901664,-0.0009542349725961685,-0.001877008005976677
1738772418623075800,9.237075927734375,0.0008159999269992113,0.00047162151895463467,-0.0017710141837596893
1738772418633067000,9.24706689453125,-0.0003561187768355012,0.0009856645483523607,0.0012674673926085234
1738772418643058200,9.25705810546875,-0.00045944948215037584,0.0009446518961340189,-0.0010225847363471985
1738772418653049000,9.267049072265625,0.00045292743016034365,0.00030764914117753506,0.00005130015779286623
1738772418663041000,9.277041015625,0.0006630507996305823,-0.000013527926057577133,-0.00010156526695936918
1738772418673032000,9.287031982421874,0.0006319046951830387,-0.0013285840395838022,-0.0017050253227353096
1738772418683022800,9.29702294921875,-0.000301000545732677,0.0008837038185447454,0.0010087357368320227
1738772418693014300,9.30701416015625,-0.0003599541960284114,0.0004487498663365841,0.00033312488812953234
1738772418703005200,9.317005126953125,0.002330371178686619,-0.00038455333560705185,-0.0016274943482130766
1738772418712996900,9.326996826171875,-0.00006237078923732042,-0.001662778900936246,0.0001729366194922477
1738772418722988000,9.336988037109375,-0.0024573514237999916,-0.00044731213711202145,-0.000056627875892445445
1738772418732979000,9.34697900390625,-0.0003773900680243969,-0.0001611504703760147,0.0004930703435093164
1738772418742970000,9.35697021484375,0.00024445808958262205,-0.00021920748986303806,-0.0011903137201443315
1738772418752961000,9.3669609375,0.00008729670662432909,0.000692018074914813,-0.000820272951386869
1738772418762953000,9.376952880859376,-0.0014565377496182919,0.0008864288683980703,-0.001516423188149929
1738772418772944000,9.38694384765625,0.0007426131051033735,-0.00033202487975358963,-0.0003931941173505038
1738772418782935000,9.39693505859375,0.00009040487930178642,-0.0005876882933080196,0.0011535697849467397
1738772418792926000,9.406926025390625,-0.0013282888103276491,-0.0006810068152844906,-0.0008289075922220945
1738772418802917000,9.416917236328125,-0.0010627715382725,0.00017173727974295616,-0.0017839171923696995
1738772418812908000,9.426907958984375,0.001738790306262672,0.0006532687693834305,-0.00016930355923250318
1738772418822900000,9.43689990234375,0.0007614101050421596,0.0001587197184562683,-0.001222051214426756
1738772418832891000,9.446890869140624,0.0018193464493378997,-0.00012587616220116615,0.0005166148184798658
1738772418842881800,9.4568818359375,-0.0006864218157716095,-0.0012875469401478767,0.00011527643073350191
1738772418852873000,9.466873046875,-0.00010135769844055176,0.00015445519238710403,-0.0008730923291295767
1738772418862864100,9.476864013671875,-0.0014960551634430885,-0.00023356731981039047,-0.000029935501515865326
1738772418872856000,9.48685595703125,-0.0006830153288319707,0.001434133853763342,-0.000054333359003067017
1738772418882847000,9.496846923828125,0.00021154049318283796,-0.00026309886015951633,-0.0017795291496440768
1738772418892838000,9.506837890625,0.000046718050725758076,0.0003052731044590473,0.0001483444357290864
1738772418902829000,9.5168291015625,-0.0003482287283986807,0.00044082803651690483,0.0012940363958477974
1738772418912820200,9.5268203125,0.0010524801909923553,-0.00022770138457417488,-0.0011051276233047247
1738772418922812000,9.53681201171875,-0.0007749809883534908,-0.0011286488734185696,0.001000101212412119
1738772418932803000,9.546802978515625,0.00008160434663295746,-0.00017413333989679813,0.001218631281517446
1738772418942794000,9.5567939453125,-0.0008917809464037418,-0.00020502600818872452,-0.0004900529165752232
1738772418952785000,9.566784912109375,-0.0002456809161230922,-0.0002021612599492073,0.00046559382462874055
1738772418962776000,9.576776123046875,-0.0003255758201703429,0.000670556677505374,-0.00019247329328209162
1738772418972767200,9.586767333984374,0.000832689693197608,0.0011959457769989967,-0.000779532827436924
1738772418982759000,9.596759033203124,-0.001226732856594026,0.0007184413261711597,0.0014617835404351354
1738772418992749800,9.606749755859376,0.0015341322869062424,-0.000018750550225377083,-0.0017789455596357584
1738772419002741000,9.616740966796876,-0.0001066412078216672,-0.0004885320086032152,0.0006394709926098585
1738772419012732000,9.62673193359375,-0.0011056856019422412,0.00027272291481494904,-0.0011236942373216152
1738772419022723000,9.63672314453125,0.00063548912294209,-0.0006260941736400127,0.0015738215297460556
1738772419032715000,9.646715087890625,-0.0006057085120119154,0.0004327697679400444,-0.0002598135033622384
1738772419042706000,9.656705810546875,0.000892053241841495,-0.00021704169921576977,-0.00020095764193683863
1738772419052696800,9.66669677734375,-0.00038526562275364995,0.0015114671550691128,-0.00036686507519334555
1738772419062688000,9.67668798828125,0.00047466903924942017,-0.0011261277832090855,-0.0002821765374392271
1738772419072679200,9.68667919921875,0.00047816080041229725,0.0006376300007104874,0.00015657208859920502
1738772419082670800,9.6966708984375,-0.00006246089469641447,-0.00007103732787072659,0.0006681653903797269
1738772419092662000,9.706662109375,-0.00013008818496018648,-0.0007229533512145281,0.0003591952263377607
1738772419102653000,9.71665283203125,-0.0006584593211300671,-0.0004563711117953062,-0.0005707805976271629
1738772419112643800,9.726643798828125,-0.0020018345676362514,-0.00011816178448498249,-0.0016416070284321904
1738772419122635000,9.736635009765624,0.000016841688193380833,-0.0013951475266367197,-0.0018642472568899393
1738772419132626200,9.746626220703124,0.0012354205828160048,0.0006396248936653137,-0.0018575252033770084
1738772419142617900,9.756617919921876,-0.000060473568737506866,-0.0004605269059538841,0.001222953200340271
1738772419152609000,9.766609130859376,-0.0007760695880278945,-0.0009972334373742342,0.0003554124850779772
1738772419162600000,9.776599853515625,0.0010500599164515734,-0.0007567501161247492,0.0006334464997053146
1738772419172590800,9.7865908203125,-0.0015016498509794474,-0.0012027735356241465,-0.0012907227501273155
1738772419182582000,9.79658203125,0.0002770754508674145,0.0005967244505882263,0.0005710931145586073
1738772419192574000,9.806573974609375,-0.0005028540617786348,-0.00014018244110047817,-0.0006761175463907421
1738772419202564900,9.81656494140625,0.0005134082166478038,-0.0003905193880200386,-0.00040181196527555585
1738772419212556000,9.82655615234375,0.00024597125593572855,-0.0008418126963078976,0.0006268409197218716
1738772419222547000,9.836546875,-0.0003202167572453618,0.00014195917174220085,-0.0012307139113545418
1738772419232538000,9.8465380859375,-0.0008700389880686998,0.0003563924692571163,0.0011339748743921518
1738772419242530000,9.856530029296875,-0.0012793667847290635,-0.00042737601324915886,0.0005539385019801557
1738772419252521000,9.86652099609375,-0.00014689494855701923,-0.0004489112179726362,0.0002678473247215152
1738772419262511900,9.876511962890625,-0.00023318140301853418,-0.00015569711104035378,-0.0002615890698507428
1738772419272503000,9.8865029296875,-0.0010452579008415341,-0.0014794974122196436,-0.0004785879864357412
1738772419282494500,9.896494384765624,-0.001143262255936861,0.00006646756082773209,-0.0008940411498770118
1738772419292485400,9.9064853515625,-0.00004593783523887396,-0.0002249828539788723,-0.0015512038953602314
1738772419302477600,9.9164775390625,-0.002369545865803957,-0.00017092074267566204,-0.0003969898971263319
1738772419312468500,9.926468505859376,0.00028690730687230825,-0.0007938188500702381,-0.001356864464469254
1738772419322459400,9.93645947265625,0.0007329868385568261,0.0006157923489809036,-0.0007904100930318236
1738772419332450300,9.9464501953125,0.0005882469704374671,-0.001538668293505907,0.00021379627287387848
1738772419342441500,9.95644140625,-0.0011460034875199199,-0.00009550130926072598,0.0006588104879483581
1738772419352433400,9.966433349609375,0.0003898170543834567,-0.0008490835316479206,-0.0005322123761288822
1738772419362424600,9.976424560546874,-0.0005875630304217339,-0.0003633229061961174,-0.0012797617819160223
1738772419372415500,9.98641552734375,0.00045340671204030514,-0.000236790394410491,-0.001062196446582675
1738772419382406400,9.996406494140626,-0.00022809614893049002,-0.0007896625902503729,0.0010076123289763927
1738772419392397300,10.006397216796875,-0.0009852899238467216,0.0007096142508089542,-0.0005639111623167992
1738772419402389500,10.016389404296875,-0.0012193816946819425,0.0002462239935994148,-0.00011623377213254571
1738772419412380400,10.02638037109375,-0.0009707430726848543,-0.0004821175243705511,-0.0006091366522014141
1738772419422371300,10.036371337890625,0.00047775020357221365,0.0003565121442079544,0.00014107581228017807
1738772419432362500,10.046362548828125,-0.0005920716212131083,0.0005653747357428074,-0.0009218874620273709
1738772419442353400,10.056353515625,-0.0018863677978515625,-0.0006034865509718657,-0.0006590334232896566
1738772419452344300,10.06634423828125,0.0012643160298466682,-0.0008176921401172876,-0.001728087430819869
1738772419462336500,10.07633642578125,0.00043181178625673056,0.0006483779288828373,0.0000711441389285028
1738772419472327400,10.086327392578125,-0.0008011557511053979,0.0013182663824409246,-0.0003749683382920921
1738772419482318300,10.096318359375,-0.0006104733911342919,0.000050868140533566475,-0.001734512043185532
1738772419492309500,10.1063095703125,-0.0006521300529129803,0.00009607174433767796,-0.0004164355923421681
1738772419502300400,10.116300537109375,0.0002469531027600169,0.0008247129153460264,-0.0017890287563204765
1738772419512292400,10.126292236328124,0.0013453365536406636,-0.0001985928975045681,-0.0006228659767657518
1738772419522283500,10.136283447265624,0.0007668981561437249,-0.0006830217316746712,-0.0004934363532811403
1738772419532274400,10.1462744140625,0.0011683683842420578,-0.0010807060170918703,-0.0010363920591771603
1738772419542265300,10.156265380859375,-0.0002281933557242155,0.000013054115697741508,0.0005841414676979184
1738772419552256500,10.166256591796875,-0.0009150555706582963,-0.0003556173760443926,0.00015843234723433852
1738772419562248400,10.17624853515625,0.0009488909272477031,-0.0007151439785957336,0.0010178344091400504
1738772419572239400,10.1862392578125,0.0009913097601383924,0.0003005429171025753,-0.00042437814408913255
1738772419582230500,10.19623046875,0.000746565405279398,0.00002623768523335457,-0.000812400714494288
1738772419592221400,10.206221435546874,-0.0004384222556836903,0.001045350218191743,-0.0013693395303562284
1738772419602212400,10.21621240234375,-0.0010895652230829,0.0008501403499394655,-0.0006891682278364897
1738772419612203500,10.22620361328125,0.0006965970387682319,-0.0006136032752692699,0.001028406317345798
1738772419622195500,10.236195556640626,7.131602615118027e-7,0.0007909478154033422,-0.0008145010797306895
1738772419632186400,10.246186279296875,-0.0006489458028227091,0.0001319472212344408,0.0010858706664294004
1738772419642177500,10.256177490234375,0.00027383945416659117,0.0011806997936218977,-0.00005955499364063144
1738772419652168400,10.26616845703125,0.00015531352255493402,0.0002581118606030941,0.0011371157597750425
1738772419662159400,10.276159423828124,-0.00030807650182396173,0.0004895408637821674,-0.00002056034281849861
1738772419672151600,10.286151611328124,0.0007238615071401,-0.0004364557098597288,0.00007236204692162573
1738772419682142500,10.296142578125,-0.0003611103165894747,0.0005401254165917635,-0.001225662650540471
1738772419692133400,10.30613330078125,0.0014992750948294997,-0.0004575506318360567,0.0002810252190101892
1738772419702124500,10.31612451171875,0.00015730829909443855,-0.0009624860249459743,0.00022137039923109114
1738772419712115500,10.326115478515625,0.0008921660482883453,0.00046234484761953354,-0.0009194213780574501
1738772419722106400,10.3361064453125,-0.0004942755331285298,0.00024982448667287827,0.0006984490319155157
1738772419732098600,10.3460986328125,-0.001108880271203816,0.000014804769307374954,-0.0011080263648182154
1738772419742089500,10.35608935546875,0.0005769007839262486,0.0010047019459307194,-0.000003080902388319373
1738772419752080400,10.366080322265624,-0.0008116007084026933,-0.0009665412362664938,-0.0013538399944081903
1738772419762071600,10.376071533203126,0.0009580698097124696,-0.001416615443304181,0.0010129112051799893
1738772419772062500,10.3860625,-0.0005173697136342525,-0.00020973198115825653,-0.0003308067680336535
1738772419782054400,10.396054443359375,0.0008967688772827387,-0.0006081408355385065,0.0008489735773764551
1738772419792045600,10.406045654296875,0.0007806961657479405,0.000496377469971776,0.0008577127591706812
1738772419802036500,10.416036376953125,-0.0005676621804013848,0.00007506529800593853,-0.0013785436749458313
1738772419812027400,10.42602734375,-0.00018125202041119337,0.00018205284141004086,0.0003663949901238084
1738772419822018300,10.436018310546874,-0.0002952353097498417,-0.0007045136298984289,-0.0003590500564314425
1738772419832010500,10.446010498046874,-0.00011377711780369282,-0.0006414535455405712,-0.00017147361359093338
1738772419842001400,10.45600146484375,0.0007400322938337922,0.0010472568683326244,0.00006421614671126008
1738772419851992600,10.46599267578125,-0.0005824748077429831,-0.00008859881199896336,0.0008807663107290864
1738772419861983500,10.4759833984375,-0.0008373393211513758,-0.0009586536325514317,0.0007289660861715674
1738772419871974400,10.485974365234375,0.00042122427839785814,-0.00020648841746151447,-0.0006240844377316535
1738772419881965300,10.49596533203125,0.00031203473918139935,-0.0003617508336901665,0.0014060433022677898
1738772419891957500,10.50595751953125,-0.0004885838134214282,-0.0005576545372605324,0.00036969027132727206
1738772419901948400,10.515948486328124,0.000909841968677938,-0.001222912222146988,-0.0008151500951498747
1738772419911939300,10.525939208984376,0.002040185034275055,-0.000032658688724040985,0.001867187675088644
1738772419921930500,10.535930419921876,-0.000639487465377897,-0.0009075072593986988,-0.0011877244105562568
1738772419931921400,10.54592138671875,-0.0013337278505787253,-0.0005653966218233109,0.0006913557881489396
1738772419941913600,10.55591357421875,0.0016202504048123956,-0.000651682959869504,0.000975248811300844
1738772419951904500,10.565904541015625,0.0008914190111681819,0.000765669159591198,-0.0006393591756932437
1738772419961895400,10.5758955078125,-0.0004263130249455571,-0.00013634376227855682,0.0006789055769331753
1738772419971886300,10.58588623046875,-0.00005036708898842335,0.00011184811592102051,-0.0006086844950914383
1738772419981877500,10.59587744140625,-0.0005710151162929833,0.00018135644495487213,0.000027012021746486425
1738772419991869400,10.605869384765626,0.0001767982030287385,0.00020510959438979626,0.002213752595707774
1738772420001860400,10.6158603515625,-0.002210725797340274,-0.00037146476097404957,-0.00112505245488137
1738772420011851500,10.6258515625,0.0002140253782272339,0.0007764024194329977,-0.0006531536928378046
1738772420021842400,10.635842529296875,-0.00018251931760460138,-0.0008372066076844931,0.001219847472384572
1738772420031833300,10.645833251953125,-0.00045368727296590805,0.00043984316289424896,0.0006726424326188862
1738772420041824500,10.655824462890624,0.0004706959007307887,-0.0008264898788183928,-0.00025040918262675405
1738772420051816400,10.66581640625,-0.00011926994193345308,0.0003799491096287966,-0.00008998906560009345
1738772420061807400,10.675807373046876,-0.00047533458564430475,-0.0007486985996365547,-0.00024844714789651334
1738772420071798500,10.685798583984376,-0.0008090562769211829,0.0006746926810592413,-0.0010773218236863613
1738772420081789400,10.69578955078125,0.0004855063743889332,-0.0013208137825131416,0.0010348312789574265
1738772420091780400,10.7057802734375,-0.0007187370792962611,-0.0000912428367882967,-0.000595792371314019
1738772420101772500,10.7157724609375,0.0019249829929322004,-0.0012771484907716513,0.0004769288934767246
1738772420111763500,10.725763427734375,-0.0008640836458653212,0.0003729485906660557,0.00042100466089323163
1738772420121754400,10.73575439453125,0.000213164952583611,-0.0006318618543446064,0.0010596306528896093
1738772420131745500,10.74574560546875,0.00022332731168717146,0.0005671274848282337,0.0001605117868166417
1738772420141736400,10.755736328125,0.000879796571098268,-0.000018768012523651123,-0.0006498881266452372
1738772420151728400,10.765728271484376,-0.0006457939743995667,0.0003556949086487293,0.0017657235730439425
1738772420161719600,10.775719482421875,-0.00043274101335555315,-0.003391905687749386,0.0015635895542800426
1738772420171710500,10.78571044921875,0.00039895030204206705,0.0015585273504257202,0.0001068514829967171
1738772420181701400,10.795701416015625,0.0009243921376764774,-0.001730476738885045,0.0007257701363414526
1738772420191692500,10.805692626953125,-0.0015337694203481078,0.0004189291503280401,0.00009721639798954129
1738772420201683500,10.815683349609374,-0.0012669205898419023,0.0010186729487031698,0.0015225401148200035
1738772420211675400,10.82567529296875,-0.00003310246393084526,-0.00036314455792307854,0.0005701628397218883
1738772420221666600,10.83566650390625,-0.0007026211824268103,0.0001564384438097477,0.00025457824813202024
1738772420231657500,10.845657470703125,-0.00019033579155802727,-0.000801165821030736,0.0024762179236859083
1738772420241648400,10.8556484375,0.0003851733636111021,-0.00007012812420725822,0.0002753817243501544
1738772420251639600,10.8656396484375,-0.0005476743681356311,0.00010342104360461235,0.0008447985164821148
1738772420261631500,10.875631591796875,-0.0017032199539244175,-0.0006585093215107918,0.0017156521789729595
1738772420271622400,10.885622314453125,-0.0006402344442903996,0.0007320616859942675,-0.0007427453529089689
1738772420281613800,10.89561376953125,-0.0005733890575356781,0.0007855913136154413,0.0005265171639621258
1738772420291604700,10.905604736328126,-0.0010185273131355643,0.00012199534103274345,0.00011532037751749158
1738772420301595600,10.915595703125,-0.0016837849980220199,-0.0005392676685005426,0.0009249213617295027
1738772420311586800,10.9255869140625,-0.0006590965786017478,0.0001664450392127037,0.001073080813512206
1738772420321578800,10.935578857421875,0.0004053688608109951,-0.00020133727230131626,-0.00006195837340783328
1738772420331569700,10.945569580078125,0.002126659732311964,-0.0006155974697321653,-0.0013614058261737227
1738772420341560800,10.955560791015625,0.0012720513623207808,0.0004802930634468794,0.0011464928975328803
1738772420351551700,10.9655517578125,0.0016093862941488624,-0.00009960704483091831,0.001342772739008069
1738772420361542700,10.975542724609374,0.001040268805809319,-0.0009720586240291595,0.001247165258973837
1738772420371534800,10.985534912109374,0.00015322433318942785,0.0005826030392199755,0.00003377688699401915
1738772420381525800,10.99552587890625,0.0002006286522373557,0.00016208994202315807,-0.0003553109709173441
1738772420391516700,11.0055166015625,-0.0024213504511862993,0.00020779087208211422,0.0005681294715031981
1738772420401507800,11.0155078125,0.00048522348515689373,0.00020725815556943417,-0.00047476444160565734
1738772420411498800,11.025498779296875,-0.00004412000998854637,-0.00008553080260753632,-0.0006398221012204885
1738772420421489700,11.03548974609375,0.000054416945204138756,-0.0009465308394283056,0.0009657976916059852
1738772420431481900,11.04548193359375,-0.00030274689197540283,-0.0006740747485309839,0.0003052777610719204
1738772420441472800,11.05547265625,-0.00014775095041841269,-0.00007752655074000359,0.0016272709472104907
1738772420451463700,11.065463623046876,-0.0012285395059734583,0.0009100837633013725,0.0006311096949502826
1738772420461454600,11.07545458984375,-0.003598486538976431,-0.00033254711888730526,0.0006060759769752622
1738772420471445800,11.08544580078125,0.0002507016761228442,0.0004820912145078182,-0.00021382633713074028
1738772420481437700,11.095437744140625,-0.000008690287359058857,-0.0011602803133428097,0.000790984311606735
1738772420491428900,11.105428955078125,0.00017262226901948452,-0.0007996382191777229,0.0008528382168151438
1738772420501419800,11.115419677734375,0.0002858066000044346,0.000605445820838213,-0.0016971384175121784
1738772420511410700,11.12541064453125,-0.0004892136203125119,0.00010594981722533703,-0.0008374503231607378
1738772420521401600,11.135401611328126,-0.0004612504271790385,0.0009059631265699863,-0.0020028497092425823
1738772420531393800,11.145393798828126,-0.00020276510622352362,-0.0008089048787951469,-0.0006868016789667308
1738772420541384700,11.155384765625,-0.00004936708137392998,0.0003152152057737112,-0.00031981809297576547
1738772420551375600,11.165375732421875,-0.0010568469297140837,0.0012334883213043213,0.0025656612124294043
1738772420561366800,11.17536669921875,0.0009112290572375059,-0.0002504249569028616,-0.0014378686901181936
1738772420571357700,11.185357666015625,0.0010291479993611574,-0.001680656336247921,0.0008958756807260215
1738772420581348600,11.1953486328125,0.001670437166467309,0.0007990130688995123,-0.0003432931553106755
1738772420591340800,11.2053408203125,-0.00019914621952921152,-0.0006355619989335537,-0.0013679279945790768
1738772420601331700,11.215331787109376,0.0005137820262461901,-0.00013382243923842907,0.0007125335396267474
1738772420611322600,11.225322509765626,-0.0009083324111998081,-0.0021552168764173985,0.00034612990566529334
1738772420621313800,11.235313720703125,0.0002227120567113161,0.000633645337074995,-0.00003416949766688049
1738772420631304700,11.2453046875,0.0006631036521866918,0.00022001867182552814,-0.00006363482680171728
1738772420641296600,11.255296630859375,0.0008814827306196094,0.00018087029457092285,-0.0009139821631833911
1738772420651287800,11.265287841796875,0.00011086405720561743,0.00032143411226570606,-0.0011654254049062729
1738772420661278700,11.27527880859375,-0.0004297576379030943,-0.000890570692718029,0.0008002537069842219
1738772420671269600,11.28526953125,0.00026926305145025253,0.0004103004466742277,0.00019599898951128125
1738772420681260800,11.2952607421875,0.0006836508400738239,-0.0005103540606796741,0.0017294471617788076
1738772420691251700,11.305251708984375,-0.00004738441202789545,-0.0018337358487769961,0.0005362463416531682
1738772420701243600,11.31524365234375,-0.00025910569820553064,-0.000479784794151783,-0.0001018470647977665
1738772420711234800,11.32523486328125,0.0005284991348162293,0.0007042987272143364,0.00014402472879737616
1738772420721225700,11.335225830078125,-0.0004795072600245476,0.0007682149298489094,-0.0026200702413916588
1738772420731216600,11.345216552734374,0.0005761516513302922,0.0005569059867411852,0.00045315956231206656
1738772420741207800,11.355207763671874,0.00040491041727364063,0.00008659157902002335,0.0002702003694139421
1738772420751199700,11.36519970703125,0.00014271587133407593,-0.00027924380265176296,-0.00020647633937187493
1738772420761190700,11.375190673828126,-0.0008687526569701731,-0.0015200106427073479,0.0007597184740006924
1738772420771181800,11.385181884765625,0.0023811059072613716,-0.0000073607079684734344,-0.0009731960017234087
1738772420781172700,11.3951728515625,-0.00046661205124109983,0.0009452519007027149,-0.000679715652950108
1738772420791163600,11.40516357421875,-0.001415387960150838,-0.001064483541995287,-0.000570870004594326
1738772420801155800,11.41515576171875,0.001975082326680422,0.0008210346568375826,-0.0003397076216060668
