time,seconds_elapsed,z,y,x
1738772409406203000,0.020202880859375,0.00027616979787126184,0.004098338540643454,0.00034967303508892655
1738772409416193800,0.03019384765625,0.0013816480059176683,0.0034091125708073378,0.0013259878614917397
1738772409426184700,0.040184814453125,-0.0001448759576305747,0.0027835359796881676,0.0005305017111822963
1738772409436176000,0.05017578125,0.002301770029589534,0.0027622305788099766,0.0004700479330495
1738772409446167800,0.060167724609375,0.0015257250051945448,0.003697799053043127,0.0001776328426785767
1738772409456158700,0.07015869140625,0.0000031957933970261365,0.004028830211609602,0.0002324939559912309
1738772409466150000,0.08014990234375,0.0024703482631593943,0.004540423396974802,0.00011957593233091757
1738772409476140800,0.090140869140625,0.000493750034365803,0.004608067683875561,0.0014543522847816348
1738772409486131700,0.100131591796875,0.0015635418239980936,0.0034080471377819777,-0.00045593318645842373
1738772409496124000,0.1101240234375,0.0015430354978889227,0.004595017991960049,0.00011904330312972888
1738772409506114800,0.12011474609375,0.0015630092239007354,0.004976116586476564,-0.0005571332876570523
1738772409516105700,0.130105712890625,0.0009672601008787751,0.004080228973180056,0.00015579492901451886
1738772409526097000,0.140096923828125,0.00196354859508574,0.003581685246899724,-0.000060453756304923445
1738772409536087800,0.150087890625,0.000040480048483004794,0.004743888974189758,-0.00006338323146337643
1738772409546079700,0.160079833984375,0.0010966897243633866,0.003754524514079094,0.000464188982732594
1738772409556071000,0.17007080078125,0.0007227819296531379,0.003320429241284728,0.0002892192860599607
1738772409566061800,0.180061767578125,0.0009526127250865102,0.003501257859170437,-0.0001757686259225011
1738772409576052700,0.190052734375,0.00006924218905624002,0.004747350700199604,0.001240766723640263
1738772409586044000,0.2000439453125,0.0006756439688615501,0.0037763623986393213,-0.00022157499915920198
1738772409596035800,0.210035888671875,0.0007182545377872884,0.0023036343045532703,-0.0011912320042029023
1738772409606026800,0.22002685546875,0.0016490293201059103,0.0035832831636071205,0.0009709885343909264
1738772409616018000,0.230017822265625,0.0027569043450057507,0.0037856835406273603,0.00023622238950338215
1738772409626008800,0.2400087890625,0.0013944311067461967,0.004297276493161917,-0.0005912217311561108
1738772409635999700,0.249999755859375,0.0014863101532682776,0.0018519621808081865,-0.00001997370782191865
1738772409645991700,0.25999169921875,0.0005640574963763356,0.004715659189969301,0.00004873584839515388
1738772409655982800,0.26998291015625,0.0019081549253314734,0.004227768164128065,0.000916393706575036
1738772409665973800,0.279973876953125,0.0007424892974086106,0.0021752698812633753,0.00044607947347685695
1738772409675965000,0.28996484375,0.00039308256236836314,0.003748931922018528,0.0011579424608498812
1738772409685955800,0.299955810546875,0.002755040070042014,0.0028575719334185123,0.0004625910660251975
1738772409695947500,0.309947509765625,0.001443166984245181,0.004563060123473406,-0.0001203748834086582
1738772409705939000,0.31993896484375,0.002918291836977005,0.003450657706707716,-0.0003462109307292849
1738772409715929900,0.329929931640625,0.0017805894603952765,0.0024770060554146767,0.001558748190291226
1738772409725920800,0.339920654296875,0.00040187101694755256,0.004179032519459724,0.0007592672482132912
1738772409735912000,0.349911865234375,0.0007004113867878914,0.0028152274899184704,-0.0006625944515690207
1738772409745903600,0.359903564453125,0.003270095447078347,0.003612045431509614,0.0002894856152124703
1738772409755894800,0.369894775390625,0.0010167949367314577,0.002663161139935255,-0.000011185276889591478
1738772409765886000,0.379885986328125,0.001532116555608809,0.0036932716611772776,0.0012125372886657715
1738772409775876900,0.389876953125,0.0009893643436953425,0.0037286917213350534,0.00006072007090551779
1738772409785867800,0.39986767578125,0.00019813918333966285,0.0033840788528323174,-0.0005336974863894284
1738772409795859700,0.409859619140625,0.0002263686910737306,0.0037758296821266413,0.0007835020078346133
1738772409805850600,0.4198505859375,0.001677525113336742,0.0036754286848008633,-0.000248472933890298
1738772409815841800,0.429841796875,0.0013486248208209872,0.005071191117167473,0.0008436894277110696
1738772409825833000,0.4398330078125,0.002936934120953083,0.004990497604012489,0.0010639328975230455
1738772409835823900,0.449823974609375,0.0009595369338057935,0.0032716933637857437,-0.00020506340661086142
1738772409845815600,0.459815673828125,0.002763828495517373,0.0019068233668804169,0.0015164038632065058
1738772409855806700,0.469806640625,0.00045327001134864986,0.004884237423539162,0.00038003307417966425
1738772409865797600,0.479797607421875,0.0018335863715037704,0.004052798729389906,-0.0011076086666435003
1738772409875788800,0.489788818359375,0.0012026835465803742,0.004732703324407339,0.0001573928166180849
1738772409885780700,0.49978076171875,0.0013249226612970233,0.003381948219612241,-0.0002468750171829015
1738772409895771600,0.509771728515625,0.0037497307639569044,0.004493285436183214,0.0006053365068510175
1738772409905762600,0.519762451171875,0.0027888622134923935,0.0041185785084962845,0.00088976213010028
1738772409915753700,0.529753662109375,0.00011904330312972888,0.003227484878152609,0.0009038768475875258
1738772409925745000,0.539744873046875,0.0008106662426143885,0.0031289479229599237,0.00011717908637365326
1738772409935736600,0.549736572265625,0.0025156219489872456,0.0034562505315989256,-0.0003195793251506984
1738772409945727700,0.559727783203125,0.0030900659039616585,0.0030722226947546005,0.0010138654615730047
1738772409955718700,0.56971875,0.0030394657514989376,0.004171309061348438,-0.00004713794987765141
1738772409965709600,0.57970947265625,0.0041404166258871555,0.001722798915579915,0.0013821806060150266
1738772409975700700,0.58970068359375,0.00336197461001575,0.0044203149154782295,0.0008117315010167658
1738772409985692700,0.599692626953125,0.003614175831899047,0.003581951605156064,-0.000999484327621758
1738772409995683600,0.60968359375,0.002575809368863702,0.003038134193047881,-0.0005233111442066729
1738772410005674800,0.6196748046875,0.0018229337874799967,0.001130245509557426,0.002039981307461858
1738772410015665700,0.629665771484375,0.0016098808264359832,0.004525243304669857,0.00040426786290481687
1738772410025656600,0.639656494140625,0.00324825756251812,0.003323891432955861,0.001731853699311614
1738772410035648800,0.649648681640625,0.0021049624774605036,0.0023584954906255007,0.0012173309223726392
1738772410045639700,0.6596396484375,0.0031244205310940742,0.003043460426852107,0.0013369068037718534
1738772410055630600,0.669630615234375,0.0027052389923483133,0.002853044541552663,0.0007326356135308743
1738772410065621800,0.679621826171875,0.002386458683758974,0.003394731320440769,0.0007145261042751372
1738772410075612700,0.68961279296875,0.003287405939772725,0.003828826593235135,0.0018453042721375823
1738772410085604600,0.6996044921875,0.0035412053111940622,0.003852528752759099,0.0009720537927933037
1738772410095595800,0.709595703125,0.0002918824611697346,0.004306064918637276,0.0008026767172850668
1738772410105586700,0.719586669921875,-0.0002511360798962414,0.004373443312942982,-0.000898550555575639
1738772410115577600,0.72957763671875,0.0021084246691316366,0.0032690302468836308,-0.0014801849611103535
1738772410125568500,0.739568603515625,0.002686863299459219,0.00404454255476594,0.0018953717080876231
1738772410135560700,0.749560791015625,0.0024895230308175087,0.004148405976593494,0.000008255799002654385
1738772410145551600,0.759551513671875,0.0015129417879506946,0.003453853540122509,-0.000594950164668262
1738772410155542800,0.769542724609375,0.00024474450037814677,0.00452684098854661,0.001023186487145722
1738772410165533700,0.77953369140625,0.0012040151050314307,0.0034029872622340918,0.0021973741240799427
1738772410175524600,0.789524658203125,0.0024085629265755415,0.005060005933046341,-0.000046339002437889576
1738772410185516800,0.799516845703125,0.003168362658470869,0.0035513252951204777,0.0006881608278490603
1738772410195507700,0.8095078125,0.000316916179144755,0.0036669063847512007,-0.0008564725867472589
1738772410205498600,0.81949853515625,0.0004170510219410062,0.0031499869655817747,-0.00016831177345011383
1738772410215489500,0.829489501953125,0.0022082931827753782,0.004539890680462122,0.00045060686534270644
1738772410225480700,0.839480712890625,0.001074052881449461,0.00413482403382659,0.0013688647886738181
1738772410235472600,0.84947265625,0.0011211908422410488,0.0037790255155414343,-0.0008279767935164273
1738772410245463800,0.8594638671875,0.0005571332876570523,0.0033220271579921246,0.0005211806274019182
1738772410255454700,0.869454833984375,0.0013813816476613283,0.002674079965800047,-0.0002798982313834131
1738772410265445600,0.879445556640625,0.0018466358305886388,0.00202320353128016,-0.00039707732503302395
1738772410275436300,0.889436279296875,0.0010096043115481734,0.004722050856798887,0.000336090917699039
1738772410285428500,0.899428466796875,0.0028192223981022835,0.003029345767572522,-0.00018082863243762404
1738772410295419400,0.90941943359375,0.000630902883131057,0.0029465213883668184,0.0006759102689102292
1738772410305410300,0.919410400390625,0.0015925703337416053,0.00384374032728374,-0.0006689860601909459
1738772410315401200,0.929401123046875,0.00040613205055706203,0.0038120488170534372,-0.000964064325671643
1738772410325393400,0.939393310546875,0.0018021611031144857,0.0030445256270468235,-0.0001661812566453591
1738772410335384300,0.94938427734375,0.0004703142330981791,0.00433029979467392,-0.00004394215648062527
1738772410345375200,0.959375244140625,0.0007337008719332516,0.00339153571985662,-0.00039414784987457097
1738772410355366400,0.969366455078125,0.000990695902146399,0.00452790642157197,0.00036511936923488975
1738772410365357300,0.979357421875,0.0012575446162372828,0.004289819858968258,0.0005334311863407493
1738772410375349500,0.989349609375,0.001198955113068223,0.00376064982265234,-0.0001294296234846115
1738772410385340400,0.99934033203125,0.0013619405217468739,0.003004844533279538,-0.0001739044237183407
1738772410395331300,1.009331298828125,0.004321511369198561,0.005608084611594677,0.00112438655924052
1738772410405322200,1.019322265625,-0.0007792409160174429,0.004728708881884813,0.001127582392655313
1738772410415313400,1.0293134765625,0.00009480853623244911,0.004256263840943575,-0.002980876248329878
1738772410425305300,1.039305419921875,0.0023363912478089333,0.005516738165169954,0.0015608787070959806
1738772410435296300,1.049296142578125,0.001841575838625431,0.004012318328022957,0.0009155947482213378
1738772410445287400,1.059287353515625,0.000853809411637485,0.00401684595271945,-0.0002687129599507898
1738772410455278300,1.0692783203125,0.0017856494523584843,0.003284476464614272,-0.00003355582884978503
1738772410465269200,1.079269287109375,0.001454618526622653,0.003142263740301132,-0.000002663161012605997
1738772410475261400,1.089261474609375,0.00227806787006557,0.0029089709278196096,0.0010602044640108943
1738772410485252400,1.09925244140625,0.0015805860748514533,0.0043308325111866,0.0024807346053421497
1738772410495243300,1.1092431640625,0.000245543458731845,0.003552390495315194,0.0002825613773893565
1738772410505234400,1.119234375,0.0025688852183520794,0.0031241541728377342,-0.0007949535502120852
1738772410515225300,1.129225341796875,0.00006870955257909372,0.003712979145348072,-0.0006490123341791332
1738772410525217300,1.13921728515625,0.0014301175251603127,0.004594219382852316,0.0005020058597438037
1738772410535208400,1.14920849609375,0.0010040117194876075,0.0031004520133137703,-0.0008562062866985798
1738772410545199400,1.159199462890625,0.0006948187365196645,0.003582750679925084,0.0006064017652533948
1738772410555190300,1.169190185546875,0.000020772657080669887,0.004797950852662325,0.0011379687348380685
1738772410565181400,1.179181396484375,0.0022096247412264347,0.004351338837295771,0.0021315941121429205
1738772410575173400,1.18917333984375,0.0013619405217468739,0.004769455175846815,0.0010370349045842886
1738772410585164300,1.199164306640625,0.00038642468280158937,0.00446825148537755,-0.0010388991795480251
1738772410595155500,1.209155517578125,0.0008492820779792964,0.0029236183036118746,0.000818123109638691
1738772410605146400,1.219146484375,0.0015949672088027,0.00373028963804245,0.00024288028362207115
1738772410615137300,1.22913720703125,0.0015425028977915645,0.00475374236702919,0.0014066817238926888
1738772410625129500,1.23912939453125,0.0014865765115246177,0.004454669542610645,0.000737695605494082
1738772410635120400,1.249120361328125,0.00315957423299551,0.0048829056322574615,0.001032241270877421
1738772410645111300,1.259111328125,0.002416019793599844,0.005351888481527567,-0.0005006743012927473
1738772410655102500,1.2691025390625,0.0024498419370502234,0.004285824950784445,0.0018953717080876231
1738772410665093400,1.27909326171875,0.0008218514849431813,0.002660498023033142,-0.0002511360798962414
1738772410675085300,1.289085205078125,0.002080195117741823,0.004598213825374842,-0.0004791026876773685
1738772410685076500,1.299076416015625,0.0008202536264434457,0.0040442761965096,0.0005760417552664876
1738772410695067400,1.3090673828125,0.0009262474486604333,0.00472391489893198,0.0006101301987655461
1738772410705058300,1.319058349609375,0.0013193299528211355,0.005596633069217205,0.00192200334277004
1738772410715049500,1.329049560546875,0.0007946872501634061,0.0032621060963720083,-0.0006639260682277381
1738772410725041400,1.33904150390625,0.0005526058957912028,0.00264824740588665,-0.001449025934562087
1738772410735032300,1.3490322265625,0.0014612764352932572,0.003602990647777915,-0.0010253170039504766
1738772410745023500,1.3590234375,0.001058872789144516,0.0036479979753494263,-0.0001347559446003288
1738772410755014400,1.369014404296875,0.0002961435238830745,0.004832572303712368,0.0005944175645709038
1738772410765005300,1.37900537109375,0.001148088718764484,0.003938282374292612,0.0001400822657160461
1738772410774997500,1.38899755859375,0.0009243832319043577,0.004287423100322485,0.0001930791768245399
1738772410784988400,1.398988525390625,0.0006684534018859267,0.004202734678983688,0.000978711643256247
1738772410794979300,1.408979248046875,0.0006532734259963036,0.0041550640016794205,-0.00043995422311127186
1738772410804970500,1.418970458984375,-0.00010652644414221868,0.0040442761965096,0.0004058657505083829
1738772410814961400,1.42896142578125,0.0011829761788249016,0.004357730504125357,-0.0005693838465958834
1738772410824953300,1.438953369140625,-0.0002668487431947142,0.0036709012929350138,0.0008303736103698611
1738772410834944500,1.448944580078125,0.002472212305292487,0.0039047268219292164,0.0010359697043895721
1738772410844935400,1.458935302734375,0.0018809906905516982,0.003059173235669732,0.00036938043194822967
1738772410854926300,1.46892626953125,0.0017627463676035404,0.0041007352992892265,0.00017603494052309543
1738772410864917500,1.47891748046875,0.0007076018955558538,0.0027545075863599777,0.0001685781026026234
1738772410874909400,1.488909423828125,0.0005281048361212015,0.004848551005125046,-0.0001776328426785767
1738772410884900400,1.498900390625,0.0012839100090786815,0.00375985074788332,0.001261539408005774
1738772410894891500,1.5088916015625,0.000979244359768927,0.0031180288642644882,0.00022370553051587194
1738772410904882400,1.51888232421875,0.0007850998663343489,0.00373002327978611,0.00007643271965207532
1738772410914873300,1.528873291015625,0.0028935244772583246,0.0041465419344604015,0.0005371595616452396
1738772410924865500,1.538865478515625,0.0008274441352114081,0.004828843753784895,0.0002716424351092428
1738772410934856400,1.5488564453125,0.0015190670965239406,0.003007774008437991,0.0004207794554531574
1738772410944847400,1.558847412109375,0.0021654162555933,0.0030399984680116177,-0.00019627496658358723
1738772410954838500,1.568838623046875,0.0013528858544304967,0.0028597023338079453,-0.0008471515611745417
1738772410964829400,1.578829345703125,0.00003382214708835818,0.002037850907072425,-0.0009089368977583945
1738772410974820400,1.5888203125,0.0014298511669039726,0.004720719531178474,0.0007315703551284969
1738772410984812500,1.5988125,0.0018034926615655422,0.004656536970287561,0.000696150294970721
1738772410994803500,1.608803466796875,0.0020548950415104628,0.004002198576927185,0.0008591357618570328
1738772411004794400,1.61879443359375,0.000550475378986448,0.003421895671635866,0.0010309095960110426
1738772411014785500,1.62878564453125,0.002351038623601198,0.0034232272300869226,0.000669252360239625
1738772411024776400,1.6387763671875,0.0005464806454256177,0.003366768127307296,0.0012689962750300765
1738772411034768400,1.648768310546875,-0.0003371562052052468,0.005290103144943714,0.0001323590986430645
1738772411044759600,1.658759521484375,-0.00030120351584628224,0.004677043296396732,0.00023808660625945777
1738772411054750500,1.66875048828125,0.002058357233181596,0.006175604183226824,-0.00041971419705078006
1738772411064741400,1.678741455078125,0.0021528995130211115,0.003640541108325124,0.0011768508702516556
1738772411074732300,1.688732177734375,0.00039254993316717446,0.003480751533061266,0.0007896272582001984
1738772411084724500,1.698724365234375,0.0013480921043083072,0.003611512714996934,0.000051399008953012526
1738772411094715400,1.70871533203125,-0.00005912217602599412,0.002920954953879118,0.00035233621019870043
1738772411104706600,1.71870654296875,0.0019941749051213264,0.0023608922492712736,0.00005752427750849165
1738772411114697500,1.728697509765625,0.0005893575726076961,0.0041127195581793785,-0.00034434671397320926
1738772411124688400,1.7386884765625,0.0016708672046661377,0.0038597192615270615,-0.00045540055725723505
1738772411134680600,1.7486806640625,0.0021260015200823545,0.005137237720191479,-0.0004058657505083829
1738772411144671500,1.75867138671875,0.0012514194240793586,0.0037611823063343763,0.0013169331941753626
1738772411154662400,1.768662353515625,0.0012370382901281118,0.0034408040810376406,0.00014887070574332029
1738772411164653300,1.7786533203125,0.0010578075889497995,0.004101534374058247,0.0016133430181071162
1738772411174644500,1.78864453125,-0.0000876179983606562,0.003754524514079094,0.001088700257241726
1738772411184636400,1.798636474609375,0.0016948357224464417,0.003820837242528796,0.0016447682864964008
1738772411194627600,1.808627685546875,-0.0000327568814100232,0.004579572007060051,0.0011377023765817285
1738772411204618500,1.818618408203125,0.0008724515791982412,0.004604339133948088,0.0007507451227866113
1738772411214609400,1.828609375,0.001466869143769145,0.004522313829511404,-0.0008554073283448815
1738772411224600300,1.838600341796875,0.0007430219557136297,0.003963049966841936,0.0011619371362030506
1738772411234592500,1.848592529296875,0.002570483135059476,0.0031790153589099646,-0.0005858954391442239
1738772411244583400,1.85858349609375,0.0006000102148391306,0.005617139395326376,-0.00017789915727917105
1738772411254574300,1.86857421875,0.0009113337146118283,0.004156661685556173,0.001056476030498743
1738772411264565500,1.8785654296875,0.002311357529833913,0.0032000544015318155,-0.0008207862265408039
1738772411274556400,1.888556396484375,0.0016407734947279096,0.003338538808748126,-0.00007430219557136297
1738772411284548600,1.898548583984375,0.002775546396151185,0.004107659682631493,0.001172323478385806
1738772411294539500,1.90853955078125,0.0019121496006846428,0.003228283952921629,0.000945954816415906
1738772411304530400,1.918530517578125,0.0020130835473537445,0.003855724586173892,0.0006002765148878098
1738772411314521300,1.928521240234375,0.0024439829867333174,0.004286890383809805,-0.00008202536264434457
1738772411324512500,1.938512451171875,0.0021345235873013735,0.0038927425630390644,-0.0009872338268905878
1738772411334504400,1.94850439453125,0.000313986703986302,0.0032256206031888723,0.0010229201288893819
1738772411344495400,1.958495361328125,0.0019217369845137,0.004123106133192778,0.00045140579459257424
1738772411354486500,1.968486572265625,0.0033563817851245403,0.005575594026595354,0.0016769925132393837
1738772411364477400,1.9784775390625,0.0003094593121204525,0.004295412451028824,-0.0005230448441579938
1738772411374468400,1.98846826171875,0.0024439829867333174,0.0032871398143470287,-0.0008468852029182017
1738772411384459500,1.99845947265625,0.0022831279784440994,0.003597398055717349,0.0012056130217388272
1738772411394451500,2.008451416015625,0.00003941478280466981,0.005080512259155512,0.00041811628034338355
1738772411404442400,2.0184423828125,0.0019110844004899263,0.004320446401834488,0.0009249158320017159
1738772411414433500,2.02843359375,0.001511343871243298,0.003879693103954196,0.0006050702068023384
1738772411424424400,2.038424560546875,0.0011563445441424847,0.003947603516280651,0.0008900284301489592
1738772411434415400,2.048415283203125,0.0027944548055529594,0.0033843449782580137,0.00025513084256090224
1738772411444407600,2.058407470703125,0.0025331987999379635,0.0031526500824838877,0.0014397049089893699
1738772411454398500,2.0683984375,-0.000017310547264060006,0.004868524614721537,0.001541171339340508
1738772411464389400,2.078389404296875,0.0008245146600529552,0.0043593281880021095,-0.0006178533658385277
1738772411474380500,2.088380615234375,0.001967277145013213,0.003754524514079094,0.00021118867152836174
1738772411484371500,2.098371337890625,0.002825880190357566,0.003748132847249508,0.0007281082216650248
1738772411494363400,2.10836328125,0.0005813680472783744,0.0024772724136710167,0.0005483448621816933
1738772411504354600,2.1183544921875,0.0024082965683192015,0.003230680711567402,-0.0005502090789377689
1738772411514345500,2.128345458984375,0.0013278521364554763,0.0041156490333378315,-0.0013078784104436636
1738772411524336400,2.13833642578125,0.0019049590919166803,0.0035902075469493866,-0.0008855010382831097
1738772411534327600,2.14832763671875,0.0018274611793458462,0.004038683604449034,-0.0006346312584355474
1738772411544319500,2.158319580078125,0.002558765234425664,0.003552923211827874,0.00046392265358008444
1738772411554310400,2.168310302734375,0.0009536779834888875,0.004515655804425478,0.00026764770154841244
1738772411564301600,2.178301513671875,0.0008700547041371465,0.0031854070257395506,0.00013156015484128147
1738772411574292500,2.18829248046875,0.0017744642682373524,0.0034109766129404306,-0.0006444850005209446
1738772411584283400,2.198283447265625,0.0012884372845292091,0.00392762990668416,-0.0010791128734126687
1738772411594275600,2.208275634765625,0.0005313006113283336,0.005061870440840721,0.0012434299569576979
1738772411604266500,2.2182666015625,0.00180855265352875,0.004746552091091871,0.0002812298189383
1738772411614257400,2.22825732421875,0.0019710054621100426,0.0037579864729195833,-0.0005091963685117662
1738772411624248600,2.23824853515625,0.0008737831376492977,0.0034461303148418665,-0.0007352987886406481
1738772411634239500,2.248239501953125,0.0012002866715192795,0.003052781568840146,-0.00010812433902174234
1738772411644230400,2.25823046875,0.0020836573094129562,0.002912699244916439,-0.0003046656202059239
1738772411654222600,2.26822265625,0.001127582392655313,0.002600044244900346,0.00024234765442088246
1738772411664213500,2.278213623046875,-0.0003105245705228299,0.0025507756508886814,-0.00010759170982055366
1738772411674204400,2.288204345703125,0.0023643544409424067,0.005793706979602575,0.0007171892793849111
1738772411684195600,2.298195556640625,0.0030921963043510914,0.003005377249792218,0.0008476841612718999
1738772411694186500,2.3081865234375,0.002127066720277071,0.0036099147982895374,-0.0001739044237183407
1738772411704178400,2.318178466796875,0.00041492050513625145,0.004507932811975479,0.00023941817926242948
1738772411714169600,2.328169677734375,0.0004748416249640286,0.0028218855150043964,-0.0011012171162292361
1738772411724160500,2.338160400390625,0.002049835165962577,0.0037004624027758837,-0.0009078715811483562
1738772411734151400,2.3481513671875,0.0024916534312069416,0.0034943337086588144,0.0014109427575021982
1738772411744142300,2.358142333984375,0.0020793962758034468,0.005045891273766756,0.0012522183824330568
1738772411754134500,2.368134521484375,0.002429601736366749,0.0046698530204594135,0.00022397184511646628
1738772411764125400,2.37812548828125,0.000952080066781491,0.004047738388180733,0.0000977380113909021
1738772411774116600,2.38811669921875,0.0019739349372684956,0.003687146585434675,0.0013334447285160422
1738772411784107500,2.398107421875,0.0010671286145225167,0.004509796854108572,0.0018849853659048676
1738772411794098400,2.408098388671875,0.0012002866715192795,0.0044022053480148315,0.0005408879951573908
1738772411804090600,2.418090576171875,0.002939863596111536,0.0034916705917567015,0.00014753911818843335
1738772411814081500,2.42808154296875,0.002423742786049843,0.004994492046535015,-0.0000428768944402691
1738772411824072400,2.438072509765625,0.0005792375304736197,0.004825914278626442,-0.0006471481174230576
1738772411834063400,2.4480634765625,0.004721518140286207,0.004490622319281101,-0.00020053602929692715
1738772411844054500,2.458054443359375,0.0003350256592966616,0.004019509069621563,0.0004673847579397261
1738772411854046500,2.46804638671875,0.0016205335268750787,0.003308711340650916,0.0005307680112309754
1738772411864037600,2.47803759765625,0.0006061354652047157,0.005437375977635384,-0.0007115966291166842
1738772411874028500,2.488028564453125,0.0008735168376006186,0.0037835529074072838,-0.00007430219557136297
1738772411884019500,2.49801953125,0.0027574370615184307,0.0026085663121193647,0.0000476705827168189
1738772411894010400,2.50801025390625,0.0020927118603140116,0.004231763072311878,0.0003760383406188339
1738772411904001500,2.51800146484375,0.0015417039394378662,0.0038549257442355156,0.000050333743274677545
1738772411913993500,2.527993408203125,0.0012010856298729777,0.0034975295420736074,0.0007155913626775146
1738772411923984600,2.537984619140625,0.001525991247035563,0.0044261738657951355,0.0006050702068023384
1738772411933975600,2.5479755859375,0.0019944412633776665,0.004086354281753302,0.0010450243717059493
1738772411943966500,2.557966552734375,0.002569417702034116,0.0033071134239435196,0.0012359730899333954
1738772411953957400,2.567957275390625,-0.000333161442540586,0.00392709719017148,0.0007302387384697795
1738772411963949600,2.577949462890625,-0.001326786819845438,0.004185956437140703,0.0010013486025854945
1738772411973940500,2.5879404296875,-0.0032325449865311384,0.0010072075529024005,-0.0007004113867878914
1738772411983931400,2.597931396484375,0.005230448208749294,0.002055161399766803,-0.003933755215257406
1738772411993922600,2.607922607421875,0.00569996377453208,0.006307164207100868,0.010551177896559238
1738772412003913500,2.61791357421875,-0.0012146678054705262,0.0037238982040435076,0.0026818031910806894
1738772412013905400,2.627905517578125,-0.0013646037550643086,0.0005550027708522975,-0.01170539204031229
1738772412023896600,2.637896484375,0.0016160061350092292,0.003934021573513746,0.001838912721723318
1738772412033887500,2.647887451171875,0.00481259822845459,0.006961236707866192,0.010281399823725224
1738772412043878400,2.65787841796875,0.0017840516520664096,0.003314836649224162,-0.002283926820382476
1738772412053869600,2.66786962890625,0.000464188982732594,0.001222657272592187,-0.009272594004869461
1738772412063861200,2.677861328125,0.0010042780777439475,0.00509782275184989,0.003192331176251173
1738772412073852400,2.687852294921875,0.0009784454014152288,0.00509968725964427,0.0023558323737233877
1738772412083843600,2.697843505859375,0.0019060244085267186,0.001782453735359013,-0.006584399379789829
1738772412093834500,2.70783447265625,0.0019683423452079296,0.0037526602391153574,0.0015198660548776388
1738772412103825400,2.717825439453125,0.001955026527866721,0.0034237599465996027,0.004927380476146936
1738772412113816600,2.727816650390625,0.000600809114985168,0.003590473672375083,-0.004346012603491545
1738772412123808300,2.737808349609375,0.002341451123356819,0.003995007835328579,-0.00016671388584654778
1738772412133799400,2.74779931640625,0.0036421390250325203,0.005279717035591602,0.004723116289824247
1738772412143790600,2.75779052734375,0.0014764565275982022,0.002314553363248706,-0.002775280037894845
1738772412153781500,2.767781494140625,0.00006897587445564568,0.0017369136912748218,-0.0024674187880009413
1738772412163772400,2.7777724609375,0.0021947110071778297,0.005385976750403643,0.0034519892651587725
1738772412173764400,2.787764404296875,0.0005962817813269794,0.0044317664578557014,0.0002181128947995603
1738772412183755500,2.797755615234375,0.000556334329303354,0.0037907434161752462,0.00024474450037814677
1738772412193746400,2.807746337890625,-0.00009267800487577915,0.0043649207800626755,0.0010290454374626279
1738772412203737600,2.817737548828125,0.0013148026773706079,0.0036796897184103727,0.001820270554162562
1738772412213728500,2.827728515625,0.0010191916953772306,0.0024527714122086763,-0.004841360729187727
1738772412223720200,2.83772021484375,0.003040797309949994,0.005600095260888338,0.0011041465913876891
1738772412233711400,2.84771142578125,0.002931075170636177,0.005909554194658995,0.005742307752370834
1738772412243702500,2.85770263671875,0.00001304948909819359,0.002261290093883872,-0.003915379289537668
1738772412253693400,2.867693359375,0.0011787151452153921,0.0035198999103158712,-0.0006215817993506789
1738772412263684600,2.8776845703125,0.0036599822342395782,0.004553472623229027,0.0018929748330265284
1738772412273676500,2.887676513671875,0.0005725796218030155,0.005391835700720549,0.003397927153855562
1738772412283667500,2.89766748046875,0.0004087952256668359,0.0017800568602979183,-0.004803277086466551
1738772412293658600,2.90765869140625,0.003276220755651593,0.0026913906913250685,-0.0006340986583381891
1738772412303649500,2.9176494140625,0.00003941478280466981,0.005645901430398226,0.006308762356638908
1738772412313640700,2.927640625,-0.001505484920926392,0.003725229762494564,0.00035473305615596473
1738772412323631600,2.937631591796875,0.0014721954939886928,0.0028610338922590017,-0.0035473306197673082
1738772412333623600,2.94762353515625,0.0017262609908357263,0.005372661165893078,0.0035960664972662926
1738772412343614500,2.957614501953125,0.0007305050967261195,0.003200586885213852,0.003216033335775137
1738772412353605600,2.967605712890625,-0.0006167881074361503,0.0012463594321161509,-0.005119660869240761
1738772412363596800,2.9775966796875,0.0013041499769315124,0.004262655507773161,0.0019981698133051395
1738772412373587700,2.987587646484375,0.0002671150432433933,0.004595017991960049,0.003368099918588996
1738772412383579600,2.99757958984375,0.002243446884676814,0.0025827335193753242,-0.0011584750609472394
1738772412393570600,3.007570556640625,-0.00013901700731366873,0.004824848845601082,0.0016711335629224777
1738772412403561500,3.0175615234375,-0.00046818371629342437,0.004090615548193455,0.0016900419723242521
1738772412413552600,3.027552734375,-0.0007512777228839695,0.0030980552546679974,-0.0031129689887166023
1738772412423543800,3.037543701171875,0.0014674017438665032,0.003995007835328579,0.0007534082396887243
1738772412433535500,3.047535400390625,0.002837864449247718,0.004640025552362204,0.003802194958552718
1738772412443526400,3.0575263671875,-0.00009267800487577915,0.0035657063126564026,0.0002719087351579219
1738772412453517600,3.067517578125,0.0030802120454609394,0.0031132353469729424,-0.0035329493694007397
1738772412463508500,3.077508544921875,0.0028133634477853775,0.003999002743512392,0.004446413833647966
1738772412473499600,3.087499755859375,0.0014887070283293724,0.004189951345324516,0.0019656792283058167
1738772412483490800,3.09749072265625,-0.0007510114228352904,0.0021377194207161665,-0.0022836606949567795
1738772412493482500,3.107482421875,0.002356631215661764,0.0029971215408295393,0.0013116068439558148
1738772412503473400,3.117473388671875,0.003349723992869258,0.002831472782418132,0.001976065570488572
1738772412513464600,3.127464599609375,0.00025060345069505274,0.0031004520133137703,-0.00236302288249135
1738772412523455700,3.137455810546875,0.002493517706170678,0.0035545211285352707,0.0005691175465472043
1738772412533446700,3.14744677734375,0.0019206717843189836,0.004320180043578148,0.0004780374001711607
1738772412543438600,3.1574384765625,0.001401355373673141,0.0030916635878384113,-0.00028628981090150774
1738772412553429500,3.167429443359375,0.0016460998449474573,0.005012867972254753,-0.0004058657505083829
1738772412563420400,3.17742041015625,0.0005147890187799931,0.0036429380998015404,-0.0010775149567052722
1738772412573411600,3.18741162109375,0.0023995081428438425,0.0036077843979001045,0.00108257494866848
1738772412583402800,3.19740283203125,0.0029177593532949686,0.0043894220143556595,0.000261788722127676
1738772412593394400,3.20739453125,0.0014988270122557878,0.004081560764461756,0.0005917543894611299
1738772412603385600,3.217385498046875,0.001169394003227353,0.0046602655202150345,0.001008539111353457
1738772412613376500,3.22737646484375,0.0011896340874955058,0.003613909473642707,-0.0005725796218030155
1738772412623367400,3.237367431640625,0.000979244359768927,0.003997670952230692,-0.000025300030756625347
1738772412633358600,3.247358642578125,0.0010756507981568575,0.003183276392519474,-0.0005459480453282595
1738772412643350500,3.2573505859375,0.0015209312550723553,0.0035449336282908916,0.0003914846747647971
1738772412653341400,3.267341552734375,0.0019329222850501537,0.004021373111754656,0.0004138552176300436
1738772412663332600,3.27733251953125,-0.0006950850365683436,0.004098871257156134,0.0015787219163030386
1738772412673323500,3.287323486328125,0.0011683288030326366,0.0032812808640301228,0.0007544735562987626
1738772412683314700,3.297314697265625,0.0010777813149616122,0.003228017594665289,-0.0005888249143026769
1738772412693305900,3.307305908203125,0.0012002866715192795,0.003433080855756998,-0.00011105381418019533
1738772412703297500,3.317297607421875,0.0016389093361794949,0.00424241553992033,0.00020053602929692715
1738772412713288400,3.327288330078125,0.0008498146780766547,0.004417917691171169,0.000011984225238848012
1738772412723279600,3.337279541015625,0.000901480030734092,0.0031411985401064157,0.0002556634717620909
1738772412733270500,3.3472705078125,0.001243962557055056,0.004339088220149279,0.000316916179144755
1738772412743261700,3.35726171875,0.0014743260107934475,0.003257578704506159,0.0011033476330339909
1738772412753253600,3.367253662109375,0.0011859056539833546,0.0037236318457871675,0.0009110674145631492
1738772412763244500,3.37724462890625,0.0012040151050314307,0.0038370825350284576,0.0016098808264359832
1738772412773235500,3.3872353515625,0.0019046928500756621,0.001882854849100113,0.0006548712844960392
1738772412783226600,3.3972265625,0.0011044129496440291,0.0035119105596095324,0.00009560748003423214
1738772412793217500,3.407217529296875,0.0014612764352932572,0.00443975580856204,-0.0012482235906645656
1738772412803209500,3.41720947265625,0.0023156185634434223,0.003907922655344009,0.0003885551996063441
1738772412813200600,3.42720068359375,0.0015124091878533363,0.004254666157066822,0.0002287655370309949
1738772412823191600,3.437191650390625,0.0016085492679849267,0.0028445222415030003,0.0017358483746647835
1738772412833182500,3.447182373046875,0.0026197514962404966,0.0036495958920568228,0.0002689792599994689
1738772412843173400,3.45717333984375,0.0016370450612157583,0.004845088813453913,-0.00042051312630064785
1738772412853164800,3.467164794921875,0.000943025341257453,0.004252802114933729,-0.0009837717516347766
1738772412863156500,3.477156494140625,0.0008189220097847283,0.0035385421942919493,0.0003203782835043967
1738772412873147600,3.487147705078125,0.0014679343439638615,0.0032197616528719664,0.0015241270884871483
1738772412883138600,3.497138671875,0.0009259810904040933,0.0044176517985761166,-0.00019148127466905862
1738772412893129500,3.50712939453125,0.0009446232579648495,0.004481833893805742,-0.0005989448982290924
1738772412903120600,3.51712060546875,0.0004647216119337827,0.0028607675340026617,0.0011057445080950856
1738772412913112600,3.527112548828125,0.003242664970457554,0.003867975203320384,-0.0001512675517005846
1738772412923103500,3.537103515625,0.0028967203106731176,0.0034698324743658304,0.00045087316539138556
1738772412933094400,3.547094482421875,0.0020868529099971056,0.0038924762047827244,0.00185089698061347
1738772412943085600,3.55708544921875,0.0014346449170261621,0.003908987622708082,-0.0012610068079084158
1738772412953076500,3.567076416015625,0.0012990899849683046,0.0038101845420897007,0.0012431635987013578
1738772412963068700,3.577068603515625,0.0010950918076559901,0.005031510256230831,0.0010852381819859147
1738772412973059600,3.5870595703125,0.0003611246356740594,0.0037673076149076223,-0.0007707187905907631
1738772412983050500,3.597050537109375,0.000002663161012605997,0.004290618933737278,0.0007084008539095521
1738772412993041400,3.60704150390625,-0.00010439591278554872,0.0037878139410167933,0.0017920411191880703
1738772413003032600,3.617032470703125,0.00042743736412376165,0.00464641721919179,-0.0006061354652047157
1738772413013023500,3.6270234375,0.00019893812714144588,0.004781972151249647,-0.0005017395596951246
1738772413023015700,3.637015625,0.001675128354690969,0.0046695866622030735,0.0011339739430695772
1738772413033006600,3.647006591796875,0.001216531964018941,0.0041217743419110775,0.00005193164179218002
1738772413042997500,3.65699755859375,0.0007909588166512549,0.004348409362137318,-0.00046818371629342437
1738772413052988400,3.666988525390625,0.0013528858544304967,0.0033630398102104664,-0.0007789746159687638
1738772413062979600,3.6769794921875,0.000811997801065445,0.004326305352151394,0.0014836470363661647
1738772413072971500,3.686971435546875,0.0009560748003423214,0.0026530411560088396,0.0017331852577626705
1738772413082962400,3.69696240234375,0.0011502192355692387,0.003459446132183075,0.00015579492901451886
1738772413092953600,3.70695361328125,0.0025784724857658148,0.0029646309558302164,-0.001383778522722423
1738772413102944500,3.716944580078125,0.0010985539993271232,0.003698864486068487,0.0018423747969791293
1738772413112935400,3.726935302734375,0.0006636597099713981,0.001455151243135333,0.00040613205055706203
1738772413122927600,3.736927734375,0.0006567355012521148,0.004982774145901203,0.00267727579921484
1738772413132918500,3.74691845703125,0.002532399957999587,0.003753725439310074,0.0008080030675046146
1738772413142909400,3.756909423828125,-0.0013369068037718534,0.003692206460982561,0.0007486145477741957
1738772413152900600,3.766900634765625,0.003212571144104004,0.004347078036516905,0.001999767730012536
1738772413162891500,3.7768916015625,0.0002897519152611494,0.002773149637505412,-0.000015978966985130683
1738772413172882400,3.78688232421875,0.002484196564182639,0.003610979998484254,0.0025015072897076607
1738772413182874600,3.79687451171875,0.0017246630741283298,0.002603239845484495,0.001600826159119606
1738772413192865500,3.806865478515625,0.001457814360037446,0.0017675400013104081,-0.00018988338706549257
1738772413202856400,3.8168564453125,-0.00009187905379803851,0.003707120195031166,0.000019707391402334906
1738772413212847600,3.82684765625,0.002019474981352687,0.004107393324375153,0.0015848471084609628
1738772413222838500,3.836838623046875,0.0000327568814100232,0.004688761197030544,0.0009076052810996771
1738772413232830500,3.84683056640625,0.0017028251895681024,0.004618453793227673,-0.0003640541108325124
1738772413242821600,3.856821533203125,0.002126534003764391,0.0046392264775931835,0.00043995422311127186
1738772413252812500,3.8668125,0.0005941512063145638,0.0049825082533061504,0.0012596751330420375
1738772413262803500,3.876803466796875,0.002766757970675826,0.0033907366450875998,-0.0008623315370641649
1738772413272795600,3.886795654296875,0.0024620923213660717,0.0024687503464519978,-0.0008298410102725029
1738772413282787600,3.89678759765625,0.0006135923322290182,0.004846686962991953,0.00020639497961383313
1738772413292778800,3.90677880859375,0.0017358483746647835,0.004029096569865942,-0.00011984224693151191
1738772413302769700,3.916769775390625,0.0016562198288738728,0.003001648932695389,-0.0017353157745674253
1738772413312760600,3.926760498046875,0.0004471447318792343,0.003254116512835026,-0.0003081277245655656
1738772413322751500,3.93675146484375,0.0017901768442243338,0.004372111521661282,0.0011616708943620324
1738772413336489700,3.95048974609375,-0.0004652542411349714,0.004768389742821455,0.0005179848521947861
1738772413346481700,3.960481689453125,0.00033103092573583126,0.0028450549580156803,0.0007225155713967979
1738772413356472800,3.970472900390625,0.001651692553423345,0.0037851508241146803,0.0014024205738678575
1738772413366463700,3.980463623046875,0.002606169320642948,0.0031587753910571337,0.0006492786924354732
1738772413376454700,3.99045458984375,0.0005416869535110891,0.004913798533380032,0.0009001484140753746
1738772413386445600,4.000445556640625,0.001972869737073779,0.004540157038718462,0.001413073274306953
1738772413396437800,4.010437744140625,0.0013187973527237773,0.0031225562561303377,-0.0005640574963763356
1738772413406428700,4.0204287109375,0.0016186692519113421,0.005185174755752087,0.00016218650853261352
1738772413416419600,4.030419677734375,0.0025566346012055874,0.0035481294617056847,-0.00012357067316770554
1738772413426410800,4.04041064453125,0.0009733853512443602,0.003855990944430232,0.0004924184759147465
1738772413436401700,4.050401611328125,0.0019385149935260415,0.0033723609521985054,0.001272990950383246
1738772413446393900,4.060393798828125,0.0014421016676351428,0.004376638680696487,0.0021664814557880163
1738772413456384800,4.070384765625,0.0018745990237221122,0.003439206164330244,0.00010705907334340736
1738772413466375700,4.080375732421875,0.001163002452813089,0.0037582528311759233,-0.0001448759576305747
1738772413476366600,4.09036669921875,0.0020564929582178593,0.004996622912585735,-0.000060986389144090936
1738772413486357800,4.100357666015625,0.0006756439688615501,0.0024442493449896574,0.00007723167072981596
1738772413496348700,4.1103486328125,0.0014857775531709194,0.0035830168053507805,0.00031558459158986807
1738772413506340600,4.120340576171875,0.0029736857395619154,0.004210990387946367,-0.0005776396137662232
1738772413516331800,4.130331787109375,0.0016402408946305513,0.0029108349699527025,-0.0019014970166608691
1738772413526322700,4.14032275390625,0.0004183826094958931,0.002930542454123497,-0.0003587277897167951
1738772413536313600,4.150313720703125,0.0013068130938336253,0.004576376173645258,0.00045327001134864986
1738772413546304800,4.1603046875,0.0010881676571443677,0.0036631780676543713,-0.00028575718170031905
1738772413556296700,4.170296630859375,0.002627741079777479,0.0028967203106731176,-0.0006841660942882299
1738772413566287600,4.18028759765625,0.0013795174891129136,0.004549478180706501,0.0009552759001962841
1738772413576278800,4.19027880859375,0.0018887137994170189,0.00373002327978611,0.0000679106087773107
1738772413586269700,4.200269775390625,0.0016620787791907787,0.003257578704506159,0.001609348226338625
1738772413596260600,4.210260498046875,0.00138058268930763,0.005163602996617556,-0.0010074737947434187
1738772413606252500,4.22025244140625,0.0010186590952798724,0.005105279851704836,0.0008295746520161629
1738772413616243700,4.23024365234375,0.002028263406828046,0.004005660768598318,0.0011283813510090113
1738772413626234600,4.240234619140625,0.0025603631511330605,0.0049526807852089405,-0.0010937602492049336
1738772413636225800,4.250225830078125,0.0028631645254790783,0.0032743564806878567,-0.00014540860138367862
1738772413646216700,4.260216796875,0.0015715312911197543,0.0034293525386601686,0.0009603358921594918
1738772413656207600,4.27020751953125,0.0009121326729655266,0.003715642262250185,0.0028871328104287386
1738772413666199800,4.28019970703125,0.00010812433902174234,0.0052080778405070305,-0.00007616640505148098
1738772413676190700,4.290190673828125,0.0008855010382831097,0.003364904085174203,0.00019201391842216253
1738772413686181600,4.300181640625,0.002267415402457118,0.0035236284602433443,0.00033662354690022767
1738772413696172800,4.3101728515625,0.0009835053933784366,0.004512193612754345,-0.0006303702248260379
1738772413706163700,4.320163818359375,0.0013334447285160422,0.005172391422092915,0.0007352987886406481
1738772413716154600,4.330154541015625,0.0023811322171241045,0.003612311789765954,0.0008617989369668067
1738772413726146800,4.340146728515625,0.0026285399217158556,0.0037084517534822226,-0.00031904669594950974
1738772413736137700,4.3501376953125,0.00022423815971706063,0.0030660973861813545,0.00034461304312571883
1738772413746128600,4.360128662109375,0.0013949638232588768,0.003983822651207447,-0.00006578007742064074
1738772413756119800,4.370119873046875,0.0017976337112486362,0.0036248285323381424,-0.0004237089306116104
1738772413766110700,4.38011083984375,0.00035606464371085167,0.003275954397395253,0.00011132013605674729
1738772413776102700,4.3901025390625,0.0026519757229834795,0.004249606281518936,0.0001270327775273472
1738772413786093800,4.40009375,0.002042910782620311,0.003823234001174569,-0.000054861116950633004
1738772413796084700,4.410084716796875,0.001683916780166328,0.0038061898667365313,0.0010791128734126687
1738772413806075600,4.42007568359375,0.0004985437262803316,0.0041151163168251514,0.0002612560929264873
1738772413816066600,4.430066650390625,0.0019433086272329092,0.00390312890522182,-0.000014647385796706658
1738772413826058800,4.440058837890625,0.000472977408207953,0.0036770266015082598,0.0005723133217543364
1738772413836049700,4.450049560546875,0.0018010957865044475,0.003953995183110237,-0.0008940231637097895
1738772413846040800,4.460040771484375,0.0006958839949220419,0.003263703780248761,0.00040533312130719423
1738772413856031700,4.47003173828125,-0.0002580603177193552,0.003567570587620139,0.0001840244367485866
1738772413866022700,4.480022705078125,0.002694852650165558,0.0028812738601118326,0.0006620618514716625
1738772413876013600,4.490013671875,0.0023190807551145554,0.002998985582962632,0.00020639497961383313
1738772413886005800,4.500005859375,0.0006295712664723396,0.0020876519847661257,0.003329217666760087
1738772413895996700,4.50999658203125,-0.0008378304773941636,0.003584614722058177,-0.0003890878288075328
1738772413905987600,4.519987548828125,-0.0006860303110443056,0.005284776911139488,0.0015523566398769617
1738772413915978800,4.529978759765625,0.001234907773323357,0.002101234160363674,-0.00023915186466183513
1738772413925969700,4.5399697265625,0.0017470336752012372,0.003510579001158476,0.000019707391402334906
1738772413935961600,4.549961669921875,-0.00030360036180354655,0.005073321983218193,0.0023435817565768957
1738772413945952800,4.559952880859375,0.001957956003025174,0.0036669063847512007,-0.0005776396137662232
1738772413955943700,4.569943603515625,0.0019004317000508308,0.0026133600622415543,0.00041731735109351575
1738772413965934600,4.5799345703125,0.0016346483025699854,0.004917793441563845,0.00037950044497847557
1738772413975925800,4.58992578125,0.0020897823851555586,0.00336170825175941,0.000012250540748937055
1738772413985917700,4.599917724609375,0.0029294772539287806,0.003200586885213852,-0.0012032161466777325
1738772413995908900,4.609908935546875,0.0019358517602086067,0.0036581179592758417,0.000990962260402739
1738772414005899800,4.619899658203125,0.0008367652189917862,0.0024074974935501814,0.0014335796004161239
1738772414015890700,4.629890625,0.001163268811069429,0.003991545643657446,-0.0002532666258048266
1738772414025881600,4.639881591796875,0.000355532014509663,0.0030975225381553173,0.00058323226403445
1738772414035873500,4.64987353515625,0.0007219829712994397,0.004659732803702354,-0.0007661914569325745
1738772414045864700,4.65986474609375,0.0008660599705763161,0.004219778813421726,-0.000248472933890298
1738772414055855600,4.669855712890625,0.001100684516131878,0.003061303636059165,-0.0005454153870232403
1738772414065846800,4.6798466796875,-0.0003962783666793257,0.004533765371888876,0.0015267902053892612
1738772414075837700,4.689837646484375,-0.00001757686368364375,0.0033041839487850666,7.989483492565341e-7
1738772414085829600,4.69982958984375,0.0010237190872430801,0.0041313618421554565,-0.001835716888308525
1738772414095820500,4.709820556640625,0.0009544769418425858,0.004532167688012123,0.00250550196506083
1738772414105811700,4.719811767578125,0.0027537085115909576,0.002528138691559434,-0.00034434671397320926
1738772414115802600,4.729802734375,0.0005254416610114276,0.0029907298739999533,0.00039547940832562745
1738772414125793800,4.739793701171875,0.0004673847579397261,0.003584614722058177,0.0007368966471403837
1738772414135784700,4.74978466796875,0.0011776498286053538,0.0044378917664289474,-0.0009946906939148903
1738772414145776400,4.7597763671875,0.0001704423048067838,0.003032541600987315,-0.000693220819812268
1738772414155767600,4.769767578125,-0.000031425301131093875,0.0038195056840777397,0.0005760417552664876
1738772414165758700,4.7797587890625,0.002071140334010124,0.002161954063922167,0.0005094627267681062
1738772414175749600,4.78974951171875,0.0004732437082566321,0.004515655804425478,0.0009235842735506594
1738772414185740800,4.79974072265625,0.001407214323990047,0.003478354774415493,-0.0005715143634006381
1738772414195732500,4.809732421875,0.0005459480453282595,0.0036946034524589777,0.002088717184960842
1738772414205723600,4.8197236328125,0.002282329136505723,0.003924434073269367,-0.00014061490946915
1738772414215714800,4.82971484375,0.0019318570848554373,0.003710848744958639,-0.001344896387308836
1738772414225705700,4.839705810546875,0.0017933726776391268,0.004253867082297802,0.0017560884589329362
1738772414235696600,4.849696533203125,0.001406947965733707,0.004120708908885717,0.0004396878939587623
1738772414245688600,4.8596884765625,0.002094309777021408,0.003284742822870612,0.0001334243715973571
1738772414255679500,4.869679443359375,0.0012061456218361855,0.004449076950550079,-0.00027803401462733746
1738772414265670700,4.879670654296875,0.0012412993237376213,0.0049558766186237335,0.00008602010348113254
1738772414275659800,4.88965966796875,0.0019169433508068323,0.005304750520735979,0.0002109223569277674
1738772414285651000,4.89965087890625,0.0015717976493760943,0.004010987002402544,0.00019441076437942684
1738772414295643000,4.909642822265625,0.0025928535033017397,0.0033007217571139336,0.0001994707708945498
1738772414305634000,4.919634033203125,0.0014452975010499358,0.0027214842848479748,0.00010359696898376569
1738772414315625000,4.929625,0.002511094557121396,0.004583300091326237,0.0007555388147011399
1738772414325615900,4.939615966796875,0.0009214537567459047,0.003996605984866619,0.00016484966909047216
1738772414335606800,4.949606689453125,0.0016168050933629274,0.0030277478508651257,0.0011664645280689
1738772414345599000,4.959598876953125,-0.0002889529860112816,0.002951581496745348,-0.0008548747282475233
1738772414355590000,4.96958984375,0.0003270361921750009,0.003572630463168025,-0.0014908375451341271
1738772414365580800,4.979580810546875,0.0021888520568609238,0.004049602895975113,0.00019414443522691727
1738772414375572000,4.989572021484375,-0.00017710021347738802,0.0033486587926745415,-0.00019148127466905862
1738772414385563000,4.99956298828125,0.0016383767360821366,0.00333161442540586,0.0001531317684566602
1738772414395553800,5.0095537109375,0.0006844323943369091,0.004177168011665344,-0.00010066748654935509
1738772414405546000,5.0195458984375,0.0013496900210157037,0.0036096484400331974,-0.00017496968212071806
1738772414415537000,5.029536865234375,0.0011891013709828258,0.0057106162421405315,0.0010013486025854945
1738772414425527800,5.03952783203125,0.0018216022290289402,0.0032415995374321938,0.0013140037190169096
1738772414435519000,5.04951904296875,0.00195156445261091,0.005154548212885857,0.00009560748003423214
1738772414445510000,5.059510009765625,0.0018788601737469435,0.0038048583082854748,0.0005970807396806777
1738772414455501800,5.069501708984375,0.0010277138790115714,0.004619785584509373,0.0002719087351579219
1738772414465493000,5.079492919921875,0.00195156445261091,0.004287156742066145,0.0002950782363768667
1738772414475484000,5.08948388671875,0.0029462550301104784,0.0032754219137132168,0.0010519486386328936
1738772414485474800,5.099474853515625,0.0008178567513823509,0.004161987919360399,-0.0015933692920953035
1738772414495466000,5.109466064453125,0.002299373270943761,0.003114566905423999,0.00026791400159709156
1738772414505458000,5.1194580078125,0.0020956413354724646,0.0035888757556676865,-0.0007379619055427611
1738772414515448800,5.12944873046875,-0.00027537086862139404,0.004740426782518625,-0.0000018642127770363004
1738772414525440000,5.13943994140625,0.001876995898783207,0.003410177771002054,-0.0003563309437595308
1738772414535431000,5.149430908203125,0.0015848471084609628,0.004327636677771807,0.0004394215648062527
1738772414545421800,5.159421875,0.0025419872254133224,0.004095409065485001,0.0012636699248105288
1738772414555413000,5.1694130859375,0.0015659386990591884,0.003763046581298113,0.000059921123465755954
1738772414565405000,5.179405029296875,0.0015701997326686978,0.0026964505668729544,-0.0005099953268654644
1738772414575395800,5.189395751953125,0.0023302659392356873,0.004090082831680775,0.00021065604232717305
1738772414585387000,5.199386962890625,0.0007206514128483832,0.0032357405871152878,-0.0002894856152124703
1738772414595378000,5.2093779296875,0.0011558119440451264,0.003400856629014015,-0.00008362325752386823
1738772414605369900,5.219369873046875,0.002959570847451687,0.005029379855841398,0.00034168356796726584
1738772414615361000,5.229361083984375,0.0021670141723006964,0.0035771578550338745,0.0007411577389575541
1738772414625352000,5.23935205078125,-0.00009214537567459047,0.003489273600280285,-0.00014540860138367862
1738772414635342800,5.2493427734375,0.0018815232906490564,0.004896221682429314,0.0007672567153349519
1738772414645334000,5.259333984375,0.002094842493534088,0.004047205671668053,0.0012772521004080772
1738772414655325000,5.269324951171875,0.0017214673571288586,0.003668504301458597,0.0008165251929312944
1738772414665316900,5.27931689453125,0.002697515767067671,0.005435511935502291,0.00126739835832268
1738772414675308000,5.28930810546875,0.0011747203534469008,0.003983822651207447,0.00038988678716123104
1738772414685299000,5.299298828125,0.0016016251174733043,0.004836566746234894,-0.0005310343112796545
1738772414695289900,5.309289794921875,0.0006913566030561924,0.003733485471457243,-0.0007640608819201589
1738772414705281000,5.319281005859375,0.002541188383474946,0.002496180823072791,0.0016386429779231548
1738772414715273000,5.32927294921875,-0.0006761765689589083,0.003050118451938033,0.0018322548130527139
1738772414725264000,5.339263916015625,-0.0015310513554140925,0.004878911189734936,-0.0012711267918348312
1738772414735255000,5.349255126953125,0.0020391824655234814,0.004577174782752991,0.0007597998483106494
1738772414745246000,5.359245849609375,0.0009835053933784366,0.0041089910082519054,0.000483363721286878
1738772414755236900,5.36923681640625,0.000606934423558414,0.003692206460982561,0.00023089606838766485
1738772414765229000,5.37922900390625,0.00012969593808520585,0.0036727653350681067,-0.00008681904728291556
1738772414775220000,5.389219970703125,0.0010338390711694956,0.0026256104465574026,0.00014168016787152737
1738772414785211000,5.3992109375,0.0028037759475409985,0.002865028567612171,0.0001411475386703387
1738772414795202000,5.4092021484375,0.00282055395655334,0.003875964554026723,0.0007331682136282325
1738772414805193000,5.41919287109375,0.0014591459184885025,0.0038980687968432903,-0.0007283745799213648
1738772414815184000,5.429183837890625,0.0011472897604107857,0.00501020485535264,0.001332912128418684
1738772414825176000,5.439176025390625,-0.00038828887045383453,0.004335892386734486,0.0005129248020239174
1738772414835167000,5.4491669921875,0.0006191849242895842,0.0042144525796175,0.0001536643976578489
1738772414845158000,5.459157958984375,0.0023164174053817987,0.004181162919849157,-0.0013257216196507215
1738772414855148800,5.469148681640625,-0.00011158645065734163,0.0031909996178001165,0.0007416903390549123
1738772414865140000,5.479139892578125,0.0013560815714299679,0.00452790642157197,0.0011411645682528615
1738772414875132000,5.4891318359375,0.0011643340112641454,0.002843989757820964,-0.0008074704091995955
1738772414885123000,5.499123046875,0.0032807481475174427,0.0041430797427892685,0.0002812298189383
1738772414895114000,5.509114013671875,0.0007760451408103108,0.004320446401834488,-0.0007515440811403096
1738772414905105000,5.51910498046875,0.002115082461386919,0.0024799355305731297,0.0013305152533575892
1738772414915095800,5.529095703125,0.0017411747248843312,0.00347435986623168,0.0014652712270617485
1738772414925088000,5.539087890625,0.0011531487107276917,0.00398595305159688,0.0009882990270853043
1738772414935079000,5.549078857421875,0.00028336033574305475,0.004070375580340624,0.0007962851668708026
1738772414945070000,5.559070068359375,0.0012681973166763783,0.0036613137926906347,0.0005081311101093888
1738772414955061000,5.56906103515625,0.0017515610670670867,0.004062119405716658,0.0006644586683250964
1738772414965052000,5.579052001953125,0.0020905814599245787,0.0039015309885144234,0.001216798322275281
1738772414975042800,5.589042724609375,0.0011797803454101086,0.0029316076543182135,-0.001958488719537854
1738772414985035000,5.599034912109375,-0.00022956448083277792,0.004230164922773838,-0.0018064221367239952
1738772414995026000,5.60902587890625,0.002942526713013649,0.0029518476221710443,0.0014514228096231818
1738772415005016800,5.619016845703125,0.0017134778900071979,0.0030778152868151665,-0.0007374293054454029
1738772415015008000,5.629008056640625,0.0015464976895600557,0.003951065707951784,0.0002556634717620909
1738772415024999000,5.6389990234375,0.002332130214199424,0.004117779433727264,-0.00014221279707271606
1738772415034991000,5.6489912109375,0.0019342538435012102,0.00529489666223526,0.0009294432238675654
1738772415044982000,5.65898193359375,0.002847185591235757,0.0038184402510523796,-0.00038056570338085294
1738772415054973000,5.668972900390625,-0.0001536643976578489,0.003079679561778903,-0.00003888214996550232
1738772415064963800,5.6789638671875,0.0010729875648394227,0.002787264296784997,-0.00032676986302249134
1738772415074955000,5.688955078125,0.0009187905816361308,0.0031760858837515116,0.0011877698125317693
1738772415084947000,5.698947021484375,0.0036666402593255043,0.002558232517912984,-0.0011371697764843702
1738772415094937900,5.708937744140625,0.002644785214215517,0.005008607171475887,0.0008788431296125054
1738772415104929000,5.718928955078125,0.000898550555575639,0.003922570031136274,0.0001656486128922552
1738772415114920000,5.728919921875,0.0013470269041135907,0.0041614556685090065,0.0007065366371534765
1738772415124910800,5.738910888671875,0.0010349043877795339,0.004114849958568811,0.00039787625428289175
1738772415134902000,5.748902099609375,0.003313771216198802,0.0027350664604455233,0.0004695153038483113
1738772415144894000,5.75889404296875,0.0009555422002449632,0.0031941954512149096,0.0006846986943855882
1738772415154884900,5.768884765625,0.0011398328933864832,0.003896737238392234,-0.0002109223569277674
1738772415164876000,5.7788759765625,0.0024591628462076187,0.0034964641090482473,-0.0012277172645553946
1738772415174867000,5.788866943359375,0.00029880666988901794,0.004705006722360849,-0.0010801780736073852
1738772415184857900,5.79885791015625,0.003222425002604723,0.005124454386532307,0.0002772350562736392
1738772415194850000,5.80885009765625,0.00021411814668681473,0.003299123840406537,0.0005102616851218045
1738772415204841000,5.818841064453125,0.0014410364674404263,0.005086371209472418,0.00043356261448934674
1738772415214831900,5.828831787109375,0.0038421424105763435,0.0038365498185157776,0.0009741843095980585
1738772415224823000,5.838822998046875,0.001439971150830388,0.005055212415754795,0.0006229133578017354
1738772415234814000,5.84881396484375,0.000847950461320579,0.003123621689155698,0.00007057376933516935
1738772415244806000,5.858805908203125,0.0009515474666841328,0.004840295296162367,-0.00024580975878052413
1738772415254797000,5.868797119140625,0.0022887205705046654,0.0036658411845564842,-0.00043888893560506403
1738772415264788000,5.8787880859375,0.0016737966798245907,0.0037947380915284157,-0.00001651159800530877
1738772415274779400,5.888779296875,0.0008341020438820124,0.00395719101652503,-0.00018242653459310532
1738772415284770300,5.898770263671875,0.0012311793398112059,0.004777710884809494,0.00012090751260984689
1738772415294761200,5.90876123046875,0.0014516890514642,0.004298608284443617,0.00047697214176878333
1738772415304753400,5.91875341796875,0.0025249430909752846,0.003899666713550687,-0.000054861116950633004
1738772415314744300,5.928744384765625,0.001243962557055056,0.0034461303148418665,-0.0013337110867723823
1738772415324735500,5.938735595703125,0.0013877731980755925,0.004447212442755699,0.00039547940832562745
1738772415334726400,5.948726318359375,0.00019494339358061552,0.0030362699180841446,-0.0002620550512801856
1738772415344717300,5.95871728515625,0.0012423646403476596,0.0028013791888952255,0.000322775129461661
1738772415354709500,5.96870947265625,-0.00015526228526141495,0.003870904678478837,0.0007749798824079335
1738772415364700400,5.978700439453125,0.002147839404642582,0.003183010034263134,-0.000010918960470007733
1738772415374691300,5.98869140625,0.0029321403708308935,0.0032048479188233614,-0.00021944446780253202
1738772415384682200,5.99868212890625,0.0006609965930692852,0.004618453793227673,-0.0001877528557088226
1738772415394673400,6.00867333984375,0.0007427555974572897,0.004549211822450161,0.0004884237423539162
1738772415404665300,6.018665283203125,0.001327053178101778,0.004054130055010319,-0.000046339002437889576
1738772415414656500,6.028656494140625,0.0012282498646527529,0.005928729195147753,0.0016029566759243608
1738772415424647400,6.0386474609375,0.0012394351651892066,0.004230697639286518,0.0011203918838873506
1738772415434638300,6.048638427734375,0.0018224010709673166,0.002625077962875366,0.0003856257244478911
1738772415444629200,6.058629150390625,0.0018519621808081865,0.0019885823130607605,0.0008426241693086922
1738772415454620400,6.068620361328125,0.0006974819116294384,0.004063184838742018,-0.0006327670416794717
1738772415464612400,6.0786123046875,0.00018855179951060563,0.0032447953708469868,0.0007022755453363061
1738772415474603300,6.088603271484375,0.0016317188274115324,0.004488491453230381,0.002460228279232979
1738772415484594400,6.098594482421875,0.0009829727932810783,0.0033782199025154114,-0.000182959163794294
1738772415494585300,6.10858544921875,0.0009856359101831913,0.00341523764654994,0.0003653856983873993
1738772415504576300,6.118576171875,0.00017124126316048205,0.0034533210564404726,0.0005496764206327498
1738772415514568400,6.128568359375,0.0019441075855866075,0.0035867453552782536,-0.0015257250051945448
1738772415524559400,6.138559326171875,0.002061286708340049,0.004287689458578825,0.0008937568636611104
1738772415534550300,6.14855029296875,0.0021406488958746195,0.004221642855554819,-0.0004679173871409148
1738772415544541400,6.15854150390625,0.0020216056145727634,0.0041071269661188126,0.0025097629986703396
1738772415554532400,6.168532470703125,0.002927879337221384,0.0046179210767149925,0.00048070057528093457
1738772415564524300,6.178524169921875,0.0012628709664568305,0.0033246902748942375,0.001972869737073779
1738772415574515500,6.188515380859375,0.0018991001415997744,0.004583033733069897,0.0006362291751429439
1738772415584506400,6.19850634765625,0.0007965514669194818,0.004020840395241976,0.00047058056225068867
1738772415594497300,6.208497314453125,0.001112935016863048,0.004550809506326914,0.0007677893154323101
1738772415604488400,6.218488525390625,0.0016884441720321774,0.0032085764687508345,0.00012650014832615852
1738772415614479400,6.228479248046875,0.0023883229587227106,0.00498011102899909,-0.0006498112925328314
1738772415624471300,6.23847119140625,0.0019470370607450604,0.004920456558465958,0.0013350426452234387
1738772415634462500,6.24846240234375,0.001973136095330119,0.004896488040685654,-0.0006831008358858526
1738772415644453400,6.258453369140625,0.00043649208964779973,0.004234692547470331,0.000731836655177176
1738772415654444300,6.2684443359375,0.0017510283505544066,0.00407543545588851,-0.0008082693675532937
1738772415664435500,6.278435546875,0.0017710020765662193,0.005514607764780521,0.001341966912150383
1738772415674427400,6.288427490234375,0.0031587753910571337,0.003123621689155698,-0.00021971078240312636
1738772415684418300,6.298418212890625,0.0002926813904196024,0.0035025894176214933,-0.0003741741238627583
1738772415694409500,6.308409423828125,0.0023438481148332357,0.0046482812613248825,0.0009105347562581301
1738772415704400400,6.318400390625,0.00021997711155563593,0.004298075567930937,-0.00032091091270558536
1738772415714391300,6.328391357421875,0.0008522115531377494,0.0032474587205797434,0.0002412823960185051
1738772415724383200,6.33838330078125,0.0016655409708619118,0.0030927290208637714,0.000761664065066725
1738772415734374400,6.34837451171875,-0.0001512675517005846,0.004086354281753302,0.0012415656819939613
1738772415744365300,6.358365234375,0.0027113643009215593,0.004233893472701311,-0.00034168356796726584
1738772415754356500,6.3683564453125,0.0020181434229016304,0.004578772932291031,-0.000731836655177176
1738772415764347400,6.378347412109375,0.0002932140196207911,0.004515123087912798,-0.00012250541476532817
1738772415774338300,6.38833837890625,0.0013235911028459668,0.004135889001190662,0.001353152096271515
1738772415784330500,6.39833056640625,0.0007313040550798178,0.0027771443128585815,0.0014498248929157853
1738772415794321400,6.4083212890625,0.0015880429418757558,0.002924683503806591,0.00006524744821945205
1738772415804312300,6.418312255859375,0.0013068130938336253,0.003805124433711171,0.00021891183860134333
1738772415814303500,6.428303466796875,-0.000006924218723725062,0.004059456288814545,0.0016650082543492317
1738772415824294400,6.43829443359375,0.00030306773260235786,0.0029324067290872335,0.0006000102148391306
1738772415834286300,6.448286376953125,0.0015760586829856038,0.004859736189246178,0.00015659387281630188
1738772415844277500,6.458277587890625,0.0023843280505388975,0.0039087217301130295,-0.00008335694292327389
1738772415854268400,6.468268310546875,0.002144377212971449,0.003135872073471546,-0.0007475492893718183
1738772415864259300,6.47825927734375,0.002549177734181285,0.0033816818613559008,0.00011451592581579462
1738772415874250200,6.488250244140625,0.00210629403591156,0.0040735709480941296,0.0015390408225357533
1738772415884241400,6.498241455078125,-0.0006095975404605269,0.004348942078649998,0.0004956142511218786
1738772415894233300,6.5082333984375,0.0012279836228117347,0.004303135443478823,0.0009595369338057935
1738772415904224500,6.518224609375,0.0009616674506105483,0.0044352286495268345,-0.0003885551996063441
1738772415914215400,6.52821533203125,0.0013246563030406833,0.003156378399580717,0.00045060686534270644
1738772415924206300,6.538206298828125,0.001261539408005774,0.003866909770295024,-0.00041278995922766626
1738772415934197200,6.548197265625,0.0002865561400540173,0.0037939392495900393,0.0004492752777878195
1738772415944189200,6.558189208984375,0.0015512913232669234,0.004023237619549036,-0.000955009541939944
1738772415954180400,6.568180419921875,0.0020453077740967274,0.003674895968288183,0.00065460498444736
1738772415964171300,6.578171142578125,0.0022354573011398315,0.00401711231097579,0.0003014698449987918
1738772415974162400,6.588162353515625,0.0026461167726665735,0.005126585252583027,-0.0015883093001320958
1738772415984153300,6.5981533203125,0.0020642161834985018,0.004022172186523676,-0.0002061286650132388
1738772415994145300,6.608145263671875,0.0015374429058283567,0.002341717481613159,0.0007044061203487217
1738772416004136400,6.618136474609375,0.0030945930629968643,0.004232561681419611,-0.00010359696898376569
1738772416014127400,6.62812744140625,-0.00016165387933142483,0.004382763989269733,-0.0008673915872350335
1738772416024118300,6.6381181640625,0.0022863238118588924,0.004303401801735163,0.0017052220646291971
1738772416034109400,6.648109375,-0.000015180017726379447,0.002812031889334321,-0.0007227819296531379
1738772416044100400,6.658100341796875,0.0014215953415259719,0.004209658596664667,0.0007233145297504961
1738772416054092300,6.66809228515625,-0.0008942894637584686,0.004312989301979542,-0.0007989483419805765
1738772416064083500,6.67808349609375,0.0023329290561378,0.004269047174602747,0.00031664984999224544
1738772416074074400,6.688074462890625,0.0016556872287765145,0.0033774208277463913,0.0013662016717717052
1738772416084065300,6.698065185546875,0.001094559207558632,0.0035364115610718727,-0.0005270395777188241
1738772416094056400,6.708056396484375,0.0013275857781991363,0.003808320267125964,-0.00021065604232717305
1738772416104048000,6.718048095703125,0.0011116034584119916,0.005788114387542009,-0.0007238471880555153
1738772416114039300,6.728039306640625,0.0005099953268654644,0.0070091737434268,-0.0005307680112309754
1738772416124030500,6.738030517578125,0.0014034858904778957,0.0027238810434937477,-0.00020346550445538014
1738772416134021400,6.748021484375,0.0011590076610445976,0.004141215234994888,-0.0001310275256400928
1738772416144012300,6.75801220703125,0.0004828310920856893,0.0036791570018976927,0.0008255799184553325
1738772416154003500,6.76800341796875,0.0028333370573818684,0.004791559185832739,0.0007597998483106494
1738772416163995400,6.777995361328125,0.001531850197352469,0.0030623688362538815,0.0014170679496601224
1738772416173986300,6.787986328125,0.0016458334866911173,0.0035385421942919493,-0.0017888452857732773
1738772416183977500,6.7979775390625,0.00021172130072955042,0.003905792022123933,0.00003808320252574049
1738772416193968400,6.807968505859375,0.0013797837309539318,0.0010996191995218396,-0.0006671218434348702
1738772416203959300,6.817959228515625,0.0017694041598588228,0.004782238509505987,-0.00004846953015658073
1738772416213951200,6.827951171875,0.0015664712991565466,0.00436012726277113,0.00042796999332495034
1738772416223942400,6.8379423828125,-0.0006910903030075133,0.0038163098506629467,-0.0011683288030326366
1738772416233933300,6.847933349609375,0.001421861699782312,0.003692739177495241,0.00004234426160110161
1738772416243924500,6.857924560546875,0.0014253237750381231,0.005103681702166796,0.0010365023044869304
1738772416253915400,6.867915283203125,0.0006764429272152483,0.0032202943693846464,0.0005573995877057314
1738772416263907000,6.877906982421875,0.001068193931132555,0.003602724289521575,0.00016671388584654778
1738772416273898200,6.887898193359375,0.0021441110875457525,0.004218713380396366,-0.0006135923322290182
1738772416283889400,6.897889404296875,0.0012719257501885295,0.0019212043844163418,0.0006130596739239991
1738772416293880600,6.907880615234375,0.001743571599945426,0.00509835546836257,0.0010439591715112329
1738772416303871700,6.917871826171875,0.0009475527331233025,0.0038485340774059296,0.0001430117554264143
1738772416313862700,6.927862548828125,0.001609614584594965,0.003747866488993168,-0.0001715075777610764
1738772416323854600,6.9378544921875,0.0011765845119953156,0.0033997914288192987,0.0008263788768090308
1738772416333845500,6.947845458984375,0.001996039180085063,0.004547880031168461,-0.0005291700945235789
1738772416343836700,6.957836669921875,0.0004588626616168767,0.0041010016575455666,0.0003177151083946228
1738772416353827800,6.967827880859375,0.0010484865633770823,0.003528422210365534,0.00250496924854815
1738772416363818800,6.97781884765625,0.0017688715597614646,0.00461765518411994,-0.00009480853623244911
1738772416373810400,6.987810546875,0.0011653993278741837,0.003457315731793642,0.00046578687033616006
1738772416383801600,6.997801513671875,0.0005808354471810162,0.004571049474179745,0.0010751180816441774
1738772416393792500,7.00779248046875,0.0005946838646195829,0.0033446638844907284,0.00014061490946915
1738772416403783700,7.01778369140625,0.003011502558365464,0.003991279285401106,0.0013520868960767984
1738772416413774800,7.02777490234375,0.001065264455974102,0.0035478631034493446,0.0005954828229732811
1738772416423766500,7.0377666015625,0.0011283813510090113,0.003495398908853531,-0.0008988168556243181
1738772416433757400,7.04775732421875,0.0014586133183911443,0.004816593136638403,-0.00013981595111545175
1738772416443748600,7.05774853515625,0.00028575718170031905,0.004203266929835081,0.00005965480886516161
1738772416453739500,7.067739501953125,0.0009395632077939808,0.002825880190357566,-0.0006186523241922259
1738772416463730700,7.077730712890625,0.0014168017078191042,0.0032826124224811792,-0.0010908307740464807
1738772416473722600,7.08772265625,0.001038632821291685,0.005309810396283865,0.0013156015193089843
1738772416483713500,7.097713623046875,0.0013582120882347226,0.004332962911576033,-0.0009869674686342478
1738772416493704400,7.107704345703125,0.002145176287740469,0.003049319377169013,0.00162399560213089
1738772416503695600,7.117695556640625,0.0012189288390800357,0.003227218519896269,0.00023808660625945777
1738772416513686800,7.127686767578125,0.0016556872287765145,0.00392683083191514,0.00108257494866848
1738772416523677700,7.137677734375,0.0022807312197983265,0.00446984963491559,-0.0005049353349022567
1738772416533669600,7.147669677734375,0.0015715312911197543,0.003858920419588685,0.00034914040588773787
1738772416543660500,7.15766064453125,0.0009688580175861716,0.0017441042000427842,0.0014887070283293724
1738772416553651500,7.1676513671875,0.0021046961192041636,0.0034993935842067003,0.0007009439868852496
1738772416563642600,7.177642578125,0.0008966863388195634,0.0035950010642409325,-0.00028309403569437563
1738772416573633800,7.1876337890625,0.001865544356405735,0.004563592839986086,0.0013880395563319325
1738772416583625500,7.19762548828125,0.000955009541939944,0.004281031433492899,0.00010652644414221868
1738772416593616600,7.20761669921875,0.0009403621661476791,0.002983539365231991,-0.0009116000146605074
1738772416603607600,7.217607666015625,0.0004796353168785572,0.004604871850460768,0.0009398295660503209
1738772416613598500,7.227598388671875,0.0012863067677244544,0.0031819448340684175,0.0004727110790554434
1738772416623589600,7.237589599609375,0.0017164073651656508,0.004609931726008654,-0.0001347559446003288
1738772416633581600,7.24758154296875,0.0004114583716727793,0.002433596644550562,0.0015952334506437182
1738772416643572500,7.257572509765625,-0.000743554555810988,0.0035627768374979496,0.0006956176948733628
1738772416653563400,7.2675634765625,0.0015451660146936774,0.0036756948102265596,0.000854075769893825
1738772416663554600,7.277554443359375,0.0006559365428984165,0.0027092336677014828,0.0013670006301254034
1738772416673545500,7.28754541015625,0.0035385421942919493,0.004400340840220451,0.00021917815320193768
1738772416683536600,7.29753662109375,0.002118544653058052,0.0030634342692792416,-0.0005954828229732811
1738772416693528600,7.307528564453125,0.0015598133904859424,0.003846403444185853,0.002112685702741146
1738772416703519500,7.31751953125,0.0016338493442162871,0.002031459240242839,0.001181378262117505
1738772416713510400,7.327510498046875,0.0012000204296782613,0.004232828039675951,0.0012183962389826775
1738772416723501600,7.33750146484375,0.00253479671664536,0.0030418625101447105,0.0018690064316615462
1738772416733492700,7.34749267578125,0.0017121462151408195,0.0035862126387655735,0.0005976133397780359
1738772416743484700,7.357484619140625,0.0021145499777048826,0.00430260319262743,-0.0018991001415997744
1738772416753475600,7.3674755859375,0.0011227887589484453,0.0022453111596405506,0.0006908240029588342
1738772416763466500,7.377466552734375,0.002270078519359231,0.0036820864770561457,-0.0008165251929312944
1738772416773457400,7.38745751953125,0.00002450108149787411,0.0049795787781476974,0.00018269284919369966
1738772416783448600,7.397448486328125,0.0019446401856839657,0.0038663772866129875,0.00016458335448987782
1738772416793440500,7.4074404296875,0.001528920722194016,0.0036551884841173887,0.0007629956235177815
1738772416803431400,7.417431396484375,0.0013611416798084974,0.005510346498340368,0.00221974472515285
1738772416813422600,7.427422607421875,0.002103630919009447,0.003802194958552718,0.0025012409314513206
1738772416823413500,7.43741357421875,0.0014021543320268393,0.003224555402994156,0.00005246427463134751
1738772416833404400,7.447404296875,0.001948634977452457,0.004092213232070208,0.0012149340473115444
1738772416843395600,7.4573955078125,0.001812014845199883,0.002491120947524905,0.0011110707418993115
1738772416853387500,7.467387451171875,0.0005744438385590911,0.003593403147533536,-0.0002287655370309949
1738772416863378400,7.47737841796875,0.0006913566030561924,0.004206462763249874,0.00003435477628954686
1738772416873369600,7.48736962890625,-0.00034461304312571883,0.0033747577108442783,-0.0004106594424229115
1738772416883360500,7.497360595703125,0.0006969492533244193,0.002675145398825407,0.0005352954030968249
1738772416893351700,7.5073515625,0.0002468750171829015,0.0037499971222132444,-0.0006527407676912844
1738772416903343600,7.517343505859375,0.0008527441532351077,0.0037473340053111315,0.0011020160745829344
1738772416913334500,7.52733447265625,0.0008625978953205049,0.005781456362456083,-0.00016325176693499088
1738772416923325400,7.537325439453125,0.0022056300658732653,0.003887948812916875,-0.0017816547770053148
1738772416933316600,7.547316650390625,0.0025244103744626045,0.0049103363417088985,-0.0006386260502040386
1738772416943307500,7.5573076171875,0.0013166668359190226,0.0037742317654192448,0.00011664645717246458
1738772416953299500,7.567299560546875,0.0014170679496601224,0.004652808886021376,0.0014586133183911443
1738772416963290600,7.57729052734375,0.001329716295003891,0.00424268189817667,0.0010908307740464807
1738772416973281500,7.587281494140625,0.0013936321483924985,0.004742290824651718,-0.0019571571610867977
1738772416983272400,7.5972724609375,0.003073554253205657,0.0029459886718541384,-0.0000066579027588886674
1738772416993263600,7.607263671875,0.0012604740913957357,0.004926847759634256,-0.0007723167072981596
1738772417003254500,7.617254638671875,0.002360359765589237,0.004954278469085693,0.00043276368523947895
1738772417013246500,7.62724658203125,0.002287122653797269,0.004578240215778351,0.0008072041091509163
1738772417023237600,7.637237548828125,0.0010218549286946654,0.0035265579354017973,-0.0009384979493916035
1738772417033228500,7.647228515625,0.00034434671397320926,0.0030341395176947117,0.00024740767548792064
1738772417043219500,7.657219482421875,0.0010101370280608535,0.005273325368762016,0.00013848437811248004
1738772417053210600,7.667210693359375,0.0015701997326686978,0.003834951901808381,0.000821318884845823
1738772417063202600,7.67720263671875,0.0028602350503206253,0.005001150071620941,0.001005609636195004
1738772417073193500,7.687193359375,0.0018311894964426756,0.004172108136117458,-0.0005073322099633515
1738772417083184600,7.6971845703125,0.0007621967233717442,0.001910019083879888,-0.0013816480059176683
1738772417093175600,7.707175537109375,0.0008719189208932221,0.004774248693138361,0.00010865696822293103
1738772417103166500,7.71716650390625,0.0008591357618570328,0.004347078036516905,-0.00015819176041986793
1738772417113157600,7.72715771484375,0.001312405802309513,0.003531884169206023,0.0018048242200165987
1738772417123149600,7.737149658203125,0.0021904499735683203,0.005057609174400568,0.0001715075777610764
1738772417133140500,7.747140380859375,0.0004767058417201042,0.0038016624748706818,0.0009065400226972997
1738772417143131600,7.757131591796875,0.0007182545377872884,0.0023102923296391964,0.001213336130604148
1738772417153122600,7.76712255859375,0.003337473375722766,0.0041276332922279835,-0.0006266417913138866
1738772417163113500,7.777113525390625,0.000838895735796541,0.004723116289824247,-0.001163002452813089
1738772417173105700,7.787105712890625,0.0013510215794667602,0.0037947380915284157,-0.000556600687559694
1738772417183096600,7.7970966796875,0.0005675196298398077,0.002805107505992055,0.002570216776803136
1738772417193087500,7.80708740234375,0.0014980280539020896,0.0030447919853031635,0.000431432097684592
1738772417203078400,7.817078369140625,0.0022708773612976074,0.0035430695861577988,-0.0013584784464910626
1738772417213069600,7.827069580078125,0.0013406352372840047,0.0044019389897584915,0.0005251753609627485
1738772417223061500,7.8370615234375,-0.0004652542411349714,0.004036553204059601,-0.001659948262386024
1738772417233052700,7.847052734375,0.0001757686259225011,0.004791825544089079,0.0002383529208600521
1738772417243043600,7.857043701171875,0.0020969731267541647,0.0033190976828336716,-0.00015339808305725455
1738772417253034500,7.867034423828125,0.0013041499769315124,0.0036221654154360294,0.0015491608064621687
1738772417263025400,7.877025390625,0.000603738590143621,0.004053330980241299,-0.00037284253630787134
1738772417273016600,7.8870166015625,0.0008490157779306173,0.0035744947381317616,0.00047590688336640596
1738772417283008000,7.897008056640625,0.0015560849569737911,0.0037204360123723745,-0.001151284552179277
1738772417292999000,7.9069990234375,0.0016801883466541767,0.003434146288782358,-0.0005627259379252791
1738772417302990000,7.916989990234375,-0.0004021373169962317,0.0036037894897162914,0.0013736584223806858
1738772417312981000,7.92698095703125,0.001757952617481351,0.003900199430063367,0.0000828243064461276
1738772417322972200,7.93697216796875,0.0004450142150744796,0.006277336739003658,0.0002873550693038851
1738772417334213000,7.948213134765625,0.0025361282750964165,0.004049336537718773,0.0010524812387302518
1738772417344204000,7.9582041015625,0.0015646071406081319,0.003858121344819665,0.00014168016787152737
1738772417354195000,7.96819482421875,0.0013177321525290608,0.00439075380563736,0.00015872440417297184
1738772417364186000,7.97818603515625,0.0013496900210157037,0.00440966198220849,0.00006684534309897572
1738772417374177000,7.988177001953125,0.0027952538803219795,0.0041553303599357605,-0.000535561703145504
1738772417384169200,7.998169189453125,0.0011369034182280302,0.00415346585214138,-0.0008519452530890703
1738772417394160000,8.00816015625,0.0007091998122632504,0.0035143073182553053,-0.0016434367280453444
1738772417404151000,8.018151123046875,0.0017132115317508578,0.003852528752759099,0.00022397184511646628
1738772417414142000,8.028141845703125,-0.0017899106023833156,0.0039012646302580833,0.0011443602852523327
1738772417424133000,8.038133056640625,0.0014966964954510331,0.004987834487110376,0.000624777574557811
1738772417434124000,8.0481240234375,0.0018165421206504107,0.0028732845094054937,0.0026759442407637835
1738772417444116000,8.058115966796874,0.001957956003025174,0.004590224474668503,-0.0002695118892006576
1738772417454107100,8.068107177734374,0.0024104269687086344,0.005087436642497778,0.000395745737478137
1738772417464098000,8.07809814453125,0.0024253407027572393,0.004038417246192694,0.00014381069922819734
1738772417474089000,8.0880888671875,0.0011526161106303334,0.0037119139451533556,-0.001100684516131878
1738772417484080000,8.098080078125,0.0023132218047976494,0.004057592246681452,0.001181644620373845
1738772417494072000,8.108072021484375,0.0021550299134105444,0.004815527703613043,-0.0012594088912010193
1738772417504063000,8.11806298828125,0.0003664509567897767,0.0041071269661188126,0.00088976213010028
1738772417514054100,8.12805419921875,0.0014516890514642,0.0038860845379531384,0.0003755057114176452
1738772417524045000,8.138045166015624,0.002127333078533411,0.004467186518013477,0.0013968279818072915
1738772417534036000,8.148035888671876,0.0016160061350092292,0.004609665367752314,0.0008138620178215206
1738772417544027100,8.158027099609376,0.002453836612403393,0.0037835529074072838,-0.0000900148443179205
1738772417554019000,8.16801904296875,0.0005105279851704836,0.0026612968649715185,-0.00024501082953065634
1738772417564010000,8.178010009765625,0.002113218419253826,0.0029702235478907824,0.0007315703551284969
1738772417574001200,8.188001220703125,0.00044767739018425345,0.004049070179462433,0.001347825862467289
1738772417583992000,8.197991943359375,0.003329217666760087,0.003981692250818014,-0.0022509037517011166
1738772417593983000,8.20798291015625,0.0011805793037638068,0.0027214842848479748,0.00040559942135587335
1738772417603975200,8.21797509765625,0.0007054713787510991,0.0036706349346786737,0.00011611382069531828
1738772417613966000,8.227966064453126,0.0026258768048137426,0.0037470676470547915,0.0007374293054454029
1738772417623957000,8.23795703125,-0.00004740426811622456,0.005424859002232552,0.00039468047907575965
1738772417633948200,8.2479482421875,0.0018658105982467532,0.0032828785479068756,-0.0008383630774915218
1738772417643939000,8.25793896484375,0.0014897723449394107,0.003070891136303544,-0.00024501082953065634
1738772417653931000,8.267930908203125,0.0017294568242505193,0.0036815537605434656,0.0007494135061278939
1738772417663922200,8.277922119140625,0.0014482269762083888,0.003763579297810793,-0.0009134642314165831
1738772417673913000,8.2879130859375,0.0016162724932655692,0.003710049670189619,0.0014421016676351428
1738772417683904000,8.297904052734374,0.0017627463676035404,0.0035380094777792692,0.0005723133217543364
1738772417693895200,8.307895263671876,0.0011523497523739934,0.003602990647777915,-0.000013582121027866378
1738772417703886000,8.317885986328125,0.0029758161399513483,0.004849083721637726,0.0012716593919321895
1738772417713878000,8.3278779296875,0.002569950418546796,0.003721501212567091,0.0000013315805063029984
1738772417723869200,8.337869140625,0.001845038030296564,0.003906590864062309,-0.00001704423084447626
1738772417733860000,8.347860107421875,0.00138031633105129,0.004770520608872175,0.0012311793398112059
1738772417743851000,8.35785107421875,0.0010298443958163261,0.004480235744267702,0.00031079089967533946
1738772417753842000,8.367842041015624,0.0013467605458572507,0.002715891692787409,-0.00040027310024015605
1738772417763834000,8.377834228515624,0.0017915084026753902,0.004187820944935083,0.0006980145117267966
1738772417773825000,8.387824951171876,0.00042211104300804436,0.003799265483394265,-0.0007185208378359675
1738772417783816200,8.397816162109375,0.0018402442801743746,0.0038304245099425316,-0.00018562232435215265
1738772417793807000,8.40780712890625,0.0019771307706832886,0.0045585329644382,0.0009363674325868487
1738772417803798000,8.417798095703125,0.0012964267516508698,0.002989398315548897,-0.00013182646944187582
1738772417813789000,8.427788818359375,0.0007374293054454029,0.004292749334126711,0.0007163903210312128
1738772417823781000,8.437781005859375,0.0019078885670751333,0.004200603812932968,0.00011957593233091757
1738772417833772000,8.44777197265625,0.0013017531018704176,0.004048004746437073,0.0002772350562736392
1738772417843763000,8.457762939453126,0.0012431635987013578,0.0044141896069049835,-0.0004426173691172153
1738772417853754000,8.467754150390626,0.0023457121569663286,0.003358246060088277,-0.0010519486386328936
1738772417863745000,8.4777451171875,0.0023366576060652733,0.002969158347696066,0.0011377023765817285
1738772417873737200,8.4877373046875,0.0007832356495782733,0.00358860963024199,0.00007403588097076863
1738772417883728100,8.49772802734375,0.003029612125828862,0.0036019254475831985,-0.001680720946751535
1738772417893719000,8.507718994140625,0.0005352954030968249,0.0028605014085769653,0.002162220422178507
1738772417903710000,8.5177099609375,0.0010820423485711217,0.0035835495218634605,0.0006881608278490603
1738772417913701000,8.527701171875,0.0012692625168710947,0.0031848743092268705,-0.000978978001512587
1738772417923693000,8.537693115234376,-0.00016777914424892515,0.003619768423959613,0.0023238742724061012
1738772417933684200,8.547684326171876,0.00032863407977856696,0.004894357640296221,0.0005166532355360687
1738772417943675100,8.557675048828125,0.00044767739018425345,0.004308994393795729,-0.0000250337143370416
1738772417953666000,8.567666015625,0.0008567389450035989,0.0044203149154782295,0.00162399560213089
1738772417963657000,8.577656982421875,0.0003099919413216412,0.0031196267809718847,-0.0004324973560869694
1738772417973649200,8.587649169921875,0.0010351707460358739,0.004114051349461079,0.0002460760879330337
1738772417983640000,8.59764013671875,0.0016476977616548538,0.0030985879711806774,-0.0005392901366576552
1738772417993631000,8.607630859375,0.0005909554311074317,0.0034852789249271154,0.0006114617572166026
1738772418003622100,8.6176220703125,0.0008870989549905062,0.003201119601726532,-0.0004237089306116104
1738772418013613000,8.627613037109375,0.000322775129461661,0.004563326481729746,-0.000925448490306735
1738772418023604000,8.63760400390625,0.0004924184759147465,0.0036280243657529354,0.0004721784498542547
1738772418033596200,8.64759619140625,0.0012306467397138476,0.004144411068409681,0.0016495619202032685
1738772418043587000,8.657587158203125,0.001336107961833477,0.004049602895975113,0.001282045734114945
1738772418053578000,8.667577880859374,0.001139566651545465,0.0027425233274698257,0.0006500775925815105
1738772418063569200,8.677569091796874,0.001698564155958593,0.0037984666414558887,0.000716922979336232
1738772418073560000,8.68756005859375,0.0006154565489850938,0.0057529606856405735,-0.0003171824791934341
1738772418083552000,8.697552001953126,0.0021116205025464296,0.0035204326268285513,0.0000327568814100232
1738772418093543200,8.707543212890625,0.000800279900431633,0.0038631814531981945,0.0004756405542138964
1738772418103534000,8.7175341796875,0.0011563445441424847,0.004382231738418341,0.00007190534961409867
1738772418113525000,8.72752490234375,0.00003488740912871435,0.005498362239450216,0.0011765845119953156
1738772418123516200,8.73751611328125,0.00035127095179632306,0.002444781828671694,-0.00021917815320193768
1738772418133507800,8.7475078125,0.001955292886123061,0.002549710450693965,0.0004487426485866308
1738772418143499000,8.7574990234375,0.001472461735829711,0.00478330347687006,0.0016231966437771916
1738772418153490200,8.767490234375,0.0004367584188003093,0.004322576802223921,0.0006090649403631687
1738772418163481000,8.777481201171875,0.00010466222738614306,0.003594468580558896,-0.0005137237603776157
1738772418173472000,8.787471923828125,0.0005105279851704836,0.0031728900503367186,-0.0001704423048067838
1738772418183463200,8.797463134765625,0.0008511462947353721,0.001942243310622871,-0.00030652983696199954
1738772418193455000,8.807455078125,0.0005507417372427881,0.003319630166515708,0.00007430219557136297
1738772418203446000,8.817446044921875,0.00020905814017169178,0.006851514335721731,0.0011699266033247113
1738772418213437200,8.827437255859374,-0.00009081379539566115,0.004746285732835531,0.0004854942671954632
1738772418223428000,8.837427978515626,0.0015595471486449242,0.0024615598376840353,0.000059388490626588464
1738772418233419000,8.8474189453125,0.0011653993278741837,0.0041670482605695724,0.0005182511522434652
1738772418243411000,8.857410888671875,0.0010793792316690087,0.003439738880842924,0.0023422501981258392
1738772418253402000,8.867402099609375,0.0006809702608734369,0.004008057527244091,0.0004021373169962317
1738772418263393000,8.87739306640625,0.0022354573011398315,0.00452870549634099,0.0008444883860647678
1738772418273384200,8.88738427734375,0.0018106831703335047,0.004577973857522011,0.00042583944741636515
1738772418283375000,8.897375,-0.0001675128296483308,0.0035537220537662506,0.00044288369826972485
1738772418293367000,8.907366943359374,0.00035606464371085167,0.0031878037843853235,0.00032197617110796273
1738772418303358000,8.91735791015625,0.0015022892039269209,0.004987568128854036,0.0002463423879817128
1738772418313349000,8.92734912109375,0.0022066952660679817,0.0028269453905522823,0.00011451592581579462
1738772418323340000,8.937340087890625,0.0026375947054475546,0.00595509447157383,-0.001020523370243609
1738772418333331200,8.947331298828125,0.0014642059104517102,0.00503976596519351,-0.0011012171162292361
1738772418343323000,8.957322998046875,0.0008719189208932221,0.00487145408987999,0.00036751621519215405
1738772418353314000,8.96731396484375,0.001312405802309513,0.003079679561778903,-0.00016884441720321774
1738772418363305200,8.97730517578125,0.003357979701831937,0.0028732845094054937,0.0006524744676426053
1738772418373296000,8.987296142578124,0.0003502056933939457,0.0037025928031653166,0.001133441342972219
1738772418383287000,8.997287109375,0.002320412313565612,0.004447212442755699,-0.00035499935620464385
1738772418393279000,9.007279052734376,0.0015795208746567369,0.0049707903526723385,0.0008237157016992569
1738772418403270000,9.017269775390625,0.000990695902146399,0.004233094397932291,0.0023576964158564806
1738772418413261000,9.027260986328125,0.0007147924043238163,0.004324174486100674,-0.001398159540258348
1738772418423252200,9.037252197265625,0.0006551376427523792,0.0029324067290872335,0.0013691311469301581
1738772418433243100,9.0472431640625,0.0016724651213735342,0.004649346694350243,0.0005001416429877281
1738772418443234000,9.057234130859374,0.0004308994684834033,0.0060325926169753075,-0.00006684534309897572
1738772418453226000,9.06722607421875,0.0013651363551616669,0.004454935900866985,0.00021172130072955042
1738772418463217000,9.077216796875,0.0004689826746471226,0.00392816262319684,0.00020000340009573847
1738772418473208000,9.0872080078125,0.0005049353349022567,0.0036064526066184044,0.0008564725867472589
1738772418483199200,9.09719921875,0.0032059133518487215,0.0023853934835642576,0.0001280980504816398
1738772418493190100,9.107190185546875,0.0034791536163538694,0.003930026665329933,0.0012551478575915098
1738772418503181800,9.117181884765625,0.0009739180095493793,0.003614442190155387,-0.0008900284301489592
1738772418513173000,9.127173095703125,0.00020772656716872007,0.0038075214251875877,-0.0010237190872430801
1738772418523164200,9.1371640625,-0.0001882854849100113,0.004210724029690027,-0.0003640541108325124
1738772418533155000,9.147155029296876,0.0016695356462150812,0.003209908027201891,0.0010359697043895721
1738772418543146200,9.157146240234376,0.0024596955627202988,0.00347462622448802,0.0004290352517273277
1738772418553138000,9.167137939453125,0.001469532260671258,0.003775563556700945,0.0009456885163672268
1738772418563128800,9.17712890625,0.0020788635592907667,0.004026699345558882,-0.000743554555810988
1738772418573120000,9.1871201171875,0.0017901768442243338,0.002472745021805167,0.0006388923502527177
1738772418583111200,9.197111083984375,0.0025840650778263807,0.004279966000467539,0.002666356973350048
1738772418593102000,9.20710205078125,0.0005816344055347145,0.005892510060220957,0.0005917543894611299
1738772418603094000,9.217093994140624,0.0014106763992458582,0.003070624778047204,0.0016490293201059103
1738772418613085000,9.2270849609375,0.0009307747823186219,0.002831472782418132,-0.0014405038673430681
1738772418623075800,9.237075927734375,0.00219551008194685,0.004257329273968935,-0.0013345100451260805
1738772418633067000,9.24706689453125,0.001020523370243609,0.004780640359967947,0.0017121462151408195
1738772418643058200,9.25705810546875,0.0009171926649287343,0.004739627707749605,-0.0005779059720225632
1738772418653049000,9.267049072265625,0.0018346516881138086,0.0041124531999230385,0.0005052016349509358
1738772418663041000,9.277041015625,0.0020447750575840473,0.0037912761326879263,0.00035233621019870043
1738772418673032000,9.287031982421874,0.0020090886391699314,0.0024839304387569427,-0.0012450277572497725
1738772418683022800,9.29702294921875,0.0010761833982542157,0.00469621829688549,0.0014687333023175597
1738772418693014300,9.30701416015625,0.0010159959783777595,0.004269846249371767,0.0008008125587366521
1738772418703005200,9.317005126953125,0.0037063213530927896,0.003436543047428131,-0.0011598066193982959
1738772418712996900,9.326996826171875,0.001312139444053173,0.00216514989733696,0.000648479734081775
1738772418722988000,9.336988037109375,-0.00108284130692482,0.0033806166611611843,0.0004189152386970818
1738772418732979000,9.34697900390625,0.0009981527691707015,0.0036751623265445232,0.0009763148264028132
1738772418742970000,9.35697021484375,0.0016200009267777205,0.0036171053070575,-0.0007070692372508347
1738772418752961000,9.3669609375,0.0014647386269643903,0.004536961205303669,-0.0003296993381809443
1738772418762953000,9.376952880859376,-0.00007909588020993397,0.004731371998786926,-0.0010258496040478349
1738772418772944000,9.38694384765625,0.002115881536155939,0.003518834710121155,0.00010359696898376569
1738772418782935000,9.39693505859375,0.001463673310354352,0.0032631712965667248,0.0016503608785569668
1738772418792926000,9.406926025390625,0.00004900216299574822,0.003177950158715248,-0.0003217098710592836
1738772418802917000,9.416917236328125,0.0003145193331874907,0.004030694253742695,-0.0012767193838953972
1738772418812908000,9.426907958984375,0.0031132353469729424,0.004519650712609291,0.00034354778472334146
1738772418822900000,9.43689990234375,0.00213585514575243,0.004025101661682129,-0.0007091998122632504
1738772418832891000,9.446890869140624,0.0031939290929585695,0.0037494644057005644,0.0010319749126210809
1738772418842881800,9.4568818359375,0.0006881608278490603,0.002587793627753854,0.000630636524874717
1738772418852873000,9.466873046875,0.001270594191737473,0.004035754129290581,-0.0003531351685523987
1738772418862864100,9.476864013671875,-0.00012410330236889422,0.0036477316170930862,0.0004900216590613127
1738772418872856000,9.48685595703125,0.0006841660942882299,0.005318066570907831,0.000467118457891047
1738772418882847000,9.496846923828125,0.0015787219163030386,0.003620833856984973,-0.0012580773327499628
1738772418892838000,9.506837890625,0.0014122743159532547,0.004192081745713949,0.0006705839768983424
1738772418902829000,9.5168291015625,0.001017327536828816,0.004327636677771807,0.0018162758788093925
1738772418912820200,9.5268203125,0.0024202808272093534,0.0036634444259107113,-0.0005811017472296953
1738772418922812000,9.53681201171875,0.0005928196478635073,0.0027624969370663166,0.0015241270884871483
1738772418932803000,9.546802978515625,0.0014516890514642,0.003719637170433998,0.001743571599945426
1738772418942794000,9.5567939453125,0.00047830372932367027,0.0036887445021420717,0.00003488740912871435
1738772418952785000,9.566784912109375,0.0011211908422410488,0.0036932716611772776,0.0009893643436953425
1738772418962776000,9.576776123046875,0.001041295938193798,0.004565989598631859,0.0003312972257845104
1738772418972767200,9.586767333984374,0.0022029669489711523,0.005095159634947777,-0.00025513084256090224
1738772418982759000,9.596759033203124,0.000143544384627603,0.00461765518411994,0.0019861855544149876
1738772418992749800,9.606749755859376,0.002898051869124174,0.0038831550627946854,-0.0012567456578835845
1738772419002741000,9.616740966796876,0.0012572783743962646,0.0034133736044168472,0.0011616708943620324
1738772419012732000,9.62673193359375,0.0002567287301644683,0.004179032519459724,-0.0006016080733388662
1738772419022723000,9.63672314453125,0.0019979034550487995,0.0032802154310047626,0.0020959076937288046
1738772419032715000,9.646715087890625,0.0007542071980424225,0.004343615844845772,0.0002615224220789969
1738772419042706000,9.656705810546875,0.002251968951895833,0.0036938043776899576,0.0003203782835043967
1738772419052696800,9.66669677734375,0.000972852751147002,0.005426723510026932,0.00015446334145963192
1738772419062688000,9.67668798828125,0.001832787413150072,0.0027891285717487335,0.00023915186466183513
1738772419072679200,9.68667919921875,0.0018333201296627522,0.004552674014121294,0.0006780407857149839
1738772419082670800,9.6966708984375,0.0012926984345540404,0.00384400668554008,0.0011896340874955058
1738772419092662000,9.706662109375,0.0012207929976284504,0.0031915323343127966,0.0008804410463199019
1738772419102653000,9.71665283203125,0.0006924218614585698,0.0034581145737320185,-0.00004953479583491571
1738772419112643800,9.726643798828125,-0.0006532734259963036,0.0037968687247484922,-0.0011201255256310105
1738772419122635000,9.736635009765624,0.001365402713418007,0.002519882982596755,-0.0013427657540887594
1738772419132626200,9.746626220703124,0.0025803367607295513,0.00455666845664382,-0.001335575245320797
1738772419142617900,9.756617919921876,0.0012844426091760397,0.003456516657024622,0.0017449031583964825
1738772419152609000,9.766609130859376,0.0005613943794742227,0.0029204224701970816,0.0008767126128077507
1738772419162600000,9.776599853515625,0.0023875238839536905,0.0031609057914465666,0.0011547466274350882
1738772419172590800,9.7865908203125,-0.0001685781026026234,0.0027172232512384653,-0.0007691209320910275
1738772419182582000,9.79658203125,0.0016101471846923232,0.004516721237450838,0.0010926949325948954
1738772419192574000,9.806573974609375,0.0008258462767116725,0.0037816886324435472,-0.0001555285998620093
1738772419202564900,9.81656494140625,0.0018421085551381111,0.003531351685523987,0.00011877698125317693
1738772419212556000,9.82655615234375,0.0015755260828882456,0.0030802120454609394,0.0011478224769234657
1738772419222547000,9.836546875,0.0010093380697071552,0.004063983913511038,-0.0007097324123606086
1738772419232538000,9.8465380859375,0.00045380264054983854,0.004276237916201353,0.0016532903537154198
1738772419242530000,9.856530029296875,0.00004447478931979276,0.003492469433695078,0.0010732539230957627
1738772419252521000,9.86652099609375,0.0011768508702516556,0.0034703651908785105,0.0007869640830904245
1738772419262511900,9.876511962890625,0.0010905644157901406,0.003763579297810793,0.00025752768851816654
1738772419272503000,9.8865029296875,0.00027563716867007315,0.0024373249616473913,0.00003941478280466981
1738772419282494500,9.896494384765624,0.0001776328426785767,0.003983289934694767,-0.0003760383406188339
1738772419292485400,9.9064853515625,0.0012748552253469825,0.003689276985824108,-0.0010341054294258356
1738772419302477600,9.9164775390625,-0.0010487528052181005,0.0037433390971273184,0.00012010856153210625
1738772419312468500,9.926468505859376,0.001606418751180172,0.0031185615807771683,-0.0008415589109063148
1738772419322459400,9.93645947265625,0.00205249828286469,0.00452817277982831,-0.00027510453946888447
1738772419332450300,9.9464501953125,0.0019092201255261898,0.002372077666223049,0.0007275756215676665
1738772419342441500,9.95644140625,0.00017496968212071806,0.0038152446504682302,0.0011725898366421461
1738772419352433400,9.966433349609375,0.001710814656689763,0.0030602384358644485,-0.00001944107498275116
1738772419362424600,9.976424560546874,0.0007334345718845725,0.0035459990613162518,-0.0007669904152862728
1738772419372415500,9.98641552734375,0.00177899154368788,0.0036703685764223337,-0.0005488775204867125
1738772419382406400,9.996406494140626,0.0010974886827170849,0.003117496380582452,0.0015209312550723553
1738772419392397300,10.006397216796875,0.00033875409280881286,0.004613926634192467,-0.00005299690383253619
1738772419402389500,10.016389404296875,0.00010466222738614306,0.004150536376982927,0.00039468047907575965
1738772419412380400,10.02638037109375,0.00035712990211322904,0.0034200313966721296,-0.0001001348573481664
1738772419422371300,10.036371337890625,0.001805623178370297,0.004258661065250635,0.0006500775925815105
1738772419432362500,10.046362548828125,0.0007379619055427611,0.004465322010219097,-0.00041784998029470444
1738772419442353400,10.056353515625,-0.000556334329303354,0.003296460723504424,-0.0001549959706608206
1738772419452344300,10.06634423828125,0.0025925873778760433,0.003081543603911996,-0.001234641415067017
1738772419462336500,10.07633642578125,0.0017600831342861056,0.004547613672912121,0.0005645901546813548
1738772419472327400,10.086327392578125,0.0005320995696820319,0.005216599907726049,0.00010839065362233669
1738772419482318300,10.096318359375,0.0007227819296531379,0.003949201665818691,-0.0012511530658230186
1738772419492309500,10.1063095703125,0.0006831008358858526,0.003994475118815899,0.00005672533006872982
1738772419502300400,10.116300537109375,0.0015821839915588498,0.004723116289824247,-0.0013158678775653243
1738772419512292400,10.126292236328124,0.0026841999497264624,0.0036991306114941835,-0.00016058860637713224
1738772419522283500,10.136283447265624,0.0021057615522295237,0.0032147017773240805,-0.000031158982892520726
1738772419532274400,10.1462744140625,0.00250576832331717,0.0028160265646874905,-0.0005856291390955448
1738772419542265300,10.156265380859375,0.0011092065833508968,0.003909786697477102,0.0010349043877795339
1738772419552256500,10.166256591796875,0.0004239752306602895,0.003540672594681382,0.0006013417732901871
1738772419562248400,10.17624853515625,0.002287921728566289,0.003181145992130041,0.001460743835195899
1738772419572239400,10.1862392578125,0.0023329290561378,0.004194744862616062,0.000013315805517777335
1738772419582230500,10.19623046875,0.0020881847012788057,0.003920439630746841,-0.00037470675306394696
1738772419592221400,10.206221435546874,0.0009089368977583945,0.004936701618134975,-0.0009419600828550756
1738772419602212400,10.21621240234375,0.00025779398856684566,0.004741491749882698,-0.000261788722127676
1738772419612203500,10.22620361328125,0.0020501012913882732,0.0032703618053346872,0.0014421016676351428
1738772419622195500,10.236195556640626,0.0013542174128815532,0.004674912896007299,-0.00040080572944134474
1738772419632186400,10.246186279296875,0.0007209177128970623,0.004008323885500431,0.001487641828134656
1738772419642177500,10.256177490234375,0.0016437029698863626,0.005057076457887888,0.00034221619716845453
1738772419652168400,10.26616845703125,0.0015363775892183185,0.0041244374588131905,0.00152359448838979
1738772419662159400,10.276159423828124,0.0010729875648394227,0.004355866461992264,0.000365918327588588
1738772419672151600,10.286151611328124,0.002115615177899599,0.003424558788537979,0.0004439489566721022
1738772419682142500,10.296142578125,0.0010306433541700244,0.0044011399149894714,-0.000854075769893825
1738772419692133400,10.30613330078125,0.0029017801862210035,0.003403786104172468,0.0006386260502040386
1738772419702124500,10.31612451171875,0.0015598133904859424,0.0028988507110625505,0.0005789712304249406
1738772419712115500,10.326115478515625,0.002304699504747987,0.004324973560869694,-0.0005752427969127893
1738772419722106400,10.3361064453125,0.0009182579233311117,0.0041124531999230385,0.0010426276130601764
1738772419732098600,10.3460986328125,0.0003110571997240186,0.0038778288289904594,-0.0007789746159687638
1738772419742089500,10.35608935546875,0.001996838254854083,0.004867726005613804,0.0003259709046687931
1738772419752080400,10.366080322265624,0.0006178533658385277,0.0028972530271857977,-0.001038632821291685
1738772419762071600,10.376071533203126,0.0023875238839536905,0.0024471788201481104,0.0013281183782964945
1738772419772062500,10.3860625,0.000922252656891942,0.003652791725471616,-0.000028762138754245825
1738772419782054400,10.396054443359375,0.0023363912478089333,0.003254382871091366,0.001151018193922937
1738772419792045600,10.406045654296875,0.0022295983508229256,0.004356665071099997,0.0011462245602160692
1738772419802036500,10.416036376953125,0.0008812400046736002,0.003935352899134159,-0.0010900318156927824
1738772419812027400,10.42602734375,0.0012743226252496243,0.004041080828756094,0.0006412891671061516
1738772419822018300,10.436018310546874,0.001160339335910976,0.003154514357447624,-0.00008415588672505692
1738772419832010500,10.446010498046874,0.0013470269041135907,0.003216299694031477,0.0000953411654336378
1738772419842001400,10.45600146484375,0.0022008363157510757,0.004905010107904673,0.00033103092573583126
1738772419851992600,10.46599267578125,0.0008868326549418271,0.003768905531615019,0.0011416971683502197
1738772419861983500,10.4759833984375,0.0006319681415334344,0.0028988507110625505,0.0009898969437927008
1738772419871974400,10.485974365234375,0.0018975022248923779,0.003650394966825843,-0.0003685815026983619
1738772419881965300,10.49596533203125,0.001788312685675919,0.003495132550597191,0.0016615461790934205
1738772419891957500,10.50595751953125,0.0009944243356585503,0.003299390198662877,0.0006205165409483016
1738772419901948400,10.515948486328124,0.0023928501177579165,0.0026341325137764215,-0.0005643238546326756
1738772419911939300,10.525939208984376,0.003525758860632777,0.003823766717687249,0.002112419344484806
1738772419921930500,10.535930419921876,0.0008460862445645034,0.0029489181470125914,-0.0009424926829524338
1738772419931921400,10.54592138671875,0.00015286543930415064,0.003290868131443858,0.0009299758239649236
1738772419941913600,10.55591357421875,0.0031068436801433563,0.003204581793397665,0.001213868847116828
1738772419951904500,10.565904541015625,0.0023816649336367846,0.004620584659278393,-0.0004082625964656472
1738772419961895400,10.5758955078125,0.0010639328975230455,0.003718571737408638,0.0009100021561607718
1738772419971886300,10.58588623046875,0.001446362817659974,0.003969175275415182,-0.0003842941368930042
1738772419981877500,10.59587744140625,0.0009257147903554142,0.004038683604449034,0.000251402409048751
1738772419991869400,10.605869384765626,0.001675128354690969,0.004063184838742018,0.002430933527648449
1738772420001860400,10.6158603515625,-0.0007123955874703825,0.003486610483378172,-0.0009078715811483562
1738772420011851500,10.6258515625,0.0017097494564950466,0.0046328348107635975,-0.00044767739018425345
1738772420021842400,10.635842529296875,0.0013132047606632113,0.0030192257836461067,0.0014253237750381231
1738772420031833300,10.645833251953125,0.0010423612548038363,0.004291683901101351,0.0008689894457347691
1738772420041824500,10.655824462890624,0.001966744428500533,0.003025350859388709,-0.00005406216951087117
1738772420051816400,10.66581640625,0.0013789847726002336,0.004224838688969612,0.00009853696246864274
1738772420061807400,10.675807373046876,0.0010229201288893819,0.003096190979704261,-0.000059921123465755954
1738772420071798500,10.685798583984376,0.0006916229031048715,0.004512726329267025,-0.0008969526388682425
1738772420081789400,10.69578955078125,0.0019861855544149876,0.002517219865694642,0.0012152004055678844
1738772420091780400,10.7057802734375,0.0007816377910785377,0.0037388119380921125,-0.00041971419705078006
1738772420101772500,10.7157724609375,0.003425357863306999,0.002552906284108758,0.0006530070677399635
1738772420111763500,10.725763427734375,0.0006415555253624916,0.004197674337774515,0.0005976133397780359
1738772420121754400,10.73575439453125,0.0017188041238114238,0.003192863892763853,0.0012362393317744136
1738772420131745500,10.74574560546875,0.0017326525412499905,0.004384362138807774,0.0003382214636076242
1738772420141736400,10.755736328125,0.002389121800661087,0.0037984666414558887,-0.0004721784498542547
1738772420151728400,10.765728271484376,0.0008663262706249952,0.0041617220267653465,0.0019435749854892492
1738772420161719600,10.775719482421875,0.0010793792316690087,0.0004141215467825532,0.0017414409667253494
1738772420171710500,10.78571044921875,0.0019084211671724916,0.005353220272809267,0.0002825613773893565
1738772420181701400,10.795701416015625,0.002433863002806902,0.0020642161834985018,0.000901480030734092
1738772420191692500,10.805692626953125,-0.000022370553779182956,0.004203799646347761,0.0002735066518653184
1738772420201683500,10.815683349609374,0.00024447820032946765,0.004803543444722891,0.001698830397799611
1738772420211675400,10.82567529296875,0.001478587044402957,0.00341523764654994,0.0007470166892744601
1738772420221666600,10.83566650390625,0.000809068325906992,0.003934820648282766,0.000431432097684592
1738772420231657500,10.845657470703125,0.0013195963110774755,0.0029726203065365553,0.002653573639690876
1738772420241648400,10.8556484375,0.001895105466246605,0.003703658003360033,0.0004527373821474612
1738772420251639600,10.8656396484375,0.0009643306257203221,0.0038751657120883465,0.0010245180455967784
1738772420261631500,10.875631591796875,-0.00019121496006846428,0.0031132353469729424,0.0018953717080876231
1738772420271622400,10.885622314453125,0.0008692557457834482,0.00449861166998744,-0.0005611280212178826
1738772420281613800,10.89561376953125,0.0009361011325381696,0.004552141297608614,0.000708134553860873
1738772420291604700,10.905604736328126,0.0004900216590613127,0.003879693103954196,0.0002996056282427162
1738772420301595600,10.915595703125,-0.0001752359967213124,0.00321843009442091,0.0011092065833508968
1738772420311586800,10.9255869140625,0.0008476841612718999,0.003918042406439781,0.00126713200006634
1738772420321578800,10.935578857421875,0.0019121496006846428,0.0035502600949257612,0.00013209278404247016
1738772420331569700,10.945569580078125,0.003634415799751878,0.0031308121979236603,-0.0011552792275324464
1738772420341560800,10.955560791015625,0.0027798074297606945,0.004226702731102705,0.0013526194961741567
1738772420351551700,10.9655517578125,0.0031169636640697718,0.0036421390250325203,0.0015603461069986224
1738772420361542700,10.975542724609374,0.0025478461757302284,0.002769687445834279,0.0014647386269643903
1738772420371534800,10.985534912109374,0.0016583503456786275,0.004319380968809128,0.00025992453447543085
1738772420381525800,10.99552587890625,0.0017057546647265553,0.0038988678716123104,-0.00012916330888401717
1738772420391516700,11.0055166015625,-0.0009161274065263569,0.003940679598599672,0.0008048072922974825
1738772420401507800,11.0155078125,0.001990446588024497,0.003940146882086992,-0.00023808660625945777
1738772420411498800,11.025498779296875,0.0014652712270617485,0.0036426717415452003,-0.00039281626231968403
1738772420421489700,11.03548974609375,0.0015638081822544336,0.002781671704724431,0.0012128035305067897
1738772420431481900,11.04548193359375,0.001198955113068223,0.0030474551022052765,0.0005573995877057314
1738772420441472800,11.05547265625,0.0013539510546252131,0.003644003299996257,0.0018793927738443017
1738772420451463700,11.065463623046876,0.0002745719102676958,0.004625378176569939,0.0008913599886000156
1738772420461454600,11.07545458984375,-0.002095375210046768,0.003382747294381261,0.0008663262706249952
1738772420471445800,11.08544580078125,0.0017531589837744832,0.004189951345324516,0.000056459015468135476
1738772420481437700,11.095437744140625,0.0014937670202925801,0.0025475798174738884,0.0010612696642056108
1738772420491428900,11.105428955078125,0.0016732640797272325,0.002900448627769947,0.001133174984715879
1738772420501419800,11.115419677734375,0.0017864484107121825,0.004305532667785883,-0.0014168017078191042
1738772420511410700,11.12541064453125,0.0010093380697071552,0.0037974014412611723,-0.000547279603779316
1738772420521401600,11.135401611328126,0.0010373012628406286,0.004597414750605822,-0.0017126789316534996
1738772420531393800,11.145393798828126,0.00129695946816355,0.0028759476263076067,-0.00038722361205145717
1738772420541384700,11.155384765625,0.0014503574930131435,0.004000067710876465,-0.000020240024241502397
1738772420551375600,11.165375732421875,0.00043809000635519624,0.004910602699965239,0.0028698223177343607
1738772420561366800,11.17536669921875,0.002406165935099125,0.0034266894217580557,-0.001133707701228559
1738772420571357700,11.185357666015625,0.0025214808993041515,0.001988049829378724,0.001201884588226676
1738772420581348600,11.1953486328125,0.003162770066410303,0.004467719234526157,-0.00003728425508597866
1738772420591340800,11.2053408203125,0.0012921657180413604,0.0030250847339630127,-0.0010586065473034978
1738772420601331700,11.215331787109376,0.002005093963816762,0.0035268242936581373,0.0010218549286946654
1738772420611322600,11.225322509765626,0.0005773733137175441,0.0014982944121584296,0.0006591323763132095
1738772420621313800,11.235313720703125,0.0017084177816286683,0.004287156742066145,0.0002788329729810357
1738772420631304700,11.2453046875,0.002145442645996809,0.003870638320222497,0.0002511360798962414
1738772420641296600,11.255296630859375,0.0023638217244297266,0.0038314899429678917,-0.0005992112564854324
1738772420651287800,11.265287841796875,0.0015954998089000583,0.003972903825342655,-0.0008471515611745417
1738772420661278700,11.27527880859375,0.0010548781137913465,0.00276089902035892,0.001118527608923614
1738772420671269600,11.28526953125,0.001746234716847539,0.004062119405716658,0.0005150553770363331
1738772420681260800,11.2952607421875,0.0021606225054711103,0.0031414648983627558,0.0020485036075115204
1738772420691251700,11.305251708984375,0.0014253237750381231,0.0018186726374551654,0.0008559399866499007
1738772420701243600,11.31524365234375,0.001213602488860488,0.0031726236920803785,0.00021784658019896597
1738772420711234800,11.32523486328125,0.001996039180085063,0.004356665071099997,0.00046046054922044277
1738772420721225700,11.335225830078125,0.000988032785244286,0.0044205812737345695,-0.0023036343045532703
1738772420731216600,11.345216552734374,0.002034388715401292,0.004210724029690027,0.0007624630234204233
1738772420741207800,11.355207763671874,0.0018631474813446403,0.0037404096219688654,0.0005795038305222988
1738772420751199700,11.36519970703125,0.0015907060587778687,0.003379817819222808,0.00009507485083304346
1738772420761190700,11.375190673828126,0.0005792375304736197,0.002139050979167223,0.0010612696642056108
1738772420771181800,11.385181884765625,0.003822967642918229,0.003659449517726898,-0.0006729807937517762
1738772420781172700,11.3951728515625,0.0009752495680004358,0.0046120621263980865,-0.00037950044497847557
1738772420791163600,11.40516357421875,0.000015180017726379447,0.0026114957872778177,-0.0002740392810665071
1738772420801155800,11.41515576171875,0.0034056503791362047,0.004497013986110687,-0.0000428768944402691
1738772420811146800,11.425146728515625,0.0009166600648313761,0.0041792988777160645,-0.000731836655177176
1738772420821137700,11.4351376953125,0.0010122675448656082,0.00304638990201056,0.0008050735923461616
1738772420831128800,11.44512890625,0.0011398328933864832,0.003388606244698167,0.0023148194886744022
1738772420841119700,11.45511962890625,0.003114833263680339,0.00250470289029181,-0.0005720470217056572
1738772420851110700,11.465110595703125,0.0010410296963527799,0.0035185683518648148,0.0008948221220634878
1738772420861102800,11.475102783203125,0.0011856392957270145,0.004265851341187954,0.0006780407857149839
1738772420871093800,11.48509375,0.0033902039285749197,0.0032083101104944944,0.0008799084462225437
1738772420881084700,11.495084716796875,0.0020335898734629154,0.004914597608149052,0.0009424926829524338
1738772420891075800,11.505075927734374,0.0011550129856914282,0.0035292210523039103,0.00009560748003423214
1738772420901066800,11.515066650390626,0.003063966752961278,0.00330311874859035,0.0013227921444922686
1738772420911058700,11.52505859375,0.001948368619196117,0.0036402747500687838,0.00009960222087102011
1738772420921049900,11.5350498046875,0.0029696908313781023,0.003314037574455142,0.001219727797433734
1738772420931040800,11.545040771484375,0.0015345134306699038,0.0044195158407092094,0.0012807141756638885
1738772420941031700,11.55503173828125,0.0012338425731286407,0.003747866488993168,0.00020346550445538014
1738772420951022600,11.565022705078125,0.0008988168556243181,0.0021856562234461308,-0.00044607947347685695
1738772420961013800,11.575013671875,0.0006828344776295125,0.004028031136840582,0.0016753945965319872
1738772420971005700,11.585005615234374,0.0006514092092402279,0.003710848744958639,0.001466336427256465
1738772420980996900,11.594996826171876,0.0017473000334575772,0.0038488004356622696,-0.0002407497668173164
1738772420990987800,11.60498779296875,0.0021318604703992605,0.004649879410862923,-0.0003049319493584335
1738772421000978700,11.614978759765625,0.0022418489679694176,0.004764395300298929,-0.0008937568636611104
1738772421010969600,11.624969482421875,0.0021499700378626585,0.0019385149935260415,-0.001469798618927598
1738772421020961800,11.6349619140625,0.000975782226305455,0.004500209353864193,0.0011478224769234657
1738772421030952700,11.64495263671875,0.0009512811084277928,0.0024082965683192015,0.00019361180602572858
1738772421040943900,11.65494384765625,0.0010290454374626279,0.0036426717415452003,0.0007592672482132912
1738772421050934800,11.664934814453124,0.0012053466634824872,0.004054929129779339,-0.00023142869758885354
