time,seconds_elapsed,z,y,x
1738772456767832000,0.02383203125,-0.0508575439453125,-0.998443603515625,-0.0002899169921875
1738772456777823000,0.033822998046875,-0.045318603515625,-0.99822998046875,-0.000946044921875
1738772456787814100,0.043814208984375,-0.04144287109375,-0.99810791015625,-0.0002288818359375
1738772456797806000,0.05380615234375,-0.0405120849609375,-0.999603271484375,-0.00103759765625
1738772456807797200,0.06379736328125,-0.04107666015625,-0.99859619140625,-0.001190185546875
1738772456817788200,0.0737880859375,-0.04071044921875,-0.998931884765625,-0.0009613037109375
1738772456827779000,0.083779052734375,-0.03997802734375,-0.99981689453125,-0.001739501953125
1738772456837770000,0.09377001953125,-0.0430755615234375,-0.9992523193359375,-0.000213623046875
1738772456847762200,0.10376220703125,-0.0482330322265625,-0.998748779296875,-0.0007781982421875
1738772456857753000,0.113753173828125,-0.0500335693359375,-0.9990692138671875,0.00054931640625
1738772456867744000,0.123743896484375,-0.05029296875,-0.9996490478515625,0.00103759765625
1738772456877735200,0.133735107421875,-0.0484161376953125,-0.998779296875,-0.0002899169921875
1738772456887727000,0.14372705078125,-0.0444183349609375,-0.9994354248046875,-0.0006256103515625
1738772456897718300,0.15371826171875,-0.0407562255859375,-0.999664306640625,0.0009307861328125
1738772456907709200,0.163709228515625,-0.0403900146484375,-0.9989776611328125,-0.001220703125
1738772456917700000,0.1737001953125,-0.0403289794921875,-0.998321533203125,0.0002899169921875
1738772456927692300,0.1836923828125,-0.0422515869140625,-0.9996795654296875,0.000823974609375
1738772456937683200,0.19368310546875,-0.042388916015625,-0.9998321533203125,-0.0004119873046875
1738772456947674000,0.203674072265625,-0.0452117919921875,-0.9983673095703125,0.0002899169921875
1738772456957665300,0.213665283203125,-0.04815673828125,-0.998138427734375,0.0008697509765625
1738772456967656200,0.22365625,-0.0498199462890625,-0.9984893798828125,-0.0001220703125
1738772456977648000,0.233648193359375,-0.0471343994140625,-0.9986572265625,-0.000518798828125
1738772456987639300,0.243639404296875,-0.04473876953125,-0.9990081787109375,-0.0001678466796875
1738772456997630200,0.253630126953125,-0.0420989990234375,-0.999664306640625,-0.00054931640625
1738772457007621000,0.26362109375,-0.04193115234375,-0.999664306640625,-0.000640869140625
1738772457017613000,0.273613037109375,-0.040679931640625,-1.00128173828125,0.0004425048828125
1738772457027604200,0.283604248046875,-0.0421905517578125,-0.9994659423828125,-0.0006103515625
1738772457037595100,0.29359521484375,-0.0434112548828125,-0.9987945556640625,-0.0008697509765625
1738772457047586300,0.30358642578125,-0.04681396484375,-0.9982452392578125,-0.000579833984375
1738772457057577200,0.3135771484375,-0.0474395751953125,-1.00006103515625,0.0002899169921875
1738772457067569000,0.32356884765625,-0.0482940673828125,-1.000732421875,-0.0002593994140625
1738772457077560000,0.33356005859375,-0.0470428466796875,-0.998779296875,-0.0006561279296875
1738772457087551200,0.34355126953125,-0.0442962646484375,-0.999542236328125,-0.000030517578125
1738772457097542100,0.353542236328125,-0.044189453125,-1.000396728515625,-0.0000152587890625
1738772457107534000,0.3635341796875,-0.0426788330078125,-0.9991912841796875,0.0001678466796875
1738772457117525000,0.37352490234375,-0.0420379638671875,-0.9988555908203125,0.0000457763671875
1738772457127516000,0.383515869140625,-0.0411529541015625,-0.9987030029296875,-0.000579833984375
1738772457137507300,0.39350732421875,-0.0441131591796875,-0.998077392578125,-0.0011138916015625
1738772457147498200,0.403498291015625,-0.0454559326171875,-0.9981689453125,-0.0008087158203125
1738772457157490000,0.413489990234375,-0.046173095703125,-1.0007476806640625,0.00018310546875
1738772457167481000,0.423481201171875,-0.04766845703125,-0.9986419677734375,0.0015869140625
1738772457177472000,0.433471923828125,-0.047882080078125,-0.9991455078125,0.000732421875
1738772457187463200,0.443463134765625,-0.046661376953125,-0.999847412109375,-0.0005645751953125
1738772457197454000,0.4534541015625,-0.0443878173828125,-0.9987945556640625,-0.0008544921875
1738772457207446000,0.463446044921875,-0.0420684814453125,-0.99932861328125,-0.0009002685546875
1738772457217437000,0.47343701171875,-0.0425567626953125,-0.9993133544921875,0.0004425048828125
1738772457227428000,0.483427978515625,-0.0427398681640625,-0.9994354248046875,-0.00091552734375
1738772457237419000,0.4934189453125,-0.043060302734375,-0.999267578125,0.0013427734375
1738772457247411000,0.503410888671875,-0.0455780029296875,-0.99884033203125,0.000701904296875
1738772457257402000,0.513402099609375,-0.0463714599609375,-0.998809814453125,-0.0003204345703125
1738772457267393000,0.52339306640625,-0.048187255859375,-0.99853515625,-0.000213623046875
1738772457277384000,0.533384033203125,-0.0470123291015625,-0.9999847412109375,0.0001373291015625
1738772457287376100,0.543376220703125,-0.0441131591796875,-0.999908447265625,-0.00048828125
1738772457297367000,0.553366943359375,-0.0431060791015625,-0.9991912841796875,-0.0004425048828125
1738772457307358000,0.56335791015625,-0.0422821044921875,-0.999114990234375,0.0005340576171875
1738772457317348600,0.5733486328125,-0.04132080078125,-0.9980926513671875,0.000335693359375
1738772457327339500,0.583339599609375,-0.042694091796875,-0.999267578125,-0.00006103515625
1738772457337331500,0.59333154296875,-0.04217529296875,-0.999542236328125,-0.00177001953125
1738772457347322400,0.603322265625,-0.04443359375,-0.9976348876953125,-0.0018768310546875
1738772457357313300,0.613313232421875,-0.046356201171875,-0.999359130859375,-0.0012969970703125
1738772457367304400,0.623304443359375,-0.0473785400390625,-0.9996337890625,-0.000244140625
1738772457377295600,0.633295654296875,-0.0464324951171875,-0.999603271484375,0.0025177001953125
1738772457387287300,0.643287353515625,-0.0445709228515625,-1.0005950927734375,-0.000823974609375
1738772457397278500,0.653278564453125,-0.04205322265625,-0.9982452392578125,-0.001678466796875
1738772457407269400,0.663269287109375,-0.0427093505859375,-1.000946044921875,-0.0004425048828125
1738772457417260300,0.67326025390625,-0.04150390625,-1.0004425048828125,-0.0014801025390625
1738772457427252500,0.68325244140625,-0.0427093505859375,-0.999359130859375,0.0003509521484375
1738772457437243400,0.693243408203125,-0.0447998046875,-0.9997711181640625,-0.0002593994140625
1738772457447234300,0.703234375,-0.04534912109375,-0.997802734375,-0.0016937255859375
1738772457457225500,0.7132255859375,-0.0467376708984375,-0.9978179931640625,-0.0002288818359375
1738772457467216400,0.72321630859375,-0.046295166015625,-0.999786376953125,0.000274658203125
1738772457477208300,0.733208251953125,-0.045257568359375,-0.9992828369140625,0.0001220703125
1738772457487199500,0.743199462890625,-0.04541015625,-0.999359130859375,0.000457763671875
1738772457497190400,0.7531904296875,-0.044036865234375,-0.999298095703125,-0.00213623046875
1738772457507181300,0.763181396484375,-0.042877197265625,-0.9993133544921875,-0.0014801025390625
1738772457517173500,0.773173583984375,-0.0412750244140625,-0.9991455078125,-0.000579833984375
1738772457527164400,0.783164306640625,-0.0421295166015625,-0.9986114501953125,0.0005340576171875
1738772457537155300,0.7931552734375,-0.0443267822265625,-0.9989013671875,-0.00054931640625
1738772457547146500,0.803146484375,-0.0449066162109375,-0.999603271484375,-0.00128173828125
1738772457557137400,0.813137451171875,-0.0456085205078125,-0.9990692138671875,0.0001220703125
1738772457567129300,0.82312939453125,-0.0464019775390625,-0.999114990234375,-0.0004119873046875
1738772457577120500,0.83312060546875,-0.0460205078125,-0.9989013671875,-0.000732421875
1738772457587111400,0.843111328125,-0.0449981689453125,-0.9983062744140625,-0.0008544921875
1738772457597102300,0.853102294921875,-0.0430755615234375,-0.9986419677734375,-0.0005035400390625
1738772457607094500,0.863094482421875,-0.0428314208984375,-0.9995574951171875,-0.0004119873046875
1738772457617085400,0.87308544921875,-0.0441741943359375,-0.9989776611328125,0.0002899169921875
1738772457627076400,0.883076416015625,-0.0439300537109375,-0.9988861083984375,-0.0009613037109375
1738772457637067500,0.893067626953125,-0.0442352294921875,-0.9986572265625,-0.0008697509765625
1738772457647058400,0.903058349609375,-0.0458221435546875,-0.9988250732421875,-0.000732421875
1738772457657050400,0.91305029296875,-0.0462646484375,-0.999114990234375,-0.00054931640625
1738772457667041500,0.92304150390625,-0.0459136962890625,-0.998687744140625,-0.000274658203125
1738772457677032400,0.933032470703125,-0.0444183349609375,-0.9996795654296875,-0.0005950927734375
1738772457687023400,0.9430234375,-0.045745849609375,-0.9987945556640625,-0.0007171630859375
1738772457697015600,0.953015625,-0.04510498046875,-0.9987030029296875,0.0005340576171875
1738772457707006500,0.96300634765625,-0.0446014404296875,-0.9991607666015625,0.000885009765625
1738772457716997400,0.972997314453125,-0.0445098876953125,-0.9992218017578125,-0.000762939453125
1738772457726988500,0.982988525390625,-0.044036865234375,-0.9995269775390625,0.0002288818359375
1738772457736979500,0.9929794921875,-0.044708251953125,-1.001007080078125,-0.0007476806640625
1738772457746971400,1.002971435546875,-0.0466766357421875,-0.999969482421875,-0.001129150390625
1738772457756962600,1.012962646484375,-0.04461669921875,-0.9983978271484375,0.0001068115234375
1738772457766953500,1.022953369140625,-0.0444488525390625,-0.9994049072265625,-0.000030517578125
1738772457776944400,1.0329443359375,-0.045196533203125,-0.9991455078125,-0.0017547607421875
1738772457786935600,1.042935546875,-0.0433197021484375,-0.999755859375,-0.00115966796875
1738772457796927500,1.052927490234375,-0.042999267578125,-0.999664306640625,0.00006103515625
1738772457806918400,1.06291845703125,-0.043792724609375,-0.9984130859375,0.00054931640625
1738772457816909600,1.07290966796875,-0.04339599609375,-0.999053955078125,-0.00006103515625
1738772457826900500,1.082900390625,-0.0460357666015625,-0.999053955078125,-0.0013275146484375
1738772457836892400,1.092892333984375,-0.045135498046875,-0.9991607666015625,-0.0011444091796875
1738772457846883600,1.102883544921875,-0.044921875,-1.000701904296875,0.000457763671875
1738772457856874500,1.11287451171875,-0.0441436767578125,-0.999664306640625,-0.0003204345703125
1738772457866865400,1.122865478515625,-0.045166015625,-0.9993438720703125,-0.0004425048828125
1738772457876856600,1.132856689453125,-0.0451507568359375,-0.99920654296875,0.000274658203125
1738772457886848500,1.1428486328125,-0.0438385009765625,-1.0001220703125,-0.0009918212890625
1738772457896839400,1.15283935546875,-0.044647216796875,-1.0005035400390625,-0.0012664794921875
1738772457906830600,1.16283056640625,-0.0439605712890625,-0.9983062744140625,-0.0008392333984375
1738772457916821500,1.172821533203125,-0.043609619140625,-0.9998626708984375,0.0002288818359375
1738772457926812400,1.1828125,-0.045196533203125,-0.99908447265625,0.000579833984375
1738772457936804600,1.1928046875,-0.043121337890625,-1,0.00006103515625
1738772457946795500,1.20279541015625,-0.0440216064453125,-0.9989471435546875,-0.0009307861328125
1738772457956786400,1.212786376953125,-0.045257568359375,-1.0003204345703125,-0.0010223388671875
1738772457966777600,1.222777587890625,-0.0439453125,-0.9988861083984375,-0.0009613037109375
1738772457976769500,1.23276953125,-0.04425048828125,-0.999420166015625,0.0001373291015625
1738772457986760400,1.242760498046875,-0.043548583984375,-0.999420166015625,-0.0003814697265625
1738772457996751600,1.252751708984375,-0.0433502197265625,-0.998748779296875,-0.0010833740234375
1738772458006742500,1.262742431640625,-0.044097900390625,-0.99993896484375,-0.0010833740234375
1738772458016733400,1.2727333984375,-0.0453338623046875,-0.9997711181640625,-0.000030517578125
1738772458026725600,1.2827255859375,-0.045379638671875,-0.999053955078125,-0.0005645751953125
1738772458036716500,1.292716552734375,-0.0459747314453125,-0.9995574951171875,-0.0010223388671875
1738772458046707500,1.30270751953125,-0.0440826416015625,-0.9984588623046875,-0.0005035400390625
1738772458056698600,1.31269873046875,-0.0444793701171875,-0.99969482421875,0.000518798828125
1738772458066690600,1.322690673828125,-0.0438995361328125,-0.999481201171875,-0.000396728515625
1738772458076681500,1.332681396484375,-0.042816162109375,-0.9994049072265625,-0.000091552734375
1738772458086672600,1.342672607421875,-0.04327392578125,-0.998748779296875,0.0004730224609375
1738772458096663600,1.35266357421875,-0.0452728271484375,-0.9996185302734375,-0.0002899169921875
1738772458106654500,1.362654541015625,-0.044403076171875,-1.001220703125,0.000091552734375
1738772458116646700,1.372646728515625,-0.04486083984375,-0.9988555908203125,-0.0007476806640625
1738772458126637600,1.382637451171875,-0.04522705078125,-0.9983673095703125,-0.0005645751953125
1738772458136628500,1.39262841796875,-0.0438995361328125,-0.9986724853515625,-0.000091552734375
1738772458146619600,1.40261962890625,-0.044586181640625,-1.000823974609375,-0.0008392333984375
1738772458156610600,1.412610595703125,-0.0441436767578125,-1.0002288818359375,-0.000091552734375
1738772458166602500,1.4226025390625,-0.043853759765625,-0.999267578125,-0.0005035400390625
1738772458176593700,1.43259375,-0.0450897216796875,-0.999237060546875,-0.001739501953125
1738772458186584600,1.44258447265625,-0.0442962646484375,-1.0001373291015625,-0.00103759765625
1738772458196575500,1.452575439453125,-0.04534912109375,-0.9994659423828125,0.0001068115234375
1738772458206566700,1.462566650390625,-0.044921875,-0.998779296875,-0.0008544921875
1738772458216558300,1.472558349609375,-0.04443359375,-0.999542236328125,-0.000518798828125
1738772458226549500,1.482549560546875,-0.0439605712890625,-1.0003204345703125,0.00042724609375
1738772458236540700,1.492540771484375,-0.043609619140625,-0.997467041015625,0.00030517578125
1738772458246531600,1.502531494140625,-0.0442962646484375,-0.9986114501953125,-0.000518798828125
1738772458256523300,1.512523193359375,-0.0439453125,-1.0007476806640625,-0.000396728515625
1738772458266514400,1.522514404296875,-0.0447540283203125,-0.99945068359375,-0.000732421875
1738772458276505300,1.53250537109375,-0.0443115234375,-0.9999237060546875,-0.0016021728515625
1738772458286496500,1.54249658203125,-0.0449066162109375,-0.998992919921875,-0.00067138671875
1738772458296487700,1.55248779296875,-0.0445404052734375,-0.9990386962890625,-0.00146484375
1738772458306479400,1.562479248046875,-0.0442047119140625,-0.998779296875,-0.0018768310546875
1738772458316470500,1.572470458984375,-0.04351806640625,-0.999755859375,0.0001068115234375
1738772458326461700,1.582461669921875,-0.0435333251953125,-0.998779296875,-0.00079345703125
1738772458336452600,1.59245263671875,-0.0435791015625,-0.9987335205078125,-0.0005950927734375
1738772458346443800,1.60244384765625,-0.0430755615234375,-0.9988250732421875,-0.0003814697265625
1738772458356435700,1.612435791015625,-0.0427703857421875,-0.998260498046875,-0.0007476806640625
1738772458366426600,1.622426513671875,-0.043975830078125,-0.9996185302734375,-0.001220703125
1738772458376417500,1.63241748046875,-0.0439605712890625,-0.999267578125,-0.000335693359375
1738772458386408700,1.64240869140625,-0.0451507568359375,-0.999603271484375,-0.000640869140625
1738772458396399600,1.652399658203125,-0.0435943603515625,-0.99835205078125,-0.000885009765625
1738772458406391600,1.6623916015625,-0.0445404052734375,-0.9989166259765625,-0.0012664794921875
1738772458416382700,1.6723828125,-0.043701171875,-0.999908447265625,-0.000762939453125
1738772458426373600,1.68237353515625,-0.0450286865234375,-0.9990997314453125,-0.000701904296875
1738772458436364500,1.692364501953125,-0.0438385009765625,-0.99884033203125,-0.0008697509765625
1738772458446356700,1.702356689453125,-0.04315185546875,-0.9994964599609375,-0.0009002685546875
1738772458456347600,1.71234765625,-0.0466766357421875,-1.000335693359375,0.0000762939453125
1738772458466338600,1.722338623046875,-0.0460968017578125,-0.9990081787109375,0.0002899169921875
1738772458476329700,1.732329833984375,-0.0449066162109375,-0.9995269775390625,-0.0012359619140625
1738772458486320600,1.742320556640625,-0.04608154296875,-1.0002593994140625,-0.000732421875
1738772458496312600,1.7523125,-0.045440673828125,-0.9989471435546875,0.00006103515625
1738772458506303700,1.7623037109375,-0.0444183349609375,-0.998748779296875,-0.000762939453125
1738772458516294700,1.772294677734375,-0.0435333251953125,-0.99951171875,-0.0001373291015625
1738772458526285600,1.78228564453125,-0.0437774658203125,-0.998504638671875,-0.001007080078125
1738772458536276700,1.79227685546875,-0.042755126953125,-0.9994964599609375,-0.00067138671875
1738772458546268700,1.8022685546875,-0.0441131591796875,-0.9998016357421875,0.0004730224609375
1738772458556259600,1.812259521484375,-0.043304443359375,-0.999053955078125,-0.0015106201171875
1738772458566250800,1.822250732421875,-0.04541015625,-0.999481201171875,-0.0009307861328125
1738772458576241700,1.83224169921875,-0.0445556640625,-0.9993743896484375,0.000091552734375
1738772458586232600,1.842232666015625,-0.0449066162109375,-0.999237060546875,-0.0003814697265625
1738772458596224800,1.852224853515625,-0.045379638671875,-0.999969482421875,-0.0003662109375
1738772458606215700,1.862215576171875,-0.0428314208984375,-0.998870849609375,-0.0016021728515625
1738772458616206600,1.87220654296875,-0.0439910888671875,-0.998077392578125,-0.0006256103515625
1738772458626197800,1.88219775390625,-0.0448150634765625,-0.998626708984375,0.000152587890625
1738772458636188700,1.892188720703125,-0.0448760986328125,-0.9991912841796875,-0.00048828125
1738772458646180600,1.9021806640625,-0.045074462890625,-0.998870849609375,0.001129150390625
1738772458656171800,1.912171875,-0.04522705078125,-0.99932861328125,0.000213623046875
1738772458666162700,1.92216259765625,-0.0439300537109375,-0.9993438720703125,-0.0006256103515625
1738772458676153600,1.932153564453125,-0.043670654296875,-0.9993896484375,-0.0000152587890625
1738772458686145800,1.942145751953125,-0.04400634765625,-0.998443603515625,0.000457763671875
1738772458696136700,1.95213671875,-0.0449981689453125,-0.999359130859375,-0.0008087158203125
1738772458706127600,1.962127685546875,-0.044189453125,-1.0003814697265625,-0.0014801025390625
1738772458716118800,1.972118896484375,-0.04351806640625,-0.99932861328125,-0.000732421875
1738772458726109700,1.982109619140625,-0.044677734375,-0.9990386962890625,-0.000335693359375
1738772458736101600,1.9921015625,-0.043548583984375,-0.998199462890625,-0.0003204345703125
1738772458746092800,2.0020927734375,-0.044281005859375,-0.9981689453125,-0.0000762939453125
1738772458756083700,2.012083740234375,-0.0450439453125,-0.9991607666015625,-0.0010223388671875
1738772458766074600,2.02207470703125,-0.04541015625,-0.9990234375,0.0001220703125
1738772458776065800,2.032065673828125,-0.045257568359375,-0.999664306640625,-0.00079345703125
1738772458786057700,2.0420576171875,-0.0436859130859375,-0.9994659423828125,-0.00091552734375
1738772458796048600,2.052048583984375,-0.0443878173828125,-0.9999237060546875,0.000244140625
1738772458806039800,2.062039794921875,-0.045257568359375,-1.000091552734375,0.000579833984375
1738772458816030700,2.07203076171875,-0.0442047119140625,-0.9984588623046875,-0.0001678466796875
1738772458826022700,2.082022705078125,-0.0431671142578125,-1.0001678466796875,-0.001708984375
1738772458836013800,2.092013916015625,-0.046539306640625,-0.9988861083984375,0.000213623046875
1738772458846004700,2.102004638671875,-0.0441741943359375,-0.998565673828125,0.000274658203125
1738772458855995600,2.11199560546875,-0.043243408203125,-0.999420166015625,-0.0001983642578125
1738772458865986800,2.12198681640625,-0.0449981689453125,-0.9982147216796875,0.0001983642578125
1738772458875978800,2.131978759765625,-0.045257568359375,-0.999664306640625,-0.0006561279296875
1738772458885969700,2.1419697265625,-0.0450439453125,-0.99896240234375,-0.00128173828125
1738772458895960800,2.1519609375,-0.0451812744140625,-0.999053955078125,0.0002593994140625
1738772458905951700,2.16195166015625,-0.04449462890625,-0.998809814453125,-0.00177001953125
1738772458915942700,2.171942626953125,-0.0437469482421875,-0.9988861083984375,-0.0012969970703125
1738772458925934800,2.181934814453125,-0.0438079833984375,-0.998565673828125,0.000030517578125
1738772458935925800,2.19192578125,-0.0438385009765625,-1.000457763671875,-0.0003204345703125
1738772458945916700,2.201916748046875,-0.0447998046875,-0.9998321533203125,0.00042724609375
1738772458955907800,2.211907958984375,-0.044403076171875,-0.9990692138671875,-0.000091552734375
1738772458965899800,2.221899658203125,-0.0438995361328125,-0.9990692138671875,-0.0010986328125
1738772458975890700,2.231890625,-0.0446319580078125,-0.9975433349609375,-0.001739501953125
1738772458985881900,2.2418818359375,-0.0442657470703125,-0.9982452392578125,-0.0001068115234375
1738772458995872800,2.251872802734375,-0.04437255859375,-0.9989013671875,0.000152587890625
1738772459005863700,2.26186376953125,-0.0448150634765625,-0.9981231689453125,-0.0008392333984375
1738772459015855900,2.27185595703125,-0.044586181640625,-0.9987945556640625,0.00006103515625
1738772459025846800,2.2818466796875,-0.045196533203125,-0.999664306640625,-0.000457763671875
1738772459035837700,2.291837646484375,-0.0453948974609375,-0.9989166259765625,-0.00079345703125
1738772459045828900,2.301828857421875,-0.044677734375,-0.99932861328125,-0.000335693359375
1738772459055820800,2.31182080078125,-0.0438079833984375,-0.9986114501953125,-0.0014801025390625
1738772459065811700,2.321811767578125,-0.0447998046875,-0.9991455078125,0.0003662109375
1738772459075803000,2.331802978515625,-0.044464111328125,-0.9993133544921875,-0.000946044921875
1738772459085793800,2.341793701171875,-0.04449462890625,-0.9990386962890625,0.0002288818359375
1738772459095784700,2.35178466796875,-0.0438385009765625,-0.9981231689453125,0.00079345703125
1738772459105777000,2.36177685546875,-0.044036865234375,-0.9994049072265625,-0.0007171630859375
1738772459115767800,2.371767822265625,-0.0439300537109375,-0.9999542236328125,-0.0015716552734375
1738772459125758700,2.3817587890625,-0.0439910888671875,-0.998626708984375,-0.0009613037109375
1738772459135750000,2.39175,-0.0442962646484375,-0.9992218017578125,-0.0001983642578125
1738772459145740800,2.40174072265625,-0.04510498046875,-1.0003509521484375,-0.0001068115234375
1738772459155732700,2.411732666015625,-0.0451812744140625,-0.9997100830078125,-0.0003204345703125
1738772459165724000,2.421723876953125,-0.0450439453125,-0.997772216796875,0.0004119873046875
1738772459175714800,2.43171484375,-0.044219970703125,-0.998504638671875,-0.000946044921875
1738772459185705700,2.441705810546875,-0.04620361328125,-0.99951171875,0.000091552734375
1738772459195697700,2.45169775390625,-0.0460205078125,-0.99847412109375,-0.0013275146484375
1738772459205688800,2.461688720703125,-0.0442352294921875,-0.999908447265625,-0.001556396484375
1738772459215679700,2.4716796875,-0.0440521240234375,-0.999755859375,-0.0001068115234375
1738772459225671000,2.4816708984375,-0.0446319580078125,-0.99908447265625,0.00152587890625
1738772459235661800,2.491661865234375,-0.0433197021484375,-0.9988555908203125,-0.0003204345703125
1738772459245653500,2.501653564453125,-0.0448455810546875,-0.9988861083984375,-0.0003814697265625
1738772459255644700,2.511644775390625,-0.0445556640625,-0.9997100830078125,-0.0003204345703125
1738772459265635800,2.5216357421875,-0.04425048828125,-0.9987335205078125,-0.0010986328125
1738772459275626800,2.531626708984375,-0.0449066162109375,-0.99920654296875,-0.0005645751953125
1738772459285618000,2.541617919921875,-0.0439453125,-0.9988861083984375,-0.00030517578125
1738772459295609600,2.551609619140625,-0.044708251953125,-0.9991912841796875,0.0002593994140625
1738772459305600800,2.561600830078125,-0.0453338623046875,-0.999755859375,-0.000152587890625
1738772459315591400,2.57159130859375,-0.045379638671875,-0.9993438720703125,-0.0010223388671875
1738772459325582300,2.581582275390625,-0.0440216064453125,-0.9987030029296875,0.000213623046875
1738772459335574300,2.59157421875,-0.0433197021484375,-0.9985504150390625,-0.0008544921875
1738772459345565400,2.6015654296875,-0.0454254150390625,-0.99908447265625,-0.0011749267578125
1738772459355556600,2.611556640625,-0.0442657470703125,-0.9981842041015625,0.0000457763671875
1738772459365547500,2.621547607421875,-0.04388427734375,-0.9985504150390625,-0.00091552734375
1738772459375538400,2.631538330078125,-0.044525146484375,-0.9994354248046875,-0.0015411376953125
1738772459385530400,2.6415302734375,-0.045135498046875,-0.9976806640625,-0.0006866455078125
1738772459395521300,2.651521240234375,-0.0433807373046875,-0.9987945556640625,0.0001678466796875
1738772459405512400,2.661512451171875,-0.0441741943359375,-0.999298095703125,-0.001220703125
1738772459415503400,2.67150341796875,-0.04425048828125,-0.999755859375,0.0001220703125
1738772459425494500,2.68149462890625,-0.04400634765625,-0.998504638671875,0.0004119873046875
1738772459435486200,2.691486328125,-0.0441436767578125,-0.999267578125,-0.0002288818359375
1738772459445477400,2.701477294921875,-0.0438690185546875,-0.9991912841796875,-0.0006103515625
1738772459455468500,2.711468505859375,-0.043609619140625,-0.999053955078125,-0.0002593994140625
1738772459465459500,2.72145947265625,-0.0441436767578125,-0.9983978271484375,-0.0012054443359375
1738772459475451400,2.731451416015625,-0.045318603515625,-0.9986724853515625,0.000030517578125
1738772459485442300,2.7414423828125,-0.0444488525390625,-0.9990081787109375,0.000640869140625
1738772459495433200,2.75143310546875,-0.0439453125,-0.9989166259765625,-0.000091552734375
1738772459505424400,2.76142431640625,-0.04388427734375,-0.998046875,0.0002288818359375
1738772459515415600,2.77141552734375,-0.0442352294921875,-0.999267578125,-0.00042724609375
1738772459525407200,2.7814072265625,-0.045928955078125,-0.9998626708984375,-0.000579833984375
1738772459535398400,2.7913984375,-0.0442352294921875,-1.00018310546875,0.0002288818359375
1738772459545389300,2.801389404296875,-0.04449462890625,-0.9999237060546875,-0.001678466796875
1738772459555380200,2.811380126953125,-0.0427093505859375,-0.998992919921875,-0.0013427734375
1738772459565371400,2.821371337890625,-0.04498291015625,-1.0000762939453125,-0.0011749267578125
1738772459575363300,2.83136328125,-0.0437774658203125,-0.9985198974609375,0.0005340576171875
1738772459585354200,2.841354248046875,-0.043914794921875,-0.9986572265625,0.0001678466796875
1738772459595345400,2.851345458984375,-0.0442047119140625,-0.9998321533203125,-0.0001220703125
1738772459605336300,2.86133642578125,-0.0453338623046875,-0.998321533203125,0.0000152587890625
1738772459615328300,2.871328369140625,-0.042999267578125,-0.999847412109375,-0.002288818359375
1738772459625319400,2.8813193359375,-0.04345703125,-1.0000457763671875,-0.0013885498046875
1738772459635310300,2.891310302734375,-0.0438232421875,-0.9988250732421875,0.000518798828125
1738772459645301200,2.90130126953125,-0.044189453125,-0.999176025390625,-0.0001220703125
1738772459655292200,2.911292236328125,-0.0450439453125,-0.9987335205078125,-0.00030517578125
1738772459665284400,2.921284423828125,-0.04248046875,-0.99932861328125,0.000335693359375
1738772459675275300,2.931275146484375,-0.045745849609375,-0.998748779296875,-0.0017547607421875
1738772459685266400,2.941266357421875,-0.045806884765625,-0.9983062744140625,0.0005035400390625
1738772459695257300,2.95125732421875,-0.04376220703125,-0.998748779296875,0.0003509521484375
1738772459705248300,2.961248291015625,-0.0442352294921875,-0.998992919921875,-0.0012969970703125
1738772459715240400,2.971240478515625,-0.0439605712890625,-0.998809814453125,-0.0013885498046875
1738772459725231400,2.9812314453125,-0.0449066162109375,-0.9977874755859375,0.000152587890625
1738772459735222300,2.99122216796875,-0.04412841796875,-0.999298095703125,-0.0023040771484375
1738772459745213200,3.001213134765625,-0.044281005859375,-0.9990386962890625,-0.0007781982421875
1738772459755205400,3.011205322265625,-0.0430755615234375,-0.998992919921875,0.000091552734375
1738772459765196300,3.0211962890625,-0.0433349609375,-0.999542236328125,0.0001373291015625
1738772459775187500,3.0311875,-0.0434417724609375,-0.998291015625,-0.0001678466796875
1738772459785178400,3.041178466796875,-0.0445709228515625,-0.9995269775390625,-0.0016021728515625
1738772459795169300,3.051169189453125,-0.0449066162109375,-0.9988250732421875,-0.0001983642578125
1738772459805161500,3.061161376953125,-0.043609619140625,-0.998382568359375,-0.000946044921875
1738772459815152400,3.07115234375,-0.0446319580078125,-0.999420166015625,-0.0004730224609375
1738772459825143300,3.081143310546875,-0.044281005859375,-0.9995880126953125,-0.000732421875
1738772459835134200,3.09113427734375,-0.0430755615234375,-0.99957275390625,-0.0014190673828125
1738772459845125400,3.10112548828125,-0.044677734375,-0.9991912841796875,-0.000518798828125
1738772459855117300,3.111117431640625,-0.0442657470703125,-0.99951171875,0.00067138671875
1738772459865108500,3.1211083984375,-0.044403076171875,-0.9987030029296875,0.00164794921875
1738772459875099400,3.131099365234375,-0.0446014404296875,-0.99884033203125,-0.0017852783203125
1738772459885090300,3.14109033203125,-0.044525146484375,-0.9998626708984375,-0.0000152587890625
1738772459895081200,3.151081298828125,-0.0442657470703125,-0.9995574951171875,-0.0021514892578125
1738772459905073400,3.161073486328125,-0.0450897216796875,-0.99993896484375,-0.000213623046875
1738772459915064300,3.171064208984375,-0.0447235107421875,-0.9989166259765625,-0.0007781982421875
1738772459925055200,3.18105517578125,-0.0449981689453125,-0.999359130859375,-0.00042724609375
1738772459935046400,3.19104638671875,-0.0439453125,-0.9992523193359375,-0.0002593994140625
1738772459945038300,3.201038330078125,-0.0428009033203125,-0.99798583984375,-0.000152587890625
1738772459955029500,3.211029541015625,-0.0441436767578125,-1.0003814697265625,0.0008392333984375
1738772459965020400,3.2210205078125,-0.0420074462890625,-0.9987335205078125,-0.0002593994140625
1738772459975011300,3.23101123046875,-0.0436248779296875,-0.9991912841796875,0.0002593994140625
1738772459985002200,3.241002197265625,-0.0449981689453125,-1.00042724609375,0.0010223388671875
1738772459994994400,3.250994384765625,-0.045745849609375,-0.99951171875,-0.0017547607421875
1738772460004985300,3.2609853515625,-0.0457305908203125,-0.9994049072265625,-0.0001373291015625
1738772460014976300,3.270976318359375,-0.045745849609375,-0.999176025390625,-0.0000152587890625
1738772460024967400,3.280967529296875,-0.045654296875,-0.9984588623046875,-0.0012664794921875
1738772460034958300,3.290958251953125,-0.0441741943359375,-0.998931884765625,-0.0005035400390625
1738772460044950500,3.300950439453125,-0.0429229736328125,-0.999176025390625,-0.0017852783203125
1738772460054941400,3.31094140625,-0.0434112548828125,-0.999664306640625,0.0001373291015625
1738772460064932400,3.320932373046875,-0.04315185546875,-0.999359130859375,-0.000885009765625
1738772460074923300,3.33092333984375,-0.0435943603515625,-0.9978790283203125,-0.0003662109375
1738772460084914400,3.34091455078125,-0.0462493896484375,-0.9991912841796875,-0.0011138916015625
1738772460094906400,3.35090625,-0.0457000732421875,-0.99969482421875,-0.0005035400390625
1738772460104897300,3.360897216796875,-0.0467529296875,-0.9991455078125,-0.0002593994140625
1738772460114888400,3.370888427734375,-0.045684814453125,-0.9992218017578125,-0.0009613037109375
1738772460124879400,3.38087939453125,-0.0440216064453125,-0.998779296875,-0.0005340576171875
1738772460134871600,3.39087158203125,-0.0435333251953125,-0.99835205078125,-0.00048828125
1738772460144862500,3.400862548828125,-0.0435333251953125,-0.9993896484375,0.0008392333984375
1738772460154853400,3.410853271484375,-0.0435028076171875,-0.9986114501953125,-0.0001068115234375
1738772460164844300,3.42084423828125,-0.04345703125,-0.999542236328125,-0.00091552734375
1738772460174835500,3.43083544921875,-0.0443267822265625,-0.99932861328125,0.000091552734375
1738772460184827400,3.440827392578125,-0.0447998046875,-0.9996185302734375,-0.0000762939453125
1738772460194818600,3.450818603515625,-0.0458831787109375,-0.99908447265625,-0.0001983642578125
1738772460204809500,3.4608095703125,-0.0462799072265625,-0.9994354248046875,0.0014190673828125
1738772460214800400,3.47080029296875,-0.0446319580078125,-0.9986572265625,-0.000091552734375
1738772460224791300,3.480791259765625,-0.0435028076171875,-0.99798583984375,-0.0022735595703125
1738772460234783500,3.490783447265625,-0.0428314208984375,-0.99932861328125,-0.000457763671875
1738772460244774400,3.5007744140625,-0.04229736328125,-0.9989166259765625,-0.000701904296875
1738772460254765300,3.510765380859375,-0.0437164306640625,-0.9982452392578125,-0.000030517578125
1738772460264756500,3.520756591796875,-0.0460357666015625,-0.9982757568359375,-0.000701904296875
1738772460274747400,3.530747314453125,-0.0463409423828125,-0.998382568359375,-0.0001983642578125
1738772460284739600,3.540739501953125,-0.0460205078125,-0.998626708984375,0.0001678466796875
1738772460294730500,3.55073046875,-0.0427703857421875,-1.000823974609375,-0.001007080078125
1738772460304721400,3.560721435546875,-0.0431976318359375,-0.999114990234375,-0.000823974609375
1738772460314712300,3.57071240234375,-0.043121337890625,-0.9975433349609375,-0.0005645751953125
1738772460324705000,3.580705078125,-0.0435333251953125,-0.9995269775390625,-0.000518798828125
1738772460334696000,3.590696044921875,-0.044891357421875,-0.9994659423828125,0.000885009765625
1738772460344687000,3.60068701171875,-0.0439300537109375,-0.999481201171875,0.0005340576171875
1738772460354678300,3.61067822265625,-0.0449676513671875,-0.999664306640625,-0.0002899169921875
1738772460364669200,3.620669189453125,-0.04571533203125,-1.0001220703125,0.0003662109375
1738772460374660900,3.630660888671875,-0.045440673828125,-0.998931884765625,-0.0000457763671875
1738772460384652000,3.640652099609375,-0.042633056640625,-0.9998626708984375,0.000457763671875
1738772460394643000,3.650642822265625,-0.042327880859375,-0.99957275390625,-0.000213623046875
1738772460404634000,3.660634033203125,-0.04248046875,-0.99951171875,-0.00128173828125
1738772460414625300,3.670625244140625,-0.0438232421875,-0.9993133544921875,0.0005340576171875
1738772460424617000,3.680616943359375,-0.0443878173828125,-0.9992218017578125,-0.000640869140625
1738772460434607900,3.69060791015625,-0.0444183349609375,-0.998382568359375,-0.0008544921875
1738772460444599000,3.70059912109375,-0.0452423095703125,-0.9990997314453125,0.000244140625
1738772460454590200,3.710590087890625,-0.04510498046875,-0.9990234375,-0.0009307861328125
1738772460464581000,3.7205810546875,-0.04473876953125,-0.9991455078125,-0.0004730224609375
1738772460474573000,3.730572998046875,-0.0448150634765625,-0.9985504150390625,-0.0019683837890625
1738772460484564000,3.74056396484375,-0.0430908203125,-0.999755859375,-0.000335693359375
1738772460494555000,3.750554931640625,-0.0424041748046875,-0.9991607666015625,-0.0004425048828125
1738772460504546000,3.760546142578125,-0.0431976318359375,-0.998779296875,-0.001434326171875
1738772460514537200,3.770537109375,-0.0442962646484375,-0.998382568359375,-0.000396728515625
1738772460524529000,3.78052880859375,-0.0452423095703125,-0.9987945556640625,-0.0012664794921875
1738772460534520000,3.79052001953125,-0.0449371337890625,-0.999359130859375,-0.0013580322265625
1738772460544511000,3.800510986328125,-0.0457000732421875,-0.998779296875,0.0006256103515625
1738772460554502000,3.810501953125,-0.0446929931640625,-0.99908447265625,0.0001678466796875
1738772460564493000,3.8204931640625,-0.04559326171875,-0.999176025390625,-0.00164794921875
1738772460574485000,3.830485107421875,-0.04443359375,-0.99884033203125,-0.000579833984375
1738772460584476000,3.840475830078125,-0.0431671142578125,-0.9990234375,-0.0005035400390625
1738772460594467000,3.850467041015625,-0.0433502197265625,-1.00054931640625,-0.0014801025390625
1738772460604458000,3.8604580078125,-0.0446929931640625,-0.9985198974609375,-0.000091552734375
1738772460614450000,3.870449951171875,-0.043670654296875,-0.9992218017578125,-0.001220703125
1738772460624441000,3.880441162109375,-0.0457611083984375,-1.0001373291015625,-0.0003509521484375
1738772460634432000,3.890431884765625,-0.046295166015625,-0.9998779296875,0.0001373291015625
1738772460644423000,3.9004228515625,-0.0453033447265625,-0.9991607666015625,0.000091552734375
1738772460654414000,3.9104140625,-0.0453033447265625,-0.999755859375,-0.0011749267578125
1738772460664406000,3.920406005859375,-0.0433502197265625,-0.9991912841796875,-0.000732421875
1738772460674397000,3.93039697265625,-0.04290771484375,-0.999359130859375,0.0001220703125
1738772460688135200,3.94413525390625,-0.042999267578125,-1.000152587890625,-0.0000152587890625
1738772460698126000,3.9541259765625,-0.042999267578125,-0.9986724853515625,0.0000457763671875
1738772460708117000,3.964116943359375,-0.0450897216796875,-1.0001373291015625,-0.000457763671875
1738772460718109200,3.974109130859375,-0.046051025390625,-1.0003204345703125,0.000762939453125
1738772460728100000,3.98410009765625,-0.04510498046875,-0.999542236328125,0.0000457763671875
1738772460738091000,3.994091064453125,-0.046112060546875,-0.9994659423828125,-0.0009002685546875
1738772460748082200,4.004082275390625,-0.0459747314453125,-0.9998016357421875,-0.000244140625
1738772460758073000,4.014072998046875,-0.043548583984375,-0.9997711181640625,-0.0010528564453125
1738772460768065000,4.02406494140625,-0.0452423095703125,-0.9980926513671875,-0.001495361328125
1738772460778056200,4.03405615234375,-0.04376220703125,-1.000335693359375,-0.0010986328125
1738772460788047000,4.044047119140625,-0.0439300537109375,-0.999420166015625,-0.0015716552734375
1738772460798038000,4.0540380859375,-0.0453033447265625,-0.9997100830078125,-0.0012359619140625
1738772460808029200,4.064029296875,-0.044158935546875,-0.9989013671875,-0.0003814697265625
1738772460818021000,4.074021240234375,-0.0442657470703125,-0.99847412109375,0.0009307861328125
1738772460828012000,4.084011962890625,-0.0443878173828125,-0.9981842041015625,-0.0002899169921875
1738772460838003200,4.094003173828125,-0.04486083984375,-0.9993743896484375,-0.00103759765625
1738772460847994000,4.103994140625,-0.0445098876953125,-0.9995269775390625,-0.0008087158203125
1738772460857985000,4.113985107421875,-0.044036865234375,-0.999481201171875,0.0006866455078125
1738772460867977200,4.123977294921875,-0.0446014404296875,-1,0.001007080078125
1738772460877968100,4.133968017578125,-0.0444793701171875,-0.9985809326171875,-0.0001678466796875
1738772460887959000,4.143958984375,-0.04400634765625,-0.9989166259765625,-0.000152587890625
1738772460897950200,4.1539501953125,-0.0433807373046875,-0.998046875,-0.0011444091796875
1738772460907941000,4.163941162109375,-0.0438232421875,-0.999114990234375,-0.001739501953125
1738772460917933000,4.17393310546875,-0.0437774658203125,-0.9993896484375,0.000030517578125
1738772460927924200,4.18392431640625,-0.043426513671875,-0.9993438720703125,-0.0005035400390625
1738772460937915100,4.1939150390625,-0.04510498046875,-0.9997100830078125,0.0009613037109375
1738772460947906000,4.203906005859375,-0.0460357666015625,-1.0005035400390625,0.0006866455078125
1738772460957897200,4.213897216796875,-0.0459747314453125,-0.9980316162109375,-0.0004119873046875
1738772460967889200,4.22388916015625,-0.0427703857421875,-0.9990997314453125,-0.00067138671875
1738772460977880000,4.233880126953125,-0.044097900390625,-0.999359130859375,-0.000335693359375
1738772460987871200,4.243871337890625,-0.042572021484375,-1,0.000579833984375
1738772460997862100,4.253862060546875,-0.042083740234375,-1.0002593994140625,-0.00018310546875
1738772461007853000,4.26385302734375,-0.042938232421875,-0.99884033203125,0.000701904296875
1738772461017845200,4.27384521484375,-0.0427398681640625,-0.99847412109375,-0.0015716552734375
1738772461027836200,4.283836181640625,-0.045745849609375,-0.998016357421875,0.0000457763671875
1738772461037827000,4.2938271484375,-0.0460968017578125,-0.998687744140625,0.00054931640625
1738772461047818200,4.303818359375,-0.04669189453125,-0.998779296875,-0.001007080078125
1738772461057810200,4.31381005859375,-0.0447540283203125,-0.9996490478515625,-0.0004119873046875
1738772461067801000,4.323801025390625,-0.043853759765625,-1.000030517578125,-0.0000152587890625
1738772461077792300,4.333792236328125,-0.04339599609375,-0.999420166015625,-0.000579833984375
1738772461087783200,4.343783203125,-0.041015625,-0.9989776611328125,0.000396728515625
1738772461097774000,4.353774169921875,-0.041412353515625,-0.9983367919921875,0.0001068115234375
1738772461107766300,4.363766357421875,-0.0430755615234375,-0.9987640380859375,-0.000732421875
1738772461117757200,4.373757080078125,-0.046722412109375,-0.998504638671875,-0.00067138671875
1738772461127748000,4.383748046875,-0.046051025390625,-0.9989776611328125,-0.0018157958984375
1738772461137739300,4.3937392578125,-0.0417327880859375,-0.999725341796875,-0.0027313232421875
1738772461147730200,4.403730224609375,-0.041900634765625,-1.0002288818359375,0.0024566650390625
1738772461157722000,4.41372216796875,-0.0446624755859375,-0.9999542236328125,0.001373291015625
1738772461167713300,4.42371337890625,-0.0462799072265625,-0.999542236328125,-0.0032958984375
1738772461177704200,4.4337041015625,-0.049163818359375,-0.9990081787109375,0.0000152587890625
1738772461187695000,4.443695068359375,-0.04949951171875,-0.9991912841796875,-0.0023040771484375
1738772461197686300,4.453686279296875,-0.0437164306640625,-0.99908447265625,-0.0002899169921875
1738772461207678000,4.463677978515625,-0.041015625,-0.998443603515625,0.00341796875
1738772461217669000,4.473669189453125,-0.0396575927734375,-0.998779296875,-0.001678466796875
1738772461227660300,4.483660400390625,-0.039886474609375,-1.00048828125,-0.0062255859375
1738772461237651200,4.493651123046875,-0.0413360595703125,-0.998870849609375,0.0013275146484375
1738772461247642000,4.50364208984375,-0.0428314208984375,-0.9989776611328125,0.0030670166015625
1738772461257634000,4.513634033203125,-0.0458831787109375,-0.99993896484375,-0.002838134765625
1738772461267625200,4.523625244140625,-0.0512847900390625,-0.9987945556640625,0.003082275390625
1738772461277616000,4.5336162109375,-0.05181884765625,-0.99810791015625,0.0003204345703125
1738772461287607300,4.543607177734375,-0.04669189453125,-0.998321533203125,-0.0054931640625
1738772461297598200,4.55359814453125,-0.0428924560546875,-0.9990081787109375,-0.000640869140625
1738772461307590000,4.56358984375,-0.0412139892578125,-1.000885009765625,-0.0010833740234375
1738772461317581000,4.5735810546875,-0.04083251953125,-0.999267578125,-0.000823974609375
1738772461327572200,4.583572265625,-0.0404205322265625,-0.999755859375,0.0016326904296875
1738772461337563400,4.5935634765625,-0.0405731201171875,-0.998077392578125,-0.001007080078125
1738772461347555000,4.60355517578125,-0.042755126953125,-0.9985504150390625,-0.0009918212890625
1738772461357546200,4.613546142578125,-0.0457000732421875,-0.9994659423828125,0.00311279296875
1738772461367537200,4.623537109375,-0.04736328125,-0.9987335205078125,-0.001373291015625
1738772461377528000,4.633528076171875,-0.0493621826171875,-0.99884033203125,-0.00225830078125
1738772461387519200,4.643519287109375,-0.0479278564453125,-0.9985809326171875,-0.001220703125
1738772461397511200,4.65351123046875,-0.043670654296875,-0.998046875,0.0002899169921875
1738772461407502000,4.663502197265625,-0.0420989990234375,-0.9996337890625,0.0016937255859375
1738772461417493200,4.6734931640625,-0.040313720703125,-0.999237060546875,-0.00054931640625
1738772461427484200,4.683484130859375,-0.0415191650390625,-0.999359130859375,-0.0012054443359375
1738772461437475300,4.693475341796875,-0.040374755859375,-1.0001983642578125,-0.0006103515625
1738772461447467300,4.70346728515625,-0.041290283203125,-0.9996795654296875,-0.0003814697265625
1738772461457458200,4.713458251953125,-0.0452880859375,-0.998504638671875,-0.0003509521484375
1738772461467449000,4.723448974609375,-0.047576904296875,-0.9995880126953125,-0.0001068115234375
1738772461477440300,4.733440185546875,-0.04779052734375,-1.000213623046875,-0.0015869140625
1738772461487431200,4.74343115234375,-0.047698974609375,-0.99993896484375,0.000274658203125
1738772461497423000,4.753423095703125,-0.0468902587890625,-0.998931884765625,0.001434326171875
1738772461507414300,4.763414306640625,-0.04522705078125,-0.99896240234375,-0.000732421875
1738772461517405200,4.7734052734375,-0.0429840087890625,-0.998870849609375,-0.001251220703125
1738772461527396000,4.78339599609375,-0.0403289794921875,-0.99951171875,-0.0023040771484375
1738772461537387300,4.79338720703125,-0.0406646728515625,-0.99871826171875,-0.00140380859375
1738772461547379200,4.803379150390625,-0.040863037109375,-0.9996490478515625,0.00164794921875
1738772461557370000,4.8133701171875,-0.04229736328125,-0.9990386962890625,-0.000213623046875
1738772461567361300,4.823361328125,-0.0460968017578125,-0.9999542236328125,-0.0013275146484375
1738772461577352200,4.833352294921875,-0.048126220703125,-0.9988555908203125,-0.0001983642578125
1738772461587344100,4.84334423828125,-0.0503082275390625,-0.99951171875,-0.0009918212890625
1738772461597335300,4.853335205078125,-0.0488128662109375,-0.9985809326171875,-0.0003509521484375
1738772461607326200,4.863326171875,-0.0455169677734375,-0.9990234375,-0.0002899169921875
1738772461617317000,4.873317138671875,-0.0417022705078125,-0.9996795654296875,-0.001312255859375
1738772461627308300,4.883308349609375,-0.040374755859375,-0.99969482421875,-0.00164794921875
1738772461637300200,4.89330029296875,-0.04022216796875,-0.9992218017578125,0.0013885498046875
1738772461647291100,4.903291015625,-0.0412139892578125,-1.0001373291015625,0.0003509521484375
1738772461657282300,4.9132822265625,-0.0424041748046875,-0.99908447265625,-0.000640869140625
1738772461667273200,4.923273193359375,-0.045257568359375,-0.99969482421875,-0.0021209716796875
1738772461677264100,4.93326416015625,-0.0485382080078125,-0.9991607666015625,-0.0016937255859375
1738772461687256300,4.94325634765625,-0.050811767578125,-0.9991607666015625,-0.001434326171875
1738772461697247200,4.953247314453125,-0.0477294921875,-0.99774169921875,0.000152587890625
1738772461707238100,4.963238037109375,-0.0457305908203125,-0.9991302490234375,-0.0016937255859375
1738772461717229300,4.973229248046875,-0.042388916015625,-0.999267578125,-0.0009765625
1738772461727220200,4.98322021484375,-0.0402679443359375,-0.997894287109375,-0.0002593994140625
1738772461737212200,4.993212158203125,-0.038299560546875,-0.999053955078125,0.0005950927734375
1738772461747203300,5.003203369140625,-0.0403289794921875,-0.9990081787109375,-0.0001068115234375
1738772461757194200,5.0131943359375,-0.0422821044921875,-0.9992218017578125,-0.000213623046875
1738772461767185200,5.02318505859375,-0.0442352294921875,-0.99884033203125,0.0006866455078125
1738772461777176000,5.033176025390625,-0.0471954345703125,-0.9991607666015625,-0.0003509521484375
1738772461787168300,5.043168212890625,-0.0488128662109375,-0.99920654296875,-0.00067138671875
1738772461797159200,5.0531591796875,-0.0485076904296875,-1.0000152587890625,-0.00006103515625
1738772461807150300,5.063150390625,-0.044403076171875,-0.999786376953125,-0.0016021728515625
1738772461817141200,5.073141357421875,-0.042022705078125,-0.9997100830078125,-0.0013885498046875
1738772461827132200,5.083132080078125,-0.0421142578125,-0.9989013671875,-0.00030517578125
1738772461837124400,5.093124267578125,-0.0408782958984375,-0.9995880126953125,-0.000030517578125
1738772461847115300,5.103115234375,-0.0412445068359375,-0.9986114501953125,-0.001495361328125
1738772461857106200,5.113106201171875,-0.0429840087890625,-0.99993896484375,-0.000518798828125
1738772461867097000,5.12309716796875,-0.0430450439453125,-0.999237060546875,0.00030517578125
1738772461877088300,5.133088134765625,-0.046112060546875,-0.999908447265625,0.000701904296875
1738772461887080200,5.143080078125,-0.0475921630859375,-0.9993438720703125,0.000518798828125
1738772461897071400,5.1530712890625,-0.047607421875,-1.0001068115234375,-0.000335693359375
1738772461907062300,5.163062255859375,-0.046295166015625,-0.9991607666015625,-0.0008697509765625
1738772461917053200,5.17305322265625,-0.0434722900390625,-0.9990081787109375,-0.0005035400390625
1738772461927045400,5.18304541015625,-0.042510986328125,-0.9990234375,0.00048828125
1738772461937036300,5.193036376953125,-0.0422210693359375,-1.000244140625,-0.0006256103515625
1738772461947027200,5.203027099609375,-0.042205810546875,-0.9988250732421875,-0.0008697509765625
1738772461957018000,5.21301806640625,-0.0429534912109375,-0.9996185302734375,-0.0000152587890625
1738772461967009300,5.22300927734375,-0.0446624755859375,-1.000030517578125,0.0006866455078125
1738772461977001200,5.233001220703125,-0.0455780029296875,-1.0002899169921875,-0.0008087158203125
1738772461986992400,5.242992431640625,-0.046173095703125,-0.9995880126953125,-0.0010833740234375
1738772461996983300,5.2529833984375,-0.0460662841796875,-0.9999847412109375,-0.0012664794921875
1738772462006974200,5.26297412109375,-0.045562744140625,-0.99957275390625,-0.0011444091796875
1738772462016965000,5.272965087890625,-0.044189453125,-0.9996337890625,0.001129150390625
1738772462026957300,5.282957275390625,-0.04144287109375,-0.999847412109375,-0.0014495849609375
1738772462036948200,5.2929482421875,-0.042449951171875,-0.999420166015625,-0.0002899169921875
1738772462046939400,5.302939453125,-0.0435638427734375,-0.99932861328125,-0.001617431640625
1738772462056930300,5.312930419921875,-0.04510498046875,-0.99993896484375,0.0000457763671875
1738772462066921200,5.322921142578125,-0.0449676513671875,-0.999237060546875,0.0001220703125
1738772462076913400,5.332913330078125,-0.0438232421875,-0.9995574951171875,-0.001129150390625
1738772462086904300,5.342904296875,-0.04461669921875,-1.0002593994140625,-0.00103759765625
1738772462096895200,5.352895263671875,-0.0448760986328125,-0.999114990234375,-0.00042724609375
1738772462106886100,5.36288623046875,-0.0430145263671875,-0.9997100830078125,0.0004730224609375
1738772462116877300,5.372877197265625,-0.043853759765625,-0.99774169921875,-0.000335693359375
1738772462126869200,5.382869140625,-0.04376220703125,-0.999267578125,-0.00128173828125
1738772462136860400,5.3928603515625,-0.0431060791015625,-0.9996490478515625,0.0004730224609375
1738772462146851300,5.402851318359375,-0.0430755615234375,-0.999755859375,-0.0012664794921875
1738772462156842200,5.41284228515625,-0.04522705078125,-0.9986724853515625,-0.0004119873046875
1738772462166833200,5.422833251953125,-0.04364013671875,-0.9993896484375,-0.0010223388671875
1738772462176825300,5.432825439453125,-0.0437774658203125,-0.999298095703125,-0.001373291015625
1738772462186816300,5.442816162109375,-0.0437469482421875,-0.9987030029296875,-0.00079345703125
1738772462196807200,5.45280712890625,-0.043365478515625,-0.998748779296875,0.000396728515625
1738772462206798300,5.46279833984375,-0.0450897216796875,-0.998809814453125,-0.0001373291015625
1738772462216789200,5.472789306640625,-0.045074462890625,-0.998504638671875,0.000762939453125
1738772462226781400,5.482781494140625,-0.0449981689453125,-0.99871826171875,-0.0008087158203125
1738772462236772400,5.4927724609375,-0.044219970703125,-0.9993896484375,-0.0007781982421875
1738772462246763300,5.50276318359375,-0.04345703125,-0.9997711181640625,0.0003509521484375
1738772462256754200,5.512754150390625,-0.04400634765625,-0.999847412109375,-0.0001678466796875
1738772462266745300,5.522745361328125,-0.0447998046875,-0.9998016357421875,0.00018310546875
1738772462276737300,5.5327373046875,-0.04437255859375,-0.9991455078125,-0.00128173828125
1738772462286728200,5.542728271484375,-0.0428619384765625,-0.9996795654296875,-0.00091552734375
1738772462296719400,5.55271923828125,-0.0450592041015625,-0.99957275390625,0.0006256103515625
1738772462306710300,5.562710205078125,-0.0442962646484375,-0.9995269775390625,-0.00103759765625
1738772462316701200,5.572701171875,-0.045196533203125,-0.99981689453125,-0.00030517578125
1738772462326692900,5.58269287109375,-0.04461669921875,-0.9980621337890625,-0.0003204345703125
1738772462336683800,5.592683837890625,-0.0438690185546875,-1.00054931640625,0.0001068115234375
1738772462346674700,5.6026748046875,-0.0447540283203125,-0.998931884765625,0.0002288818359375
1738772462356665900,5.612665771484375,-0.04290771484375,-0.998992919921875,0.0002288818359375
1738772462366656800,5.62265673828125,-0.0434112548828125,-0.9991912841796875,-0.0000762939453125
1738772462376648700,5.632648681640625,-0.0439300537109375,-0.9992523193359375,-0.0012359619140625
1738772462386640000,5.642639892578125,-0.044525146484375,-0.9981842041015625,-0.0005645751953125
1738772462396630800,5.652630859375,-0.0419158935546875,-1.0001373291015625,-0.0009765625
1738772462406621700,5.66262158203125,-0.0452880859375,-1.0000152587890625,-0.0009765625
1738772462416612900,5.67261279296875,-0.04473876953125,-0.9995574951171875,-0.0010528564453125
1738772462426604800,5.682604736328125,-0.0449676513671875,-0.9985504150390625,-0.0003204345703125
1738772462436595700,5.692595703125,-0.044921875,-0.99822998046875,-0.001190185546875
1738772462446587000,5.7025869140625,-0.04595947265625,-0.9994964599609375,0.000030517578125
1738772462456577800,5.712577880859375,-0.0452880859375,-0.9993133544921875,-0.00048828125
1738772462466568700,5.722568603515625,-0.0442962646484375,-0.998687744140625,-0.0011444091796875
1738772462476561000,5.732560791015625,-0.0435943603515625,-0.999908447265625,0.000701904296875
1738772462486551800,5.7425517578125,-0.0428924560546875,-1.000579833984375,-0.0014801025390625
1738772462496542700,5.752542724609375,-0.0433349609375,-0.9992828369140625,0.0001373291015625
1738772462506534000,5.762533935546875,-0.0423736572265625,-0.999603271484375,-0.0007476806640625
1738772462516524800,5.77252490234375,-0.044403076171875,-0.999053955078125,-0.000732421875
1738772462526516700,5.782516845703125,-0.0459442138671875,-0.99835205078125,0.00018310546875
1738772462536508000,5.7925078125,-0.0462799072265625,-0.999847412109375,-0.00128173828125
1738772462546498800,5.802498779296875,-0.0452880859375,-1.0000762939453125,-0.00103759765625
1738772462556489700,5.81248974609375,-0.04473876953125,-0.999542236328125,-0.000762939453125
1738772462566480600,5.822480712890625,-0.0436859130859375,-0.9990234375,-0.0006866455078125
1738772462576472800,5.832472900390625,-0.0440521240234375,-0.99993896484375,0.000457763671875
1738772462586463700,5.842463623046875,-0.043701171875,-0.998748779296875,-0.00054931640625
1738772462596455000,5.852454833984375,-0.043548583984375,-0.9999237060546875,-0.000457763671875
1738772462606445800,5.86244580078125,-0.0446014404296875,-0.9992218017578125,0.0000762939453125
1738772462616436700,5.872436767578125,-0.045196533203125,-1.0000762939453125,-0.0002593994140625
1738772462626429000,5.882428955078125,-0.0457000732421875,-0.9988250732421875,-0.0004425048828125
1738772462636419800,5.892419921875,-0.0454254150390625,-0.999420166015625,0.000244140625
1738772462646410800,5.90241064453125,-0.04510498046875,-0.99957275390625,-0.0008087158203125
1738772462656402000,5.91240185546875,-0.0436859130859375,-1,-0.0006103515625
1738772462666392800,5.922392822265625,-0.0439910888671875,-0.9986419677734375,0.000274658203125
1738772462676384800,5.932384765625,-0.0439605712890625,-0.9994354248046875,0.0001983642578125
1738772462686376000,5.9423759765625,-0.044647216796875,-0.9989013671875,-0.000091552734375
1738772462696366800,5.952366943359375,-0.0444793701171875,-0.999847412109375,0.000640869140625
1738772462706357800,5.962357666015625,-0.0456390380859375,-0.9981536865234375,-0.00103759765625
1738772462716348700,5.9723486328125,-0.0444793701171875,-0.998870849609375,0.0002899169921875
1738772462726340900,5.9823408203125,-0.046234130859375,-1.000335693359375,0.0002899169921875
1738772462736331800,5.992331787109375,-0.0437774658203125,-0.998443603515625,-0.0014801025390625
1738772462746323000,6.002322998046875,-0.0438995361328125,-1.0001220703125,-0.000518798828125
1738772462756313900,6.01231396484375,-0.04498291015625,-1.0006866455078125,0.000732421875
1738772462766304800,6.0223046875,-0.0445404052734375,-0.999755859375,-0.000152587890625
1738772462776297000,6.032296875,-0.044036865234375,-0.9995574951171875,-0.0018310546875
1738772462786287900,6.042287841796875,-0.0417938232421875,-0.9976959228515625,-0.0015411376953125
1738772462796278800,6.05227880859375,-0.0434112548828125,-0.9988250732421875,-0.0002288818359375
1738772462806269700,6.062269775390625,-0.04412841796875,-0.9987640380859375,-0.00103759765625
1738772462816260900,6.0722607421875,-0.0437469482421875,-0.9995574951171875,-0.0007781982421875
1738772462826252800,6.082252685546875,-0.0458526611328125,-0.999481201171875,0.0001373291015625
1738772462836244000,6.092243896484375,-0.046478271484375,-0.9993133544921875,-0.0001220703125
1738772462846235000,6.10223486328125,-0.0452423095703125,-0.9987335205078125,-0.0013427734375
1738772462856225800,6.112225830078125,-0.04400634765625,-0.9989166259765625,-0.000732421875
1738772462866216700,6.122216796875,-0.0435638427734375,-1.0000762939453125,-0.0009765625
1738772462876209000,6.132208984375,-0.0433197021484375,-0.998626708984375,0.000396728515625
1738772462886199800,6.14219970703125,-0.0438232421875,-1.00018310546875,0.000213623046875
1738772462896190700,6.152190673828125,-0.0439453125,-1.000030517578125,-0.001922607421875
1738772462906182000,6.162181884765625,-0.04534912109375,-0.999298095703125,-0.000335693359375
1738772462916172800,6.1721728515625,-0.046112060546875,-0.9991912841796875,-0.00054931640625
1738772462926165000,6.1821650390625,-0.0462799072265625,-0.9993133544921875,0.000091552734375
1738772462936156000,6.192156005859375,-0.045501708984375,-0.9995574951171875,-0.000701904296875
1738772462946146800,6.202146728515625,-0.0444183349609375,-0.9994659423828125,-0.00042724609375
1738772462956137700,6.2121376953125,-0.044036865234375,-0.9992523193359375,0.00067138671875
1738772462966129000,6.22212890625,-0.04315185546875,-0.99957275390625,0.000213623046875
1738772462976120800,6.232120849609375,-0.0431671142578125,-0.9989471435546875,-0.0008087158203125
1738772462986111700,6.24211181640625,-0.044097900390625,-0.9996795654296875,-0.0004425048828125
1738772462996103000,6.25210302734375,-0.0446624755859375,-0.99951171875,0.0000457763671875
1738772463006093800,6.26209375,-0.044036865234375,-0.998779296875,-0.0010833740234375
1738772463016084700,6.272084716796875,-0.0442962646484375,-0.9999847412109375,0.0001373291015625
1738772463026076700,6.28207666015625,-0.0434112548828125,-0.9997711181640625,-0.0006256103515625
1738772463036067800,6.29206787109375,-0.0441741943359375,-0.998626708984375,-0.0002899169921875
1738772463046058800,6.302058837890625,-0.0435943603515625,-0.9988250732421875,0.00048828125
1738772463056050000,6.3120498046875,-0.04522705078125,-0.999420166015625,-0.000732421875
1738772463066040800,6.322040771484375,-0.0435943603515625,-0.9991302490234375,0.000244140625
1738772463076032500,6.332032470703125,-0.0426788330078125,-0.9991607666015625,0.000457763671875
1738772463086023700,6.342023681640625,-0.0443115234375,-0.9993438720703125,-0.00018310546875
1738772463096014800,6.352014892578125,-0.0451812744140625,-0.998565673828125,-0.0010833740234375
1738772463106005800,6.362005859375,-0.0445098876953125,-0.99981689453125,0
1738772463115997000,6.371996826171875,-0.043487548828125,-0.9994049072265625,-0.0005035400390625
1738772463125988600,6.381988525390625,-0.04193115234375,-0.99951171875,0.0002288818359375
1738772463135979800,6.391979736328125,-0.0432281494140625,-0.999969482421875,0.00091552734375
1738772463145971000,6.401970947265625,-0.0441741943359375,-0.998809814453125,-0.0018310546875
1738772463155961900,6.4119619140625,-0.0444793701171875,-0.9999847412109375,-0.0002593994140625
1738772463165952800,6.421952880859375,-0.0442657470703125,-0.99859619140625,0.00079345703125
1738772463175944700,6.43194482421875,-0.0446624755859375,-0.9988250732421875,-0.0002288818359375
1738772463185935600,6.441935546875,-0.0460052490234375,-0.9986419677734375,0.0005950927734375
1738772463195926800,6.4519267578125,-0.043212890625,-0.9999847412109375,-0.001190185546875
1738772463205918000,6.46191796875,-0.04376220703125,-0.9975738525390625,-0.00067138671875
1738772463215908900,6.471908935546875,-0.0446014404296875,-0.999847412109375,-0.00091552734375
1738772463225900500,6.481900634765625,-0.0457000732421875,-1.000274658203125,0.00030517578125
1738772463235891700,6.4918916015625,-0.0462188720703125,-0.9978790283203125,0.0013427734375
1738772463245882600,6.501882568359375,-0.0451812744140625,-0.99981689453125,-0.00128173828125
1738772463255873800,6.511873779296875,-0.0442657470703125,-0.9987030029296875,-0.00018310546875
1738772463265865000,6.521864990234375,-0.0443267822265625,-0.9990081787109375,0.00018310546875
1738772463275856600,6.531856689453125,-0.0439300537109375,-0.9993133544921875,-0.0009002685546875
1738772463285847600,6.54184765625,-0.043548583984375,-0.997833251953125,0.000152587890625
1738772463295838700,6.551838623046875,-0.045135498046875,-0.9978790283203125,0.00048828125
1738772463305830000,6.561829833984375,-0.0441131591796875,-0.9990997314453125,-0.000762939453125
1738772463315820800,6.57182080078125,-0.0428619384765625,-0.999114990234375,-0.0007781982421875
1738772463325812200,6.581812255859375,-0.044952392578125,-0.99798583984375,-0.0008392333984375
1738772463335803400,6.591803466796875,-0.045135498046875,-0.9990386962890625,-0.0013580322265625
1738772463345794600,6.601794677734375,-0.0451507568359375,-0.999725341796875,-0.0024261474609375
1738772463355785500,6.611785400390625,-0.045074462890625,-1.000274658203125,-0.000213623046875
1738772463365776400,6.6217763671875,-0.0453338623046875,-0.999603271484375,-0.0004730224609375
1738772463375768300,6.631768310546875,-0.04376220703125,-1.000244140625,-0.0009307861328125
1738772463385759200,6.64175927734375,-0.0435638427734375,-0.9994354248046875,0.000335693359375
1738772463395750400,6.65175048828125,-0.0427093505859375,-0.9995880126953125,-0.001251220703125
1738772463405741600,6.661741455078125,-0.0445404052734375,-1.0001220703125,-0.0012969970703125
1738772463415732500,6.671732421875,-0.0455322265625,-0.9994354248046875,-0.000701904296875
1738772463425724200,6.68172412109375,-0.045135498046875,-0.9986419677734375,-0.0000762939453125
1738772463435715300,6.69171533203125,-0.043975830078125,-0.998199462890625,0.0005035400390625
1738772463445706200,6.701706298828125,-0.0446319580078125,-0.9996795654296875,-0.0017852783203125
1738772463455697400,6.711697509765625,-0.04449462890625,-0.9995880126953125,-0.0014801025390625
1738772463465688600,6.7216884765625,-0.0435791015625,-1.000091552734375,0.000518798828125
1738772463475680300,6.73168017578125,-0.0428466796875,-0.9998931884765625,0.0001068115234375
1738772463485671200,6.741671142578125,-0.043243408203125,-0.9993743896484375,-0.000274658203125
1738772463495662300,6.751662353515625,-0.0440826416015625,-0.9990692138671875,-0.0011749267578125
1738772463505653500,6.761653564453125,-0.045257568359375,-0.9996490478515625,0.0008544921875
1738772463515644400,6.77164453125,-0.046112060546875,-0.99896240234375,-0.0009918212890625
1738772463525636400,6.78163623046875,-0.0441131591796875,-0.9996490478515625,0.000335693359375
1738772463535627300,6.791627197265625,-0.043212890625,-0.998748779296875,-0.0001373291015625
1738772463545618200,6.8016181640625,-0.044036865234375,-0.9979705810546875,-0.0012664794921875
1738772463555609300,6.811609375,-0.043792724609375,-0.9991912841796875,0.0000762939453125
1738772463565600500,6.8216005859375,-0.0446929931640625,-0.9998931884765625,-0.0015716552734375
1738772463575592200,6.83159228515625,-0.0439453125,-0.9990997314453125,-0.000152587890625
1738772463585583400,6.841583251953125,-0.0426483154296875,-0.9991455078125,-0.0005035400390625
1738772463595574300,6.85157421875,-0.04412841796875,-0.9987030029296875,-0.0005035400390625
1738772463605565200,6.861565185546875,-0.04449462890625,-0.9999237060546875,-0.00115966796875
1738772463615556400,6.871556396484375,-0.0446624755859375,-1.000213623046875,-0.000335693359375
1738772463625548300,6.88154833984375,-0.043121337890625,-1,-0.001068115234375
1738772463635539200,6.891539306640625,-0.0428466796875,-0.9999847412109375,0.000885009765625
1738772463645530400,6.9015302734375,-0.04339599609375,-0.9989776611328125,-0.0002593994140625
1738772463655521300,6.911521240234375,-0.044189453125,-1.0001678466796875,-0.0008392333984375
1738772463665512400,6.921512451171875,-0.0443572998046875,-0.9997100830078125,-0.0005340576171875
1738772463675504400,6.93150439453125,-0.044281005859375,-0.998992919921875,-0.0002288818359375
1738772463685495300,6.941495361328125,-0.04449462890625,-0.998443603515625,-0.000030517578125
1738772463695486200,6.951486328125,-0.0439300537109375,-0.9991607666015625,-0.000701904296875
1738772463705477400,6.961477294921875,-0.04473876953125,-0.99908447265625,0
1738772463715468300,6.97146826171875,-0.044097900390625,-1.0003204345703125,-0.001617431640625
1738772463725460200,6.981460205078125,-0.04473876953125,-0.999969482421875,-0.000579833984375
1738772463735451400,6.991451416015625,-0.0439300537109375,-0.9996337890625,0.00006103515625
1738772463745442300,7.0014423828125,-0.0441741943359375,-0.99822998046875,0.000030517578125
1738772463755433200,7.01143310546875,-0.044921875,-0.9983062744140625,-0.000030517578125
1738772463765424400,7.02142431640625,-0.0435791015625,-0.99945068359375,-0.0008087158203125
1738772463775416300,7.031416259765625,-0.0434417724609375,-0.999053955078125,-0.0008087158203125
1738772463785407200,7.0414072265625,-0.043670654296875,-0.9997711181640625,-0.0020294189453125
1738772463795398400,7.0513984375,-0.043914794921875,-0.9989776611328125,-0.00006103515625
1738772463805389300,7.061389404296875,-0.0442657470703125,-1.0000762939453125,-0.000732421875
1738772463815380200,7.071380126953125,-0.04388427734375,-1.000152587890625,0.0013427734375
1738772463825372400,7.081372314453125,-0.045074462890625,-1.00042724609375,0.0014495849609375
1738772463835363300,7.09136328125,-0.0451507568359375,-0.9986572265625,0.0005035400390625
1738772463845354200,7.101354248046875,-0.0447540283203125,-0.9994354248046875,0.000091552734375
1738772463855345400,7.111345458984375,-0.044830322265625,-1.0004119873046875,-0.000762939453125
1738772463865336300,7.12133642578125,-0.04193115234375,-0.999603271484375,-0.00054931640625
1738772463875328300,7.131328369140625,-0.0453033447265625,-0.99951171875,-0.000518798828125
1738772463885319400,7.1413193359375,-0.044281005859375,-0.9989776611328125,-0.0011138916015625
1738772463895310300,7.151310302734375,-0.0447845458984375,-0.9996795654296875,0.000152587890625
1738772463905301200,7.16130126953125,-0.044677734375,-0.9987640380859375,0.0015716552734375
1738772463915292200,7.171292236328125,-0.043853759765625,-0.999542236328125,-0.001068115234375
1738772463925283300,7.181283447265625,-0.04412841796875,-0.9993438720703125,-0.000457763671875
1738772463935275300,7.191275146484375,-0.042938232421875,-0.998931884765625,-0.0007476806640625
1738772463945266400,7.201266357421875,-0.0432586669921875,-0.999053955078125,-0.000244140625
1738772463955257300,7.21125732421875,-0.044677734375,-0.9992218017578125,-0.000579833984375
1738772463965248300,7.221248291015625,-0.044158935546875,-0.9992828369140625,0.00048828125
1738772463975239200,7.2312392578125,-0.043304443359375,-0.998870849609375,0.000152587890625
1738772463985231400,7.2412314453125,-0.044219970703125,-0.9975738525390625,-0.0010833740234375
1738772463995222300,7.25122216796875,-0.0450286865234375,-0.99896240234375,-0.0012664794921875
1738772464005213200,7.261213134765625,-0.04425048828125,-0.99908447265625,-0.0010528564453125
1738772464015204400,7.271204345703125,-0.0455780029296875,-0.9998626708984375,0.0005035400390625
1738772464025195300,7.2811953125,-0.0454559326171875,-0.998870849609375,0.0002593994140625
1738772464035187500,7.2911875,-0.04364013671875,-0.9984893798828125,-0.0006866455078125
1738772464045178400,7.301178466796875,-0.0446624755859375,-0.9981231689453125,-0.0003204345703125
1738772464055169300,7.311169189453125,-0.044921875,-0.998748779296875,-0.001129150390625
1738772464065160200,7.32116015625,-0.0436248779296875,-0.9992523193359375,-0.0004425048828125
1738772464075151400,7.3311513671875,-0.04254150390625,-0.99969482421875,-0.0007476806640625
1738772464085143300,7.341143310546875,-0.0445556640625,-0.9981689453125,-0.002105712890625
1738772464095134500,7.351134521484375,-0.044464111328125,-0.9989013671875,-0.0015106201171875
1738772464105125400,7.36112548828125,-0.043701171875,-0.9990386962890625,0.0000457763671875
1738772464115116300,7.3711162109375,-0.0446319580078125,-0.999420166015625,0.000640869140625
1738772464125107200,7.381107177734375,-0.043182373046875,-0.9990692138671875,0.00018310546875
1738772464135099400,7.391099365234375,-0.0429229736328125,-1.00048828125,-0.0008392333984375
1738772464145090300,7.40109033203125,-0.0429840087890625,-0.9992218017578125,-0.000518798828125
1738772464155081200,7.411081298828125,-0.0435943603515625,-0.9989013671875,-0.000579833984375
1738772464165072400,7.421072265625,-0.0447540283203125,-0.999420166015625,-0.00079345703125
1738772464175063300,7.431063232421875,-0.0437164306640625,-0.9994659423828125,-0.000762939453125
1738772464185055500,7.441055419921875,-0.04425048828125,-0.9988250732421875,0.00042724609375
1738772464195046400,7.45104638671875,-0.0438995361328125,-0.9996795654296875,0.0005950927734375
1738772464205037300,7.461037353515625,-0.0439300537109375,-0.9998626708984375,-0.0003509521484375
1738772464215028200,7.4710283203125,-0.0438385009765625,-1.0000457763671875,-0.000762939453125
1738772464225019400,7.481019287109375,-0.0457611083984375,-0.998565673828125,-0.001434326171875
1738772464235011300,7.49101123046875,-0.04559326171875,-0.9999847412109375,-0.00042724609375
1738772464245002200,7.501002197265625,-0.0449066162109375,-1.0002899169921875,-0.0009307861328125
1738772464254993400,7.510993408203125,-0.043243408203125,-0.9990081787109375,-0.001495361328125
1738772464264984300,7.520984375,-0.044281005859375,-0.9989471435546875,-0.0006256103515625
1738772464274975200,7.530975341796875,-0.0448150634765625,-0.99853515625,-0.0007476806640625
1738772464284967400,7.540967529296875,-0.0446624755859375,-0.9990081787109375,0.00042724609375
1738772464294958300,7.550958251953125,-0.0431976318359375,-1.0005645751953125,-0.0006866455078125
1738772464304949200,7.56094921875,-0.0448150634765625,-0.9998626708984375,0.0002899169921875
1738772464314940400,7.5709404296875,-0.0432586669921875,-0.998077392578125,-0.001220703125
1738772464324932400,7.580932373046875,-0.0445098876953125,-0.9986572265625,0.000396728515625
1738772464334923300,7.59092333984375,-0.04608154296875,-0.9999542236328125,-0.0008392333984375
1738772464344915500,7.60091552734375,-0.0451507568359375,-0.9994964599609375,-0.0001068115234375
1738772464354906400,7.61090625,-0.0439605712890625,-0.998992919921875,-0.0011749267578125
1738772464364897300,7.620897216796875,-0.0449371337890625,-0.999603271484375,-0.000732421875
1738772464374888400,7.630888427734375,-0.04296875,-0.999481201171875,-0.0006561279296875
1738772464384879400,7.64087939453125,-0.0440673828125,-0.99859619140625,-0.0006103515625
1738772464394871300,7.650871337890625,-0.043792724609375,-0.9986419677734375,-0.000762939453125
1738772464404862500,7.660862548828125,-0.0443267822265625,-0.9986572265625,-0.0019683837890625
1738772464414853400,7.670853271484375,-0.043701171875,-0.999603271484375,-0.001617431640625
1738772464424844300,7.68084423828125,-0.044342041015625,-0.9991912841796875,-0.0009307861328125
1738772464434835500,7.69083544921875,-0.0458831787109375,-0.99810791015625,-0.0005950927734375
1738772464444827400,7.700827392578125,-0.0445404052734375,-0.9979248046875,0.000518798828125
1738772464454818300,7.710818359375,-0.04541015625,-0.9984588623046875,-0.000518798828125
1738772464464809500,7.7208095703125,-0.0456085205078125,-0.999176025390625,0.0004119873046875
1738772464474800400,7.73080029296875,-0.045166015625,-0.99932861328125,-0.00079345703125
1738772464484791300,7.740791259765625,-0.0437164306640625,-0.9992828369140625,-0.0001373291015625
1738772464494783500,7.750783447265625,-0.043212890625,-0.99908447265625,0.000152587890625
1738772464504774400,7.7607744140625,-0.0450592041015625,-0.9990692138671875,-0.0010833740234375
1738772464514765300,7.770765380859375,-0.0439300537109375,-0.998748779296875,-0.00006103515625
1738772464524756500,7.780756591796875,-0.043670654296875,-0.999603271484375,0.0012664794921875
1738772464534747400,7.790747314453125,-0.0444793701171875,-0.9989166259765625,0.0000762939453125
1738772464544739300,7.8007392578125,-0.045806884765625,-0.9993133544921875,0.0001220703125
1738772464554730500,7.81073046875,-0.045684814453125,-0.999298095703125,-0.0005950927734375
1738772464564721400,7.820721435546875,-0.0447998046875,-0.9991607666015625,-0.00091552734375
1738772464574712300,7.83071240234375,-0.0452423095703125,-0.9990386962890625,-0.0002288818359375
1738772464584703500,7.840703369140625,-0.044525146484375,-0.9987640380859375,-0.0003814697265625
1738772464594695400,7.8506953125,-0.044281005859375,-1.0008697509765625,-0.0009307861328125
1738772464604686300,7.860686279296875,-0.0442352294921875,-0.9993743896484375,-0.001556396484375
1738772464614677500,7.870677490234375,-0.04351806640625,-0.999603271484375,-0.0007781982421875
1738772464624668400,7.88066845703125,-0.042694091796875,-0.9991912841796875,-0.0008087158203125
1738772464634659300,7.890659423828125,-0.045318603515625,-0.998504638671875,0.00164794921875
1738772464644651500,7.900651611328125,-0.0445098876953125,-0.998199462890625,-0.000885009765625
1738772464654642400,7.910642333984375,-0.0435943603515625,-0.9989166259765625,-0.0013885498046875
1738772464664633300,7.92063330078125,-0.04547119140625,-0.99884033203125,0.000396728515625
1738772464674624500,7.93062451171875,-0.04425048828125,-0.99993896484375,-0.0000762939453125
1738772464684615400,7.940615478515625,-0.043243408203125,-0.999786376953125,-0.0005340576171875
1738772464694606300,7.9506064453125,-0.0434722900390625,-0.99853515625,-0.001068115234375
1738772464704598500,7.9605986328125,-0.043701171875,-0.9999542236328125,-0.0005950927734375
1738772464714589400,7.97058935546875,-0.043212890625,-0.9997100830078125,-0.000335693359375
1738772464724580400,7.980580322265625,-0.04412841796875,-0.998687744140625,0.000244140625
1738772464734571300,7.9905712890625,-0.0460662841796875,-0.99993896484375,-0.000732421875
1738772464744562400,8.0005625,-0.0457000732421875,-0.9985504150390625,-0.000457763671875
1738772464754554400,8.010554443359375,-0.0452423095703125,-0.999755859375,-0.0009307861328125
1738772464764545500,8.020545654296875,-0.044036865234375,-0.9984893798828125,-0.0007171630859375
1738772464774536400,8.030536376953124,-0.0442962646484375,-0.999664306640625,-0.00067138671875
1738772464784527400,8.04052734375,-0.0441131591796875,-0.9998321533203125,-0.000762939453125
1738772464794518300,8.050518310546876,-0.0430450439453125,-0.9989166259765625,0.0001068115234375
1738772464804510500,8.060510498046876,-0.04376220703125,-0.9999237060546875,0.0009307861328125
1738772464814501400,8.07050146484375,-0.042877197265625,-1.0000762939453125,-0.0004119873046875
1738772464824492500,8.080492431640625,-0.045074462890625,-0.99993896484375,-0.0006103515625
1738772464834483500,8.0904833984375,-0.0443878173828125,-0.998779296875,0.000152587890625
1738772464844474400,8.100474365234374,-0.0453033447265625,-1.000579833984375,-0.0001983642578125
1738772464854466600,8.110466552734374,-0.042205810546875,-0.999420166015625,-0.00079345703125
1738772464864457500,8.12045751953125,-0.0430145263671875,-0.9996490478515625,-0.000579833984375
1738772464874448400,8.130448486328126,-0.044189453125,-1.00054931640625,0.0009613037109375
1738772464884439300,8.140439208984375,-0.043487548828125,-0.999725341796875,-0.0016021728515625
1738772464894430500,8.150430419921875,-0.0431060791015625,-0.9994354248046875,-0.00067138671875
1738772464904422400,8.16042236328125,-0.045684814453125,-0.99896240234375,-0.0001373291015625
1738772464914413600,8.17041357421875,-0.046112060546875,-0.9980621337890625,-0.00006103515625
1738772464924404500,8.180404541015625,-0.043731689453125,-0.99853515625,-0.00140380859375
1738772464934395400,8.1903955078125,-0.04339599609375,-0.9998931884765625,-0.000762939453125
1738772464944386300,8.20038623046875,-0.043731689453125,-0.9984130859375,-0.000701904296875
1738772464954377500,8.21037744140625,-0.0440216064453125,-0.9992523193359375,-0.000946044921875
1738772464964369400,8.220369384765625,-0.044708251953125,-0.9997100830078125,-0.0005035400390625
1738772464974360300,8.2303603515625,-0.0458526611328125,-0.9995880126953125,-0.0006103515625
1738772464984351500,8.2403515625,-0.046234130859375,-0.9986419677734375,-0.00128173828125
1738772464994342400,8.25034228515625,-0.0458831787109375,-0.9988250732421875,-0.001708984375
1738772465004333300,8.260333251953124,-0.0449676513671875,-0.999114990234375,-0.0006561279296875
1738772465014325500,8.270325439453124,-0.045135498046875,-0.9998016357421875,-0.0009307861328125
1738772465024316400,8.28031640625,-0.043792724609375,-0.998504638671875,-0.000244140625
1738772465034307300,8.290307373046875,-0.04364013671875,-0.99981689453125,-0.0012664794921875
1738772465044298500,8.300298583984375,-0.04498291015625,-0.999603271484375,-0.0008087158203125
1738772465054289400,8.310289306640625,-0.0446319580078125,-0.999725341796875,-0.0003509521484375
1738772465064281300,8.32028125,-0.04461669921875,-0.998809814453125,0.0013427734375
1738772465074272500,8.3302724609375,-0.045257568359375,-1.0003509521484375,-0.000640869140625
1738772465084263400,8.340263427734374,-0.0453643798828125,-0.9994964599609375,-0.0009307861328125
1738772465094254300,8.35025439453125,-0.04388427734375,-0.999267578125,-0.0009918212890625
1738772465104245500,8.36024560546875,-0.0428466796875,-0.9997406005859375,-0.00079345703125
1738772465114237200,8.3702373046875,-0.0442657470703125,-0.9985504150390625,0.0010223388671875
1738772465124228400,8.380228271484375,-0.0438385009765625,-0.99822998046875,-0.00030517578125
1738772465134219500,8.390219482421875,-0.04486083984375,-0.9999542236328125,-0.0010528564453125
1738772465144210400,8.40021044921875,-0.0455780029296875,-0.9990234375,-0.0002899169921875
1738772465154201300,8.410201416015624,-0.044281005859375,-0.9991912841796875,0.00079345703125
1738772465164193300,8.420193359375,-0.04461669921875,-1.000091552734375,-0.0001220703125
1738772465174184400,8.430184326171876,-0.0449981689453125,-0.9994659423828125,0.0006103515625
1738772465184175400,8.44017529296875,-0.0458221435546875,-1.0001678466796875,-0.000274658203125
1738772465194166500,8.45016650390625,-0.0452117919921875,-0.998992919921875,-0.0012359619140625
1738772465204157400,8.460157470703125,-0.0439910888671875,-0.9981536865234375,0.0003662109375
1738772465214149000,8.470149169921875,-0.0441131591796875,-0.998443603515625,-0.0008544921875
1738772465224140300,8.480140380859375,-0.04498291015625,-1.0010223388671875,-0.000762939453125
1738772465234131500,8.49013134765625,-0.0447845458984375,-0.9992218017578125,-0.0005340576171875
1738772465244122400,8.500122314453124,-0.044403076171875,-0.9993896484375,-0.000457763671875
1738772465254113500,8.510113525390626,-0.0446319580078125,-0.998809814453125,-0.000640869140625
1738772465264105200,8.520105224609376,-0.043701171875,-0.9991302490234375,0.001007080078125
1738772465274096000,8.53009619140625,-0.04534912109375,-0.9986724853515625,0.000823974609375
1738772465284087300,8.54008740234375,-0.044219970703125,-0.9986419677734375,-0.0013275146484375
1738772465294078500,8.550078369140625,-0.043853759765625,-1.0003204345703125,0.0003204345703125
1738772465304069400,8.5600693359375,-0.04327392578125,-0.9988250732421875,-0.0005950927734375
1738772465314061300,8.570061279296874,-0.0446929931640625,-0.9982147216796875,0.0007171630859375
1738772465324052200,8.58005224609375,-0.044342041015625,-1.00006103515625,-0.0004425048828125
1738772465334043000,8.59004296875,-0.04339599609375,-0.9999237060546875,0.00030517578125
1738772465344033800,8.60003369140625,-0.0460968017578125,-1.0001983642578125,-0.0001068115234375
1738772465354025000,8.61002490234375,-0.044952392578125,-0.9988555908203125,-0.00018310546875
1738772465364017000,8.620016845703125,-0.044219970703125,-0.998046875,-0.000823974609375
1738772465374008000,8.630008056640625,-0.0419158935546875,-0.999481201171875,-0.0004119873046875
1738772465383999000,8.6399990234375,-0.044586181640625,-0.9989471435546875,-0.00244140625
1738772465393990000,8.649989990234374,-0.043182373046875,-0.998504638671875,-0.0004119873046875
1738772465403980800,8.659980712890626,-0.0441131591796875,-0.99957275390625,0.0007781982421875
1738772465413972000,8.669971923828125,-0.0444488525390625,-0.999267578125,-0.00018310546875
1738772465423964000,8.6799638671875,-0.0434417724609375,-0.999969482421875,-0.001129150390625
1738772465433955000,8.689955078125,-0.04541015625,-0.9992218017578125,0.000732421875
1738772465443946000,8.699946044921875,-0.042694091796875,-1.000152587890625,-0.000640869140625
1738772465453937000,8.70993701171875,-0.0432586669921875,-0.9987335205078125,-0.00115966796875
1738772465463927800,8.719927734375,-0.0450592041015625,-0.9984588623046875,-0.0007171630859375
1738772465473919700,8.729919677734374,-0.0433197021484375,-0.9987945556640625,-0.0012359619140625
1738772465483911000,8.739910888671876,-0.0429840087890625,-0.9990997314453125,-0.0005035400390625
1738772465493901800,8.74990185546875,-0.044677734375,-1.00048828125,-0.0000762939453125
1738772465503893000,8.75989306640625,-0.0437774658203125,-0.9986572265625,-0.0002899169921875
1738772465513884000,8.7698837890625,-0.0447235107421875,-0.998870849609375,0.0015716552734375
1738772465523875800,8.779875732421875,-0.0442657470703125,-0.9998626708984375,0.0003204345703125
1738772465533867000,8.789866943359375,-0.0446319580078125,-0.9987640380859375,-0.000030517578125
1738772465543858000,8.79985791015625,-0.04608154296875,-0.9995880126953125,-0.001190185546875
1738772465553848800,8.809848876953126,-0.0429840087890625,-0.99822998046875,-0.0000152587890625
1738772465563840000,8.819840087890626,-0.042755126953125,-0.9996795654296875,-0.0010528564453125
1738772465573831700,8.829831787109375,-0.0427093505859375,-0.9992218017578125,0.0008544921875
1738772465583822800,8.83982275390625,-0.0440521240234375,-0.9980621337890625,-0.0014495849609375
1738772465593814000,8.84981396484375,-0.0448760986328125,-0.998199462890625,-0.00140380859375
1738772465603805000,8.859804931640625,-0.0443572998046875,-1.000823974609375,-0.001556396484375
1738772465613795800,8.8697958984375,-0.0445404052734375,-0.999298095703125,-0.000030517578125
1738772465623787800,8.879787841796874,-0.0442962646484375,-0.9983062744140625,0.00018310546875
1738772465633778700,8.88977880859375,-0.0445098876953125,-0.999267578125,-0.0020904541015625
1738772465643769900,8.899769775390626,-0.0432281494140625,-0.999237060546875,-0.001495361328125
1738772465653761000,8.909760986328125,-0.043365478515625,-1.000030517578125,-0.0001068115234375
1738772465663752000,8.919751953125,-0.04376220703125,-0.9990997314453125,-0.0004730224609375
1738772465673743600,8.92974365234375,-0.04443359375,-0.9996337890625,0.0006866455078125
1738772465683734800,8.93973486328125,-0.044769287109375,-1.000579833984375,0.000946044921875
1738772465693726000,8.949725830078124,-0.0435638427734375,-0.9980316162109375,-0.000946044921875
1738772465703716900,8.959716796875,-0.0448760986328125,-0.9992523193359375,-0.00042724609375
1738772465713708000,8.9697080078125,-0.04620361328125,-0.999053955078125,-0.000213623046875
1738772465723699700,8.97969970703125,-0.04339599609375,-0.9993133544921875,-0.00128173828125
1738772465733690600,8.989690673828125,-0.0438079833984375,-0.9994354248046875,-0.00079345703125
1738772465743681800,8.999681884765625,-0.0443115234375,-0.9981536865234375,-0.0006103515625
1738772465753673000,9.0096728515625,-0.044891357421875,-0.9986419677734375,-0.000396728515625
1738772465763664000,9.019663818359374,-0.044830322265625,-0.99859619140625,-0.0006256103515625
1738772465773655800,9.02965576171875,-0.0439453125,-0.999603271484375,0.0008544921875
1738772465783646700,9.039646728515624,-0.044342041015625,-0.9987640380859375,0.0000457763671875
1738772465793637600,9.0496376953125,-0.0436248779296875,-0.99847412109375,-0.0003204345703125
1738772465803628800,9.05962890625,-0.0438690185546875,-0.9984893798828125,0.0001373291015625
1738772465813620000,9.069619873046875,-0.0453033447265625,-0.9997406005859375,-0.00006103515625
1738772465823611600,9.079611572265625,-0.04534912109375,-0.999664306640625,0.0009307861328125
1738772465833602800,9.089602783203125,-0.0445098876953125,-0.9999847412109375,-0.0003814697265625
1738772465843593700,9.09959375,-0.04290771484375,-0.999053955078125,0.001220703125
1738772465853584600,9.109584716796874,-0.0420074462890625,-1.000152587890625,-0.000518798828125
1738772465863575800,9.119575927734376,-0.0428466796875,-1,0.000823974609375
1738772465873567700,9.129567626953126,-0.0450897216796875,-0.9990386962890625,-0.0016326904296875
1738772465883558700,9.13955859375,-0.0450897216796875,-0.9987335205078125,-0.00177001953125
1738772465893549800,9.1495498046875,-0.0466156005859375,-1.0000152587890625,-0.000091552734375
1738772465903540700,9.159540771484375,-0.04547119140625,-1.000274658203125,0.0004119873046875
1738772465913532000,9.169531982421875,-0.045196533203125,-0.9996185302734375,-0.0005950927734375
1738772465923523000,9.179523193359374,-0.043975830078125,-0.9988861083984375,0.0003204345703125
1738772465933514800,9.1895146484375,-0.044189453125,-0.999420166015625,0.0000457763671875
1738772465943505700,9.199505615234376,-0.0431365966796875,-0.9986114501953125,0.000579833984375
1738772465953496800,9.209496826171875,-0.0431365966796875,-0.998626708984375,-0.0016326904296875
1738772465963487700,9.21948779296875,-0.0438385009765625,-0.999420166015625,0.0001068115234375
1738772465973479000,9.22947900390625,-0.04443359375,-0.99884033203125,0.0009613037109375
1738772465983470800,9.239470947265625,-0.047027587890625,-0.99951171875,-0.000701904296875
1738772465993461800,9.249461669921875,-0.0456390380859375,-0.998626708984375,-0.000091552734375
1738772466003452700,9.25945263671875,-0.0444488525390625,-0.9988555908203125,-0.0008544921875
1738772466013443800,9.26944384765625,-0.0435638427734375,-0.9989013671875,-0.0009002685546875
1738772466023434800,9.279434814453126,-0.0424652099609375,-0.997894287109375,-0.0004730224609375
1738772466033426700,9.2894267578125,-0.04302978515625,-1.00006103515625,-0.00048828125
1738772466043417900,9.29941796875,-0.04327392578125,-1.000274658203125,0.00018310546875
1738772466053408800,9.30940869140625,-0.0452117919921875,-0.9996795654296875,0.0001220703125
1738772466063399700,9.319399658203125,-0.0456085205078125,-0.9993743896484375,-0.0011749267578125
1738772466073390800,9.329390869140624,-0.0468597412109375,-0.9992828369140625,-0.0009307861328125
1738772466083382800,9.3393828125,-0.0454254150390625,-0.999298095703125,-0.00042724609375
1738772466093373700,9.349373779296876,-0.0435028076171875,-0.9990692138671875,0.0006256103515625
1738772466103364900,9.35936474609375,-0.0426483154296875,-0.99798583984375,-0.0001983642578125
1738772466113355800,9.369355712890625,-0.0429534912109375,-1.0008087158203125,0.0024566650390625
1738772466123346700,9.3793466796875,-0.0437164306640625,-0.9987335205078125,-0.0012664794921875
1738772466133339000,9.3893388671875,-0.0439300537109375,-0.99957275390625,0.0007171630859375
1738772466143329800,9.399329833984375,-0.043548583984375,-0.999237060546875,-0.000579833984375
1738772466153320700,9.40932080078125,-0.0454254150390625,-0.998443603515625,-0.0015716552734375
1738772466163311600,9.4193115234375,-0.045654296875,-0.998321533203125,-0.0004425048828125
1738772466173302800,9.429302734375,-0.0437164306640625,-0.99810791015625,-0.00115966796875
1738772466183294700,9.439294677734376,-0.045135498046875,-0.99957275390625,-0.0009765625
1738772466193286000,9.449285888671875,-0.0434112548828125,-0.9987335205078125,0.00042724609375
1738772466203276800,9.45927685546875,-0.043548583984375,-1.000213623046875,-0.0000762939453125
1738772466213267700,9.469267822265625,-0.04498291015625,-1.0001068115234375,-0.0006256103515625
1738772466223258600,9.479258544921874,-0.04541015625,-0.9995880126953125,0.000946044921875
1738772466233249800,9.489249755859374,-0.0443878173828125,-0.99951171875,-0.0001373291015625
1738772466243241700,9.49924169921875,-0.0443572998046875,-0.998992919921875,-0.000946044921875
1738772466253233000,9.50923291015625,-0.044830322265625,-1.000274658203125,0.000152587890625
1738772466263223800,9.519223876953125,-0.0440521240234375,-1.000335693359375,-0.000640869140625
1738772466273214700,9.529214599609375,-0.044525146484375,-0.9987945556640625,-0.0012054443359375
1738772466283205600,9.53920556640625,-0.0446624755859375,-0.998565673828125,0.0002288818359375
1738772466293197800,9.54919775390625,-0.0443267822265625,-0.999237060546875,-0.0010223388671875
1738772466303188700,9.559188720703125,-0.0430908203125,-0.998443603515625,-0.0018157958984375
1738772466313179600,9.5691796875,-0.0438232421875,-0.9974212646484375,-0.0013580322265625
1738772466323170800,9.5791708984375,-0.042816162109375,-0.9993133544921875,-0.000244140625
1738772466333161700,9.58916162109375,-0.042938232421875,-1.000244140625,0.0001678466796875
1738772466343154000,9.59915380859375,-0.0441131591796875,-0.9987945556640625,-0.0007171630859375
1738772466353144800,9.609144775390625,-0.042449951171875,-0.9989013671875,-0.0004425048828125
1738772466363135700,9.6191357421875,-0.043853759765625,-0.9984283447265625,-0.0000457763671875
1738772466373127000,9.629126953125,-0.0464324951171875,-0.999420166015625,-0.0013275146484375
1738772466383117800,9.639117919921874,-0.045196533203125,-0.9998016357421875,-0.001434326171875
1738772466393109800,9.64910986328125,-0.0452423095703125,-0.998626708984375,-0.0000762939453125
1738772466403101000,9.659100830078126,-0.044403076171875,-0.9993896484375,0.000091552734375
1738772466413091800,9.669091796875,-0.0447235107421875,-0.999603271484375,-0.0007781982421875
1738772466423082800,9.679082763671875,-0.0433807373046875,-1.0005645751953125,-0.000244140625
1738772466433074000,9.689073974609375,-0.0437469482421875,-0.9989471435546875,-0.0012359619140625
1738772466443064800,9.69906494140625,-0.043975830078125,-0.99969482421875,-0.0006561279296875
1738772466453056800,9.709056884765625,-0.043731689453125,-1.000213623046875,-0.0004425048828125
1738772466463048000,9.7190478515625,-0.0444488525390625,-0.9991912841796875,-0.000244140625
1738772466473038800,9.729038818359374,-0.0446624755859375,-0.9982757568359375,0.0004425048828125
1738772466483029800,9.73902978515625,-0.0462188720703125,-0.999481201171875,-0.00115966796875
1738772466493020700,9.749020751953125,-0.0443115234375,-0.9995269775390625,-0.0008087158203125
1738772466503012900,9.759012939453125,-0.0434722900390625,-0.998626708984375,-0.0015106201171875
1738772466513003800,9.769003662109375,-0.0449066162109375,-0.9995269775390625,0.00048828125
1738772466522995000,9.778994873046875,-0.044769287109375,-0.9987030029296875,0.000640869140625
1738772466532985900,9.78898583984375,-0.045379638671875,-0.999786376953125,-0.0012359619140625
1738772466542976800,9.798976806640624,-0.0468597412109375,-0.999114990234375,-0.0002899169921875
1738772466552969000,9.808968994140624,-0.0445098876953125,-1.0003204345703125,0.0003814697265625
1738772466562960000,9.8189599609375,-0.0422515869140625,-1.0005035400390625,-0.001251220703125
1738772466572950800,9.82895068359375,-0.043609619140625,-0.9995880126953125,-0.0009918212890625
1738772466582941700,9.838941650390625,-0.043487548828125,-0.9998321533203125,-0.000274658203125
1738772466592932900,9.848932861328125,-0.0454254150390625,-0.9993438720703125,-0.00189208984375
1738772466602924800,9.8589248046875,-0.0431365966796875,-1.0003204345703125,-0.000213623046875
1738772466612916000,9.868916015625,-0.045379638671875,-0.998138427734375,0.0000152587890625
1738772466622907000,9.878906982421874,-0.045654296875,-0.9994964599609375,-0.0018157958984375
1738772466632897800,9.888897705078126,-0.0433807373046875,-0.999847412109375,-0.000244140625
1738772466642888700,9.898888671875,-0.0428619384765625,-0.9983673095703125,0.0004730224609375
1738772466652881000,9.908880859375,-0.043121337890625,-0.998931884765625,-0.0012664794921875
1738772466662871800,9.918871826171875,-0.0420989990234375,-0.9996490478515625,0.000579833984375
1738772466672862700,9.92886279296875,-0.0421295166015625,-0.9994354248046875,-0.0006561279296875
1738772466682854000,9.93885400390625,-0.0448455810546875,-0.999969482421875,-0.0003509521484375
1738772466692844800,9.9488447265625,-0.045562744140625,-0.99981689453125,-0.000091552734375
1738772466702835700,9.958835693359376,-0.0450592041015625,-0.99969482421875,-0.0003509521484375
1738772466712828000,9.968827880859376,-0.0442352294921875,-1.000244140625,-0.000579833984375
1738772466722818800,9.97881884765625,-0.0435028076171875,-0.9985198974609375,-0.0001373291015625
1738772466732809700,9.988809814453125,-0.0428314208984375,-0.9992218017578125,0.000701904296875
1738772466742801000,9.99880078125,-0.043212890625,-0.998870849609375,-0.0012359619140625
1738772466752791800,10.008791748046875,-0.044219970703125,-0.999176025390625,-0.0004119873046875
1738772466762783700,10.01878369140625,-0.0440216064453125,-0.9983062744140625,0.0006256103515625
1738772466772775000,10.02877490234375,-0.0447998046875,-0.9977569580078125,-0.00189208984375
1738772466782765800,10.038765869140626,-0.0455780029296875,-0.99896240234375,-0.0007476806640625
1738772466792756700,10.0487568359375,-0.0461578369140625,-0.9990386962890625,0.0013580322265625
1738772466802748000,10.058747802734375,-0.0436859130859375,-0.9987640380859375,-0.00115966796875
1738772466812739800,10.06873974609375,-0.0443878173828125,-0.9995269775390625,-0.00018310546875
1738772466822730800,10.078730712890625,-0.0426025390625,-1.000244140625,-0.0008697509765625
1738772466832722000,10.088721923828125,-0.0421142578125,-0.9993133544921875,-0.0009002685546875
1738772466842712800,10.098712890625,-0.0433502197265625,-0.9989776611328125,-0.0001678466796875
1738772466852703700,10.108703857421874,-0.043792724609375,-0.9993438720703125,-0.0005340576171875
1738772466862696000,10.118696044921874,-0.0454254150390625,-0.9986419677734375,-0.0003204345703125
1738772466872686800,10.128686767578126,-0.045867919921875,-0.9992828369140625,-0.000396728515625
1738772466882677800,10.138677734375,-0.0447235107421875,-0.998748779296875,-0.00146484375
1738772466892669000,10.1486689453125,-0.04547119140625,-0.9990234375,0.000335693359375
1738772466902659800,10.158659912109375,-0.04278564453125,-1.0000762939453125,0.0008544921875
1738772466912650800,10.168650634765624,-0.04248046875,-0.9987945556640625,-0.0011749267578125
1738772466922643000,10.178642822265624,-0.042999267578125,-0.9993896484375,0.0001068115234375
1738772466932633900,10.1886337890625,-0.043212890625,-0.9987335205078125,-0.0001220703125
1738772466942624800,10.198624755859376,-0.0443572998046875,-1.00067138671875,-0.000885009765625
1738772466952616000,10.208615966796875,-0.0460662841796875,-0.99761962890625,-0.0001068115234375
1738772466962606800,10.21860693359375,-0.0462646484375,-1.000762939453125,0.0020904541015625
1738772466972598800,10.228598876953125,-0.044219970703125,-0.999237060546875,-0.001190185546875
1738772466982590000,10.23858984375,-0.0441741943359375,-0.9987945556640625,-0.0008087158203125
1738772466992580900,10.248580810546875,-0.043182373046875,-0.999908447265625,0.000030517578125
1738772467002571800,10.25857177734375,-0.04327392578125,-1.00030517578125,-0.000518798828125
1738772467012563000,10.26856298828125,-0.0424041748046875,-0.9995269775390625,-0.0003204345703125
1738772467022555000,10.278554931640626,-0.04425048828125,-0.9989013671875,0.0001373291015625
1738772467032545800,10.2885458984375,-0.045440673828125,-0.9990234375,-0.002166748046875
1738772467042537000,10.298536865234375,-0.045562744140625,-0.99859619140625,-0.0009765625
1738772467052527900,10.30852783203125,-0.043975830078125,-0.998291015625,0.0003662109375
1738772467062518800,10.318518798828125,-0.0453033447265625,-0.998748779296875,0.000213623046875
1738772467072511000,10.328510986328125,-0.0449676513671875,-0.9983062744140625,-0.0004730224609375
1738772467082502000,10.338501953125,-0.042327880859375,-1.0000762939453125,-0.0009613037109375
1738772467092492800,10.348492919921876,-0.0450286865234375,-0.99957275390625,-0.000335693359375
1738772467102484000,10.35848388671875,-0.0443267822265625,-0.999237060546875,0.001983642578125
1738772467112475000,10.368474853515625,-0.0439605712890625,-0.9991912841796875,-0.0007476806640625
1738772467122465800,10.3784658203125,-0.0448455810546875,-0.9990692138671875,-0.0001068115234375
1738772467132458000,10.3884580078125,-0.0461273193359375,-0.998992919921875,-0.000732421875
1738772467142449000,10.398448974609375,-0.0438995361328125,-0.9991607666015625,-0.0006256103515625
1738772467152439800,10.408439697265624,-0.0428009033203125,-0.9991912841796875,0.000946044921875
1738772467162430700,10.4184306640625,-0.0437774658203125,-1.00103759765625,-0.0001220703125
1738772467172422000,10.428421875,-0.0435638427734375,-0.99884033203125,0.0003662109375
1738772467182413800,10.438413818359376,-0.045684814453125,-0.998504638671875,0.000823974609375
1738772467192405000,10.448405029296875,-0.045745849609375,-0.99957275390625,-0.0009307861328125
1738772467202396000,10.45839599609375,-0.0448455810546875,-0.99951171875,-0.0009765625
1738772467212386800,10.46838671875,-0.0443572998046875,-0.998443603515625,0.0024871826171875
1738772467222377700,10.478377685546874,-0.04376220703125,-0.9990234375,0.000244140625
1738772467232370000,10.488369873046874,-0.0437164306640625,-0.99993896484375,-0.00079345703125
1738772467242360800,10.49836083984375,-0.042327880859375,-0.9988861083984375,0.000701904296875
1738772467252351700,10.508351806640626,-0.043212890625,-0.9994049072265625,-0.0009918212890625
1738772467262343000,10.518343017578125,-0.043304443359375,-0.998748779296875,-0.0001068115234375
1738772467272333800,10.528333740234375,-0.0447540283203125,-0.9990234375,0.00030517578125
1738772467282324700,10.53832470703125,-0.0465087890625,-0.9994049072265625,0.00042724609375
1738772467292317000,10.54831689453125,-0.0455780029296875,-0.999053955078125,0.0000457763671875
1738772467302307800,10.558307861328124,-0.0441131591796875,-0.9987335205078125,-0.00048828125
1738772467312298800,10.568298828125,-0.0434417724609375,-1.000091552734375,-0.000701904296875
1738772467322290000,10.5782900390625,-0.0434112548828125,-0.9989013671875,-0.000640869140625
1738772467332280600,10.588280517578125,-0.0434112548828125,-0.9992523193359375,-0.000274658203125
1738772467342272500,10.5982724609375,-0.0432891845703125,-1.000244140625,-0.0014801025390625
1738772467352263700,10.608263671875,-0.0456390380859375,-0.999420166015625,0.0005950927734375
1738772467362254600,10.618254638671875,-0.045379638671875,-0.998992919921875,0.0012664794921875
1738772467372245500,10.62824560546875,-0.0470123291015625,-0.9999237060546875,-0.0001068115234375
1738772467382236400,10.638236328125,-0.044525146484375,-0.9989776611328125,-0.0001983642578125
1738772467392228600,10.648228515625,-0.04351806640625,-0.99969482421875,-0.0009918212890625
1738772467402219500,10.658219482421876,-0.0426483154296875,-0.9989013671875,-0.00030517578125
1738772467412210700,10.668210693359375,-0.043182373046875,-0.9988250732421875,0.0003204345703125
1738772467422201600,10.67820166015625,-0.0439605712890625,-0.9990386962890625,-0.00067138671875
1738772467432192500,10.688192626953125,-0.042694091796875,-0.997650146484375,0.000152587890625
1738772467442184700,10.698184814453125,-0.0455322265625,-0.998565673828125,0.0022125244140625
1738772467452175600,10.708175537109375,-0.04461669921875,-1.0000457763671875,-0.0011138916015625
1738772467462166500,10.71816650390625,-0.045196533203125,-0.999420166015625,-0.0023193359375
1738772467472157400,10.728157470703126,-0.0431365966796875,-0.9994659423828125,-0.0018157958984375
1738772467482148600,10.738148681640626,-0.0440673828125,-1.00018310546875,0.0001373291015625
1738772467492139500,10.748139404296875,-0.043853759765625,-0.999786376953125,0.0009613037109375
1738772467502131700,10.758131591796875,-0.04400634765625,-0.99951171875,-0.000244140625
1738772467512122600,10.76812255859375,-0.043182373046875,-0.9986724853515625,-0.0018157958984375
1738772467522113500,10.778113525390625,-0.04400634765625,-0.9991607666015625,-0.0016021728515625
1738772467532104400,10.7881044921875,-0.043426513671875,-0.9982452392578125,-0.000823974609375
1738772467542095600,10.798095703125,-0.042510986328125,-0.998504638671875,0.000213623046875
1738772467552087600,10.808087646484376,-0.0427398681640625,-0.9982452392578125,0.0000152587890625
1738772467562078500,10.818078369140625,-0.04327392578125,-1.0003204345703125,0.00030517578125
1738772467572069600,10.828069580078125,-0.0468292236328125,-0.9994659423828125,-0.0003662109375
1738772467582060500,10.838060546875,-0.0453948974609375,-0.9987945556640625,0.0007781982421875
1738772467592051500,10.848051513671875,-0.0447235107421875,-0.9989166259765625,0.000274658203125
1738772467602043600,10.858043701171875,-0.0449676513671875,-0.999969482421875,-0.001220703125
1738772467612034600,10.86803466796875,-0.0433349609375,-0.999237060546875,-0.0005340576171875
1738772467622025500,10.878025390625,-0.0433349609375,-0.9992218017578125,-0.00140380859375
1738772467632016600,10.8880166015625,-0.0444488525390625,-0.999481201171875,0.0000152587890625
1738772467642007600,10.898007568359375,-0.0443572998046875,-0.9995574951171875,0.001068115234375
1738772467651998500,10.90799853515625,-0.04351806640625,-0.99969482421875,-0.0012359619140625
1738772467661990700,10.91799072265625,-0.044921875,-0.9986572265625,-0.0004119873046875
1738772467671981600,10.927981689453125,-0.0457305908203125,-0.999298095703125,-0.00128173828125
1738772467681972500,10.937972412109374,-0.044586181640625,-0.9989471435546875,0.000213623046875
1738772467691963600,10.947963623046874,-0.0448455810546875,-0.9994964599609375,-0.000335693359375
1738772467701954600,10.95795458984375,-0.043914794921875,-0.999237060546875,-0.0010833740234375
1738772467711946500,10.967946533203126,-0.044189453125,-0.999053955078125,-0.000274658203125
1738772467721937700,10.977937744140625,-0.0434112548828125,-0.998626708984375,-0.0003509521484375
1738772467731928600,10.987928466796875,-0.0442657470703125,-0.998809814453125,-0.0002899169921875
1738772467741919500,10.99791943359375,-0.045135498046875,-0.9990386962890625,-0.0007171630859375
1738772467751910700,11.00791064453125,-0.0441131591796875,-0.998870849609375,-0.001220703125
1738772467761902600,11.017902587890624,-0.04486083984375,-0.99908447265625,-0.002471923828125
1738772467771893500,11.0278935546875,-0.0444183349609375,-0.9996795654296875,0
1738772467781884700,11.037884765625,-0.045196533203125,-0.99969482421875,0.0001220703125
1738772467791875600,11.04787548828125,-0.04400634765625,-0.9986724853515625,0.0009613037109375
1738772467801866500,11.057866455078125,-0.0432586669921875,-0.9990234375,-0.00030517578125
1738772467811857700,11.067857666015625,-0.0443878173828125,-1.000091552734375,-0.0007476806640625
1738772467821849600,11.077849609375,-0.0442047119140625,-1.001129150390625,-0.000762939453125
1738772467831840500,11.087840576171875,-0.0434722900390625,-0.9995574951171875,-0.000457763671875
1738772467841831700,11.097831787109374,-0.0439910888671875,-0.9983062744140625,-0.0011138916015625
1738772467851822600,11.107822509765626,-0.0440216064453125,-0.9977874755859375,0.0008544921875
1738772467861813500,11.1178134765625,-0.0442352294921875,-1.000213623046875,-0.000274658203125
1738772467871805700,11.1278056640625,-0.0442352294921875,-0.9994354248046875,0.000213623046875
1738772467881796600,11.137796630859375,-0.0442352294921875,-0.998931884765625,0.0000152587890625
1738772467891787500,11.14778759765625,-0.0440521240234375,-0.999725341796875,-0.000030517578125
1738772467901778700,11.15777880859375,-0.044677734375,-0.999359130859375,-0.00103759765625
1738772467911769600,11.16776953125,-0.0434112548828125,-0.9995880126953125,-0.0005035400390625
1738772467921761500,11.177761474609374,-0.0430755615234375,-0.99908447265625,0.0007476806640625
1738772467931752700,11.187752685546876,-0.045318603515625,-0.9981231689453125,0.0000762939453125
1738772467941743600,11.19774365234375,-0.044403076171875,-0.998504638671875,-0.0013275146484375
1738772467951734500,11.207734619140625,-0.04351806640625,-0.9996337890625,0.000396728515625
1738772467961725400,11.217725341796875,-0.04443359375,-0.99945068359375,-0.0003509521484375
1738772467971716600,11.227716552734375,-0.0441436767578125,-0.9998016357421875,-0.0001983642578125
1738772467981708500,11.23770849609375,-0.0439910888671875,-1.0001068115234375,-0.0001220703125
1738772467991699700,11.24769970703125,-0.0421905517578125,-0.999725341796875,-0.0014801025390625
1738772468001690600,11.257690673828124,-0.0435943603515625,-0.998870849609375,-0.000244140625
1738772468011681500,11.267681640625,-0.0428009033203125,-1.000274658203125,-0.000274658203125
1738772468021672400,11.27767236328125,-0.0448455810546875,-0.999267578125,-0.000335693359375
1738772468031664600,11.28766455078125,-0.0455474853515625,-0.9983367919921875,-0.0006103515625
1738772468041655600,11.297655517578125,-0.045379638671875,-0.9994964599609375,0.0001068115234375
1738772468051646500,11.307646484375,-0.0453033447265625,-0.9993896484375,0.0004119873046875
1738772468061637600,11.3176376953125,-0.0440216064453125,-0.9985809326171875,-0.00054931640625
1738772468071628500,11.327628662109374,-0.0435028076171875,-0.9990692138671875,-0.0007171630859375
1738772468081620700,11.337620849609374,-0.0439605712890625,-1.0001220703125,-0.0001068115234375
1738772468091611600,11.347611572265626,-0.044281005859375,-0.999481201171875,0.0001983642578125
1738772468101602600,11.3576025390625,-0.0445098876953125,-0.9982147216796875,0.000579833984375
1738772468111593500,11.367593505859375,-0.044921875,-0.998931884765625,0.0004425048828125
1738772468121584600,11.377584716796875,-0.0457763671875,-0.9983367919921875,-0.0017852783203125
1738772468131575600,11.387575439453125,-0.0451507568359375,-0.9989471435546875,-0.000335693359375
1738772468141567500,11.3975673828125,-0.044464111328125,-0.9996795654296875,-0.000030517578125
1738772468151558700,11.40755859375,-0.0441131591796875,-0.99957275390625,-0.0008392333984375
1738772468161549600,11.417549560546876,-0.044281005859375,-1.000518798828125,-0.0001678466796875
1738772468171540500,11.42754052734375,-0.044097900390625,-0.9986724853515625,-0.0003509521484375
1738772468181531600,11.43753173828125,-0.0427398681640625,-1.000091552734375,-0.0015869140625
1738772468191523600,11.447523681640625,-0.0431060791015625,-0.9999237060546875,0.0007781982421875
1738772468201514500,11.457514404296875,-0.04345703125,-0.997772216796875,-0.0001068115234375
1738772468211505700,11.467505615234375,-0.045562744140625,-0.9991607666015625,-0.00201416015625
1738772468221496600,11.47749658203125,-0.04583740234375,-0.99884033203125,0.00042724609375
1738772468231487500,11.487487548828126,-0.0448150634765625,-0.9998931884765625,-0.00103759765625
1738772468241479700,11.497479736328126,-0.0437774658203125,-0.9986724853515625,-0.000396728515625
1738772468251470600,11.507470703125,-0.0446624755859375,-0.9989471435546875,-0.000244140625
1738772468261461500,11.51746142578125,-0.0434722900390625,-0.9990997314453125,-0.0007171630859375
1738772468271452700,11.52745263671875,-0.0444488525390625,-0.999176025390625,-0.0003204345703125
1738772468281443600,11.537443603515625,-0.0443115234375,-0.99920654296875,0.0006256103515625
1738772468291434500,11.5474345703125,-0.0446014404296875,-0.99908447265625,-0.001129150390625
1738772468301426700,11.5574267578125,-0.0447845458984375,-1.0000762939453125,-0.0006256103515625
1738772468311417600,11.56741748046875,-0.04522705078125,-0.9994964599609375,-0.00189208984375
1738772468321408500,11.577408447265626,-0.0439300537109375,-1.000091552734375,-0.0014801025390625
1738772468331400000,11.58739990234375,-0.044464111328125,-1.000396728515625,0.0000152587890625
1738772468341390800,11.597390869140625,-0.0444488525390625,-0.9985198974609375,0.0006256103515625
1738772468351383000,11.607383056640625,-0.0443878173828125,-1.0000457763671875,-0.001251220703125
1738772468361374000,11.6173740234375,-0.0440521240234375,-0.999359130859375,-0.0002593994140625
1738772468371365000,11.627365234375,-0.0438690185546875,-0.9995269775390625,0.0003662109375
1738772468381356000,11.63735595703125,-0.0426025390625,-0.9993133544921875,0.0011138916015625
1738772468391347000,11.647346923828126,-0.0435943603515625,-0.9988555908203125,0.0005035400390625
1738772468401339100,11.657339111328126,-0.0441131591796875,-0.99920654296875,0.0005035400390625
1738772468411330000,11.667330078125,-0.0448455810546875,-0.99859619140625,-0.0014495849609375
1738772468421321000,11.677321044921875,-0.044342041015625,-0.99798583984375,-0.001007080078125
1738772468431312000,11.687311767578125,-0.045654296875,-0.999755859375,-0.000762939453125
1738772468441303000,11.697302978515625,-0.04400634765625,-0.999114990234375,0.0003204345703125
1738772468451294000,11.7072939453125,-0.04364013671875,-0.9981842041015625,-0.0001678466796875
1738772468461286100,11.7172861328125,-0.0447845458984375,-0.99798583984375,-0.000274658203125
1738772468471277000,11.727277099609376,-0.044464111328125,-0.99993896484375,0.0004730224609375
1738772468481268000,11.73726806640625,-0.042724609375,-0.9998626708984375,-0.0002288818359375
1738772468491259000,11.7472587890625,-0.04266357421875,-0.9999542236328125,-0.00177001953125
1738772468501250000,11.75725,-0.0429534912109375,-0.999114990234375,-0.0009613037109375
1738772468511242000,11.767241943359375,-0.044281005859375,-0.9992218017578125,0.000152587890625
1738772468521233000,11.77723291015625,-0.045257568359375,-0.9995880126953125,-0.001190185546875
1738772468531224000,11.78722412109375,-0.0469818115234375,-0.998565673828125,-0.0003662109375
1738772468541215000,11.797215087890624,-0.0468597412109375,-0.99774169921875,0.000274658203125
1738772468551206000,11.807205810546876,-0.0445098876953125,-0.9990081787109375,0.0003204345703125
1738772468561197000,11.817197021484375,-0.042694091796875,-0.99945068359375,-0.000946044921875
1738772468571189000,11.82718896484375,-0.041595458984375,-0.998382568359375,0.0021514892578125
1738772468581180000,11.837179931640625,-0.04071044921875,-0.9993133544921875,0.000244140625
1738772468591171000,11.847171142578125,-0.04205322265625,-0.9996185302734375,-0.0019989013671875
1738772468601162000,11.857161865234374,-0.0434722900390625,-0.9981536865234375,0.002166748046875
1738772468611153000,11.86715283203125,-0.0455322265625,-1.000152587890625,-0.0000762939453125
1738772468621145000,11.87714501953125,-0.04864501953125,-0.9992218017578125,-0.00030517578125
1738772468631136000,11.887135986328126,-0.0483856201171875,-0.999237060546875,0.0003662109375
1738772468641127000,11.897126953125,-0.045166015625,-0.9984283447265625,-0.0000457763671875
1738772468651118000,11.9071181640625,-0.04327392578125,-0.998687744140625,0.0001068115234375
1738772468661109000,11.91710888671875,-0.041717529296875,-0.9994354248046875,-0.0001068115234375
1738772468671101000,11.927100830078125,-0.0385284423828125,-0.999298095703125,0.00030517578125
1738772468681092000,11.937092041015624,-0.0402069091796875,-1.00018310546875,-0.00006103515625
1738772468691083000,11.9470830078125,-0.0422821044921875,-0.9994659423828125,-0.0001983642578125
1738772468701074000,11.957073974609376,-0.0449371337890625,-1.0001068115234375,-0.00018310546875
1738772468711065000,11.967065185546875,-0.0477142333984375,-0.9997406005859375,0.000823974609375
1738772468721056000,11.977055908203125,-0.0484466552734375,-0.9989776611328125,0.0000152587890625
1738772468731048000,11.9870478515625,-0.04742431640625,-0.9995574951171875,-0.000152587890625
1738772468741039000,11.9970390625,-0.0449371337890625,-0.999298095703125,-0.000244140625
1738772468751030000,12.007030029296875,-0.0434722900390625,-0.9998321533203125,0.0012664794921875
1738772468761021000,12.01702099609375,-0.042022705078125,-0.9994659423828125,0.000091552734375
1738772468771012000,12.02701220703125,-0.0405731201171875,-0.999786376953125,-0.0018463134765625
1738772468781004000,12.037004150390626,-0.04132080078125,-0.999114990234375,0.000244140625
1738772468790995000,12.046994873046875,-0.0439910888671875,-1.0002593994140625,-0.0005035400390625
1738772468800986000,12.056986083984375,-0.0452423095703125,-0.998809814453125,-0.0006561279296875
1738772468810977000,12.06697705078125,-0.0478973388671875,-0.9987945556640625,-0.0007781982421875
1738772468820968000,12.076968017578125,-0.046112060546875,-1.0001983642578125,-0.00006103515625
1738772468830958800,12.086958740234374,-0.0448150634765625,-0.998748779296875,0.0002899169921875
1738772468840951000,12.096950927734374,-0.0436248779296875,-0.99920654296875,-0.0004730224609375
1738772468850942000,12.10694189453125,-0.0416107177734375,-0.998748779296875,-0.00128173828125
1738772468860933000,12.11693310546875,-0.0421600341796875,-0.9996490478515625,0.0003509521484375
1738772468870924000,12.126924072265625,-0.0422210693359375,-0.999176025390625,-0.0010986328125
1738772468880915000,12.1369150390625,-0.04339599609375,-0.999420166015625,-0.00006103515625
1738772468890907100,12.1469072265625,-0.04388427734375,-0.9995880126953125,-0.000335693359375
1738772468900898000,12.15689794921875,-0.0439910888671875,-1.000152587890625,-0.0010986328125
1738772468910889000,12.166888916015624,-0.0450439453125,-1.0003509521484375,-0.001007080078125
1738772468920880000,12.176880126953124,-0.046783447265625,-1.0006866455078125,0.0006561279296875
1738772468930871000,12.18687109375,-0.0471954345703125,-0.9993438720703125,-0.000152587890625
1738772468940863000,12.196863037109376,-0.045745849609375,-0.99871826171875,-0.0005950927734375
1738772468950854100,12.206854248046875,-0.04400634765625,-0.998748779296875,-0.0002288818359375
1738772468960845000,12.216844970703125,-0.0446929931640625,-0.9989166259765625,0.0001983642578125
1738772468970836000,12.2268359375,-0.0428466796875,-0.997833251953125,-0.0005035400390625
1738772468980827000,12.236826904296874,-0.0437164306640625,-1.0005340576171875,-0.00079345703125
1738772468990818000,12.246818115234374,-0.044036865234375,-0.998870849609375,0.0001373291015625
1738772469000810000,12.25681005859375,-0.0435333251953125,-0.999114990234375,0.0000457763671875
1738772469010801200,12.26680126953125,-0.0457000732421875,-0.998992919921875,0.0001220703125
1738772469020792000,12.2767919921875,-0.0437774658203125,-0.9984588623046875,-0.00201416015625
1738772469030783000,12.286782958984375,-0.0442352294921875,-0.9994049072265625,-0.0010528564453125
1738772469042023000,12.29802294921875,-0.0455474853515625,-0.999298095703125,0.000762939453125
1738772469052015000,12.30801513671875,-0.0457763671875,-0.99932861328125,-0.00006103515625
1738772469062006000,12.318006103515625,-0.0438232421875,-1.00048828125,0.00006103515625
1738772469071997000,12.327996826171875,-0.0421905517578125,-1.000091552734375,0.0000457763671875
1738772469081987800,12.33798779296875,-0.04254150390625,-0.9988250732421875,-0.0011138916015625
1738772469091979000,12.34797900390625,-0.043182373046875,-0.99896240234375,-0.0005035400390625
1738772469101970000,12.357969970703126,-0.0446624755859375,-0.99945068359375,0.001373291015625
1738772469111962000,12.367962158203126,-0.0452728271484375,-0.9993896484375,0.000152587890625
1738772469121953000,12.377953125,-0.0445098876953125,-0.999725341796875,-0.0006103515625
1738772469131944000,12.38794384765625,-0.0438079833984375,-0.9993133544921875,-0.0002288818359375
1738772469141934800,12.397934814453125,-0.0445404052734375,-0.999359130859375,-0.0011138916015625
1738772469151926000,12.407926025390625,-0.043670654296875,-0.999298095703125,-0.000518798828125
1738772469161918000,12.41791796875,-0.0439453125,-1.000396728515625,-0.0020294189453125
1738772469171908900,12.427908935546874,-0.04412841796875,-0.9994049072265625,-0.001617431640625
1738772469181900000,12.437900146484376,-0.04443359375,-0.99932861328125,-0.0005645751953125
1738772469191891000,12.447890869140625,-0.0429534912109375,-0.9985809326171875,0.0000457763671875
1738772469201881900,12.4578818359375,-0.0444793701171875,-0.9998626708984375,-0.000396728515625
1738772469211874000,12.4678740234375,-0.042999267578125,-0.9996337890625,-0.0008697509765625
1738772469221865000,12.477864990234375,-0.0441741943359375,-0.99859619140625,-0.0008087158203125
1738772469231855900,12.48785595703125,-0.045257568359375,-0.99957275390625,-0.000457763671875
1738772469241847000,12.497846923828124,-0.0443572998046875,-0.99993896484375,0.0006866455078125
1738772469251838000,12.507837890625,-0.044677734375,-0.99932861328125,-0.0002899169921875
1738772469261830000,12.517829833984376,-0.04443359375,-0.9994964599609375,-0.0003509521484375
1738772469271821000,12.527821044921875,-0.044097900390625,-0.999481201171875,-0.001556396484375
1738772469281812000,12.53781201171875,-0.0430908203125,-1.00006103515625,-0.0002288818359375
1738772469291803000,12.547802978515625,-0.042510986328125,-0.99920654296875,-0.0001678466796875
1738772469301794000,12.5577939453125,-0.042755126953125,-0.99920654296875,0.000396728515625
1738772469311786000,12.567785888671875,-0.0443572998046875,-0.999176025390625,-0.0006103515625
1738772469321777000,12.57777685546875,-0.0447845458984375,-1.0002593994140625,-0.0002288818359375
1738772469331768300,12.587768310546876,-0.0461883544921875,-1.00103759765625,0.00054931640625
1738772469341759200,12.59775927734375,-0.0465087890625,-0.9990997314453125,-0.0010223388671875
1738772469351750100,12.607750244140625,-0.0451507568359375,-0.9982147216796875,0.000091552734375
1738772469361741300,12.6177412109375,-0.044097900390625,-0.99835205078125,-0.0012054443359375
1738772469371733200,12.627733154296875,-0.0439910888671875,-0.99786376953125,-0.0000762939453125
1738772469381724400,12.637724365234375,-0.0442657470703125,-0.99920654296875,-0.0004425048828125
1738772469391715300,12.64771533203125,-0.0447845458984375,-1.0001373291015625,-0.0001068115234375
1738772469401706200,12.657706298828124,-0.044952392578125,-0.9983673095703125,0.000396728515625
1738772469411697200,12.667697265625,-0.043426513671875,-0.9975128173828125,0.001007080078125
1738772469421689300,12.677689453125,-0.0439910888671875,-1.000030517578125,-0.0004730224609375
1738772469431680300,12.68768017578125,-0.043609619140625,-1.0003662109375,-0.0006256103515625
1738772469441671400,12.69767138671875,-0.0441131591796875,-0.9987030029296875,-0.0007781982421875
1738772469451662300,12.707662353515625,-0.0453948974609375,-0.9988250732421875,0.000152587890625
1738772469461653200,12.7176533203125,-0.0453033447265625,-0.9995574951171875,-0.000030517578125
1738772469471645400,12.7276455078125,-0.0444488525390625,-1.0001373291015625,-0.00054931640625
1738772469481636400,12.73763623046875,-0.0439605712890625,-0.999481201171875,0.0001678466796875
1738772469491627300,12.747627197265626,-0.0443878173828125,-0.9996185302734375,-0.000701904296875
1738772469501618200,12.7576181640625,-0.043426513671875,-0.9996185302734375,-0.0008392333984375
1738772469511609300,12.767609375,-0.0459747314453125,-0.9991912841796875,-0.0005035400390625
