time,seconds_elapsed,z,y,x
1738772456769081000,0.0250810546875,-0.07467555748429149,-0.0038157588958740232,-0.0060952703972434385
1738772456779072000,0.035072021484375,-0.023123649423383175,0.006994388931989669,-0.00950075486288406
1738772456789063000,0.04506298828125,0.02591072285864502,0.014055997881293296,-0.00208874815901072
1738772456799055000,0.05505517578125,0.033056502960063516,-0.00912321765422821,-0.0037018250764464028
1738772456809046000,0.0650458984375,0.03444295234978199,0.0028460370808839797,-0.006270297599764308
1738772456819037200,0.075037109375,0.03320204891059547,-0.000015197569131851195,-0.004779969993751729
1738772456829028000,0.085028076171875,0.04744684736225754,-0.006177811852097511,-0.017535392970760583
1738772456839019000,0.09501904296875,0.015375300318934023,0.000824175864458084,-0.008402721359953284
1738772456849011200,0.10501123046875,-0.030362953027151522,0.0031961656928062437,-0.012819332225807011
1738772456859002000,0.115002197265625,-0.05613455967605114,-0.0038420623809099193,-0.0028174029289773895
1738772456868993000,0.124992919921875,-0.06343753963317722,0.0006593406915664673,0.010990056130656739
1738772456878984000,0.13498388671875,-0.04411152892708778,-0.0015595044016838073,0.00009304137168473971
1738772456888976100,0.14497607421875,-0.015195267576910554,-0.007670096236467361,-0.003906264461475075
1738772456898967000,0.154967041015625,0.03244385095443576,-0.005557634127140045,0.007599306297377916
1738772456908958200,0.164958251953125,0.03745791625678539,-0.00001052139401435852,-0.006157988340198062
1738772456918949000,0.17494921875,0.03555705107152462,0.004169979161024093,-0.005232957904416253
1738772456928941000,0.184941162109375,0.019141959376074373,0.0011555997759103774,0.005327761760866269
1738772456938932200,0.19493212890625,0.024222623641230165,-0.009787819042801857,-0.006330486229737289
1738772456948923100,0.204923095703125,-0.008390190671943128,0.0117465518951416,0.003773114199512929
1738772456958914000,0.2149140625,-0.03642448155581951,0.010694412493705749,0.007118640932743437
1738772456968905000,0.224905029296875,-0.04667754349019378,0.0024748656809329985,0.0037090454059216424
1738772456978897200,0.234897216796875,-0.03487608307003975,0.0015910685837268828,-0.004672733916113793
1738772456988888000,0.24488818359375,-0.006827800193428993,0.0011591069072484968,0.004271451932744821
1738772456998879200,0.254879150390625,0.019250059393048285,-0.007059855383634567,-0.00855611554433417
1738772457008870100,0.2648701171875,0.019393267256021498,0.00042903906702995297,-0.009183782456003245
1738772457018862000,0.274862060546875,0.03480477139949798,-0.018724574214220045,0.008825480812424211
1738772457028853200,0.284853271484375,0.021332710886001586,-0.0021276596784591674,-0.004859612813687999
1738772457038844200,0.29484423828125,0.011124036082625388,0.0065332011610269546,-0.005075501749559771
1738772457048835000,0.3048349609375,-0.017341631955839692,0.0018821604847908018,-0.009927841718134003
1738772457058826000,0.314825927734375,-0.03311203253958374,-0.005753448960185051,0.002513206949045707
1738772457068818200,0.324818115234375,-0.03348605348374695,-0.015925298884510993,-0.005762524461673456
1738772457078809000,0.33480908203125,-0.03137245886325836,0.002044073048233986,-0.001303373645324609
1738772457088800300,0.34480029296875,0.002104826792143285,-0.011857611054182052,-0.0003896915821584116
1738772457098791200,0.354791259765625,-0.00323711875770241,-0.01005085389316082,-0.00016547606346939574
1738772457108783000,0.364783203125,0.011583433755300939,-0.00480710802078247,0.0012329841379789285
1738772457118774300,0.374774169921875,0.018141769357584416,0.006267243701219559,-0.0008727008139259851
1738772457128765200,0.38476513671875,0.03165244484841823,0.005810147583484649,-0.007284931131315534
1738772457138756000,0.394756103515625,0.010343114838004111,0.0032557869255542752,-0.005363550597699941
1738772457148747300,0.404747314453125,-0.006494586183689534,0.007286065354943275,-0.004470408000124735
1738772457158739200,0.4147392578125,-0.011260777672193944,-0.015616086804866789,0.0034711275867433866
1738772457168730000,0.424730224609375,-0.025941081464290618,0.00338847339451313,0.013966971315903355
1738772457178721300,0.43472119140625,-0.03254205063190311,-0.005432546442747116,0.006554173167108092
1738772457188712200,0.444712158203125,-0.02876662374641746,-0.012603460985422133,-0.0035870721272221995
1738772457198703000,0.454703125,-0.002073847131989896,0.0020715455770492553,-0.0031198661782487758
1738772457208695300,0.4646953125,0.024053112293221057,0.00132628016769886,-0.006128716009118943
1738772457218686200,0.474686279296875,0.016353241972997784,-0.006757657566666603,0.005007032202542177
1738772457228677000,0.484677001953125,0.010164872194267809,-0.007666589105129242,-0.007642237831873353
1738772457238668300,0.494668212890625,0.02072009541299194,0.004892448216676712,0.009344705784646794
1738772457248660000,0.504659912109375,-0.012640249331854283,-0.0021539631634950635,0.008227585701222414
1738772457258651100,0.514651123046875,-0.024058299924992022,0.0032283143967390057,-0.0017957571326274774
1738772457268642300,0.524642333984375,-0.0338935017734766,-0.0021539631634950635,-0.004602004769584164
1738772457278633200,0.53463330078125,-0.029018004691600797,-0.002286649632453918,-0.0008045815376550308
1738772457288625000,0.544625,-0.0020388123512268064,-0.005561141258478165,-0.005428982229193207
1738772457298616000,0.554615966796875,0.009887772285938262,0.004921674311161041,-0.013375234234140953
1738772457308607000,0.56460693359375,0.01219608576092869,0.0023819267004728316,0.007096593497716821
1738772457318597600,0.57459765625,0.03201605399642139,0.0008890577942132949,-0.0033416437155014134
1738772457328588500,0.584588623046875,0.02009531457815319,-0.0027110125243663785,0.00653134827230242
1738772457338580500,0.59458056640625,0.020513211196660993,-0.0030289924323558806,-0.019132990618329494
1738772457348571600,0.604571533203125,0.0025210429102182387,0.009821721312403678,-0.01747460611916613
1738772457358562600,0.6145625,-0.012399462845921515,0.0027805706292390823,-0.012152000024029984
1738772457368553500,0.624553466796875,-0.02573532975912094,-0.006346738678216934,-0.0059598890768771525
1738772457378544600,0.634544677734375,-0.022341632200218734,-0.005440729749202728,0.02012143311680993
1738772457388536600,0.64453662109375,-0.007592391357757151,-0.015749357795715332,-0.0005858236496176686
1738772457398527500,0.654527587890625,0.01615907110776752,0.013146481820940971,-0.01664691855679266
1738772457408518700,0.6645185546875,0.015863887553475797,-0.013483166429400444,-0.007639342621888499
1738772457418509600,0.674509521484375,0.02398644026517868,-0.018273323315382003,-0.013654180181329138
1738772457428501200,0.684501220703125,0.010112813213467598,-0.008854922106862067,0.006372292102937353
1738772457438492400,0.694492431640625,-0.0019563947647809983,-0.005578092393279075,0.002078958130886167
1738772457448483600,0.704483642578125,-0.01492810454070568,0.005337269374728203,-0.017435738838434918
1738772457458474500,0.714474609375,-0.01476790901031345,0.007873509854078293,-0.00022583522656204877
1738772457468465700,0.724465576171875,-0.022320552879571912,-0.00020399813950061797,0.008119326995688606
1738772457478457300,0.734457275390625,-0.014746939287520943,-0.010819500178098677,0.002622286211431492
1738772457488448300,0.7444482421875,-0.012634440645575522,-0.0007803367227315903,0.0044219999978464325
1738772457498439400,0.754439453125,-0.0005979658931493759,0.0022223522245883942,-0.016136396910011536
1738772457508430600,0.7644306640625,0.01907415483687073,0.0016273089408874511,-0.01072010405738838
1738772457518422300,0.77442236328125,0.026378924892283974,-0.008702946415543556,0.0009417793568332854
1738772457528413400,0.784413330078125,0.018555683920718727,0.0016103578060865402,0.006943396246980409
1738772457538404400,0.794404296875,0.006571195083856582,-0.0007967033356428146,0.0005709575854540162
1738772457548395500,0.8043955078125,0.00007602437827736138,-0.00229658650457859,-0.017687253356003203
1738772457558386700,0.81438671875,-0.01564648194313049,-0.0016974515676498412,0.004285354306400404
1738772457568378400,0.82437841796875,-0.014407880058884619,0.0018985270977020263,-0.0010006583780705113
1738772457578369300,0.834369384765625,-0.01469371126294136,0.00265256033539772,-0.005420809768358594
1738772457588360400,0.8443603515625,-0.010970270293019712,0.0038572599500417705,-0.00023879902588450931
1738772457598351400,0.854351318359375,0.007870075787976384,0.0017693477600812912,-0.00366949998846685
1738772457608343300,0.86434326171875,0.01660104272160679,-0.001668225473165512,-0.00668743959137937
1738772457618334500,0.87433447265625,0.00269468244407326,0.0058066404521465295,0.0003789885239923023
1738772457628325400,0.884325439453125,-0.0013437792917713521,-0.003477320721745491,-0.0015145070617989403
1738772457638316300,0.89431640625,0.002211867363192141,-0.000789104551076889,-0.007144806278817122
1738772457648307500,0.904307373046875,-0.011582264711521566,0.0020487492233514783,-0.00042297422430783625
1738772457658299400,0.91429931640625,-0.01929389853477478,0.0007055179208517074,-0.006533700630415114
1738772457668290300,0.924290283203125,-0.013556852720119058,0.0010088847815990446,0.004876394414308015
1738772457678281500,0.934281494140625,-0.000751110628247261,-0.0051233343631029125,0.0000893931759208499
1738772457688272400,0.9442724609375,-0.009305003961920738,-0.006910802301764488,-0.012529383110703202
1738772457698264300,0.954264404296875,-0.004084638965129852,0.012093173375725746,0.0036706273622286968
1738772457708255500,0.96425537109375,-0.00623275690972805,0.0010223287850618362,0.004143329757760512
1738772457718246400,0.974246337890625,0.002742576706409454,-0.006907879692316055,-0.002941497382815578
1738772457728237300,0.9842373046875,0.0011234510719776152,-0.004514847075939178,-0.0019098590591805987
1738772457738228500,0.994228515625,-0.012439210334420204,-0.013645663514733314,-0.0072464765550044824
1738772457748220400,1.004220458984375,-0.025009353572130202,-0.01170037466585636,-0.008608506743630277
1738772457758211300,1.01421142578125,-0.007652524047158658,0.00490998387336731,0.00021110901382708107
1738772457768202500,1.024202392578125,-0.006052724167704582,-0.0027197803527116773,-0.0008220211535175622
1738772457778193400,1.034193359375,-0.011572948893904686,-0.004665653723478317,-0.010891779963020235
1738772457788184300,1.044184326171875,0.004708908343315124,-0.007357961547374725,-0.003852961659192806
1738772457798176500,1.054176513671875,0.01356145583000034,-0.007651976057887077,0.00031299391914581064
1738772457808167400,1.06416748046875,-0.0015525266716256737,0.0026730186015367506,0.0028140436405781656
1738772457818158300,1.074158447265625,0.014606032979488372,0.004162964898347854,0.006987593865022063
1738772457828149500,1.0841494140625,-0.00796644883453846,-0.0054214405268430705,-0.010230775895685655
1738772457838141400,1.094141357421875,-0.004447590526007116,-0.000786181941628456,-0.004935540723020676
1738772457848132400,1.10413232421875,-0.007336297704838216,-0.010211012890934944,0.0005251805025014619
1738772457858123500,1.11412353515625,-0.004528839068673551,-0.0012310030996799469,0.001230561711446353
1738772457868114400,1.124114501953125,-0.006126337393186986,0.00011982698738574981,-0.007705527738630189
1738772457878105300,1.134105224609375,-0.006442015746235847,-0.002273205628991127,-0.0014375455362438515
1738772457888097500,1.14409765625,0.004631203464604914,-0.005116320100426674,-0.00486322554712533
1738772457898088400,1.15408837890625,0.0032546544143930074,-0.01259703124463558,-0.004737350698976661
1738772457908079400,1.164079345703125,0.00511865818798542,0.011641337954998016,0.0002635904030241363
1738772457918070500,1.174070556640625,0.007451521582342684,-0.0031768764704465866,0.0022210399044473887
1738772457928061400,1.1840615234375,-0.01083699930217117,-0.00812017809152603,0.003072358362513478
1738772457938053400,1.194053466796875,0.008242379699088632,-0.007525134807825088,0.0014928075428775626
1738772457948044500,1.20404443359375,0.007411774093843996,0.002198386827111244,-0.0014187970251732622
1738772457958035500,1.214035400390625,-0.010185257395170629,-0.01111526825428009,-0.006427556250154157
1738772457968026400,1.2240263671875,0.0009674202600494027,-0.003929740664362907,-0.011838404030213133
1738772457978018600,1.2340185546875,-0.0006283244987949729,-0.0067681789606809616,-0.003230510349580436
1738772457988009500,1.244009521484375,0.005841090711019933,-0.0030289924323558806,-0.00400580271690269
1738772457998000400,1.25400048828125,0.0012608137160539626,0.00355272404551506,-0.009852643890341278
1738772458007991600,1.263991455078125,0.010322693104483187,-0.0051303486257791514,-0.012801152681722305
1738772458017982500,1.273982421875,-0.008772467987798153,-0.007526888373494148,-0.000020108922978397458
1738772458027974400,1.283974365234375,-0.00460424239244312,-0.0048322424620389935,-0.002994418019663135
1738772458037965600,1.293965576171875,-0.024725275933742522,0.0007078560084104537,-0.007019166038575349
1738772458047956500,1.30395654296875,0.007834346887469291,0.0059475102275609966,-0.005692971494200174
1738772458057947400,1.313947509765625,0.004449344091676175,-0.0012380173623561857,0.009616718525905161
1738772458067939600,1.323939697265625,0.0016764087796211243,0.001309329032897949,-0.0005019353398820385
1738772458077930500,1.333930419921875,0.009371639457345008,0.0019055413603782652,-0.005008222937563551
1738772458087921400,1.34392138671875,0.011177227574586867,-0.002883446481823921,0.007253960033494513
1738772458097912600,1.35391259765625,-0.008664367970824241,-0.004082885399460792,-0.002918517224382958
1738772458107903500,1.363903564453125,0.003454524368047714,-0.013965396988391875,0.003082345466988045
1738772458117895400,1.3738955078125,-0.002450936816073954,-0.003643909460306167,-0.002715732938201108
1738772458127886600,1.383886474609375,-0.011633154648542404,0.007730301991105079,-0.008113523446809268
1738772458137877500,1.39387744140625,0.002632138601876795,0.009231354203820229,0.0052219621571886815
1738772458147868400,1.403868408203125,0.004396225664950907,-0.007676525977253913,-0.010588698513351846
1738772458157859600,1.413859619140625,0.007916143419407308,-0.009924597164988518,-0.0025664717916544758
1738772458167851500,1.4238515625,0.0014846855998039245,-0.0028916297882795334,0.0019205000404370366
1738772458177842400,1.433842529296875,-0.00649286915063858,-0.0011000701963901518,-0.011659949040634091
1738772458187833600,1.44383349609375,-0.0018260463833808898,-0.008434066346287726,-0.006583544250420527
1738772458197824500,1.453824462890625,-0.008767207290790974,-0.009784896433353424,-0.0005468446304490498
1738772458207815400,1.4638154296875,-0.0028606501281261444,-0.002605214062333107,-0.0033315187574757144
1738772458217807600,1.4738076171875,-0.006643675798177718,0.0033820436537265776,-0.012330373956862603
1738772458227798500,1.483798583984375,-0.0035048297831788656,-0.011276011773943901,0.00819513389072381
1738772458237789400,1.49378955078125,0.0023532485952600835,0.012522212442755698,0.0004436172941204859
1738772458247780600,1.503780517578125,-0.001904993371106684,0.0038461540341377257,-0.007194317109504481
1738772458257772500,1.5137724609375,-0.0007856339523568749,-0.010671616140007972,-0.00260591902769811
1738772458267763500,1.523763427734375,-0.0011368950754404067,0.0021931261301040648,0.0025879426963016155
1738772458277754600,1.533754638671875,0.0038537893513217567,-0.007087327912449836,-0.011851274928229395
1738772458287745500,1.54374560546875,-0.011951719078421592,0.0005424363136291504,-0.007251052265422185
1738772458297736400,1.553736328125,0.00047580081820487974,-0.0009545242458581924,-0.013066123760840855
1738772458307728600,1.563728759765625,0.000048515316843986505,0.010274141255021095,-0.011505728876590729
1738772458317719800,1.5737197265625,0.009548128535412252,-0.004686111989617347,-0.006766693681426113
1738772458327710700,1.583710693359375,0.0006313201734796166,0.00518704724907875,-0.006306958082033088
1738772458337702000,1.593701904296875,0.005804923419095575,0.005788520273566245,-0.0024177366577263454
1738772458347692800,1.60369287109375,0.009247099762223661,-0.0022919103294610976,-0.003768925791929359
1738772458357684700,1.613684814453125,0.013545089217089116,0.011319850915670395,-0.004524779666897666
1738772458367676000,1.623676025390625,0.0004922039637342095,-0.004845686465501785,-0.0074701383762003385
1738772458377666800,1.633666748046875,0.0020587591607123612,-0.0002034136176109314,-0.007200523088005138
1738772458387657700,1.64365771484375,-0.005160122709535062,-0.0005015197813510895,0.0006532086345352582
1738772458397649000,1.65364892578125,0.0015834697991609571,0.0033890579164028165,-0.01198952577158343
1738772458407640600,1.663640625,-0.0020569325298070906,-0.0012479542344808578,-0.010781356699863682
1738772458417631700,1.6736318359375,0.0014150909623131156,-0.004683773902058601,-0.008704893489924143
1738772458427623000,1.683622802734375,0.00045713265035301446,-0.0015390461355447769,-0.005936691435202374
1738772458437613800,1.69361376953125,0.0031342429051175714,0.0013046528577804564,0.0001451423792663263
1738772458447605500,1.70360546875,0.013184512276388704,-0.0013894085317850112,-0.008536926215852145
1738772458457596700,1.7135966796875,-0.018031331253051758,-0.014710077875852583,0.0012834034321305807
1738772458467587600,1.723587646484375,-0.017498831811547277,-0.0034901802033185957,0.01044079278401914
1738772458477578800,1.733578857421875,-0.007027122157812118,-0.005143208107352256,-0.0038409090347398885
1738772458487570000,1.74356982421875,-0.019282171564362943,-0.011428571987152098,-0.008786034147202736
1738772458497561600,1.7535615234375,-0.009354688322544097,0.004580313527584075,-0.004517418915171583
1738772458507552500,1.763552490234375,-0.00790737559106201,-0.0008048866420984267,-0.0031293737921107095
1738772458517543700,1.773543701171875,0.002254537461139262,0.003834463596343994,0.003079416007673717
1738772458527534800,1.783534912109375,0.0017085940161719918,0.008470891225337982,-0.0036495865720775327
1738772458537525800,1.79352587890625,0.011289528842642903,-0.003057634004950523,-0.005226428269752068
1738772458547517700,1.803517578125,-0.0028454160263761876,-0.0026128128468990326,0.00427582500129647
1738772458557508600,1.813508544921875,0.007132372630573809,-0.0038140053302049633,-0.008637263622300816
1738772458567499500,1.82349951171875,-0.0014525368958711623,-0.0035194062978029248,-0.0006356889608650818
1738772458577490700,1.83349072265625,-0.0027881694138050077,0.003214285871386528,0.004501158189770649
1738772458587481900,1.84348193359375,-0.007631481259129941,-0.0005243161350488662,0.0018414417423904524
1738772458597473500,1.8534736328125,-0.008316540913842619,-0.0042681788384914396,0.0040244038131510024
1738772458607464700,1.863464599609375,0.005440181759931147,-0.009205635240674019,-0.017746675942640285
1738772458617455600,1.87345556640625,0.004106887329556047,0.007104279047250747,-0.0017750883758177224
1738772458627446500,1.883446533203125,0.0007049333989620208,-0.001121112984418869,0.002422739343118155
1738772458637437700,1.893437744140625,-0.00433481433391571,-0.0011228665500879287,-0.004577764235826907
1738772458647429600,1.9034296875,-0.006809058960340917,-0.000827098473906517,0.008592139559896895
1738772458657420500,1.913420654296875,-0.015382862570881842,-0.003076338705420494,0.007540726815068046
1738772458667411700,1.92341162109375,0.005525485423207283,-0.010413257464766502,-0.006002671055967221
1738772458677402600,1.933402587890625,0.005441898792982101,-0.005178863942623138,0.004693314052783535
1738772458687394600,1.94339453125,-0.002474902213551104,0.004397358176112175,0.0011460474952145886
1738772458697385700,1.9533857421875,-0.004686148522235453,-0.003235328659415245,-0.0005409553155404864
1738772458707376600,1.963376708984375,0.0014449381113052367,-0.014607786545157432,-0.017035417834168766
1738772458717367600,1.973367431640625,0.015139153475500643,-0.0005453589230775832,-0.0027347330391377907
1738772458727358700,1.983358642578125,-0.002766505571268499,-0.00189443544447422,-0.006394227656821022
1738772458737350700,1.9933505859375,0.01404664553105831,0.0037894554108381267,-0.0004096174139296636
1738772458747341600,2.003341552734375,0.010846351652406156,0.012014847442507743,-0.0009005538670622627
1738772458757332700,2.013332763671875,-0.008332944059371948,-0.0018996961414813995,-0.002572547337292053
1738772458767323600,2.02332373046875,-0.01820431319978088,0.0004945055186748505,0.0037772147004841825
1738772458777314600,2.033314453125,-0.004251191171072423,-0.006384148079156876,-0.011047242236079181
1738772458787306800,2.043306640625,0.005879157699085771,-0.009075871381163596,-0.009485608667746418
1738772458797297700,2.053297607421875,-0.0008832125753164291,-0.010720715978741645,0.003220156206458341
1738772458807288600,2.06328857421875,-0.0016892317285761237,-0.0072761284828186034,0.0073560635636997175
1738772458817279700,2.07327978515625,-0.0021434052368625995,0.0033481413841247557,0.01157815365034039
1738772458827271700,2.083271728515625,0.014073533537983893,-0.00487725064754486,-0.015683363904396536
1738772458837262600,2.0932626953125,-0.017580043821595608,-0.00696866996884346,-0.00042401511851276153
1738772458847253800,2.103253662109375,0.005384067658521234,0.004101590099930763,0.004797044996960903
1738772458857244700,2.11324462890625,0.00702591658141464,0.0020066636472940444,0.0018903947371240065
1738772458867235600,2.123235595703125,-0.0015150807380676268,0.011734276935458183,0.006006874590337974
1738772458877227800,2.133227783203125,-0.004896503337286412,-0.00832066909968853,0.006163263878581347
1738772458887218700,2.14321875,-0.007529189928434789,-0.0021878654330968854,-0.006605170418694615
1738772458897209600,2.153209716796875,-0.0003062164049595594,-0.003835632640123367,0.0008306026084283076
1738772458907200800,2.16320068359375,-0.0018669263830408452,0.00873626416325569,-0.009628805114276474
1738772458917191700,2.173191650390625,0.0035358094433322546,-0.0021808511704206465,-0.013725511259824269
1738772458927183600,2.18318359375,0.00315232655107975,0.006794482445716858,-0.003755829133749648
1738772458937174800,2.1931748046875,0.00046352585852146145,-0.009815876093506813,0.00009092155224861926
1738772458947165700,2.203165771484375,-0.002366765663959086,-0.005327332502603531,0.0013511758625878428
1738772458957156600,2.213156494140625,0.001581752766110003,0.002900397616624832,0.006741008967609377
1738772458967148800,2.223148681640625,0.00686524612698704,-0.004284545451402664,-0.001672670037192438
1738772458977139700,2.2331396484375,0.0057242593983188265,0.00424245987534523,-0.017853374020394403
1738772458987130600,2.243130615234375,0.0040653862753883005,0.007235796472430229,-0.0012717326877012965
1738772458997121800,2.253121826171875,0.0025847923288121817,-0.0023415946900844573,0.002272389638716413
1738772459007112700,2.26311279296875,-0.006746515118144452,0.0063397244155406944,-0.009653606195392786
1738772459017104600,2.273104736328125,-0.0023316578179597854,0.0030447745233774183,-0.0016047096635396882
1738772459027095800,2.283095703125,-0.004914660048484802,-0.0036877486020326614,0.0037864474634770884
1738772459037086700,2.293086669921875,-0.010844634619355201,0.0010983166307210921,-0.011961586310243001
1738772459047077600,2.30307763671875,-0.007140446339175105,-0.012367314141988753,-0.005438605719953193
1738772459057069800,2.31306982421875,0.01076112105436623,0.0017009586989879606,-0.015247399622946977
1738772459067060700,2.323060791015625,-0.006370119553804397,0.008438157999515533,0.0019115327097475527
1738772459077051600,2.3330517578125,0.005001132755540311,0.002452069327235222,-0.008419327147348667
1738772459087042800,2.343042724609375,-0.007052256599068641,0.0024497312396764754,-0.0036650455777577006
1738772459097033700,2.35303369140625,0.0035042087286710735,0.007234627428650856,0.008306334613659419
1738772459107025700,2.363025634765625,-0.0034790742874145505,-0.002793430110812187,-0.00043715259047676227
1738772459117016800,2.373016845703125,0.0010637933066114783,-0.010278232908248901,-0.01658717516810284
1738772459127007700,2.3830078125,-0.0034749826341867445,0.003042436435818672,-0.0038768842450081138
1738772459136998700,2.39299853515625,0.005077741655707359,-0.00010112228691577911,0.004406818697146081
1738772459146989800,2.40298974609375,-0.007026537635922431,-0.014916414102911947,0.004110732387611642
1738772459156981800,2.412981689453125,-0.007392448338866233,-0.01476385388970375,0.002752691104225232
1738772459166972700,2.42297265625,-0.00211943983938545,0.006632569882273674,-0.00042004048382732434
1738772459176963800,2.4329638671875,0.006324563379026949,0.012023615270853041,-0.007321596750983735
1738772459186954800,2.442954833984375,-0.007433328338526189,-0.002042904004454613,0.0025050227863568576
1738772459196946700,2.45294677734375,-0.020244331127405167,0.004545242214202881,-0.008710321437823586
1738772459206937900,2.462937744140625,-0.004808240531943738,-0.005032148948311805,-0.011681687090051128
1738772459216928800,2.4729287109375,0.006718494600057602,-0.008474398356676101,0.0003442574206172139
1738772459226919700,2.482919677734375,-0.002786415848135948,-0.008776596173644065,0.009610003374039661
1738772459236910800,2.492910888671875,0.0153150580316782,-0.006083119305968284,-0.0025545533104086643
1738772459246902800,2.50290283203125,-0.004324804396554828,0.000353051221370697,0.0002426916048847488
1738772459256893700,2.512893798828125,-0.0011339359333738684,-0.015204583394527434,0.0015633791424916124
1738772459266884900,2.522884765625,0.002172667863965034,0.0057435120880603785,-0.01254274377413094
1738772459276875800,2.532875732421875,-0.010465243380330502,0.001550152051448822,-0.005326623541483422
1738772459286866700,2.54286669921875,0.006946494669653475,0.002146364378929138,-0.005820260839656112
1738772459296859000,2.55285888671875,-0.0021615619480609893,-0.002792261067032814,-0.0024386570044021938
1738772459306849800,2.562849853515625,-0.006121697750687599,-0.0072784665703773494,-0.0021864356662968927
1738772459316840400,2.57284033203125,-0.011808511215448379,-0.0017418752312660217,-0.006070428216931759
1738772459326831400,2.582831298828125,0.009784932965971528,0.007533902636170387,-0.004875466828301432
1738772459336823600,2.592823486328125,0.015593911505676804,-0.00010346037447452545,-0.004667141856843955
1738772459346814500,2.602814453125,-0.0002548150112852454,-0.008483750706911087,-0.011020049410121281
1738772459356805400,2.612805419921875,-0.0003091755470260978,0.009618307694792747,-0.0002848018690005119
1738772459366796500,2.622796630859375,-0.0032160394370555874,0.004084638965129852,0.0009046623595437267
1738772459376787500,2.632787353515625,-0.0009346505016088485,-0.005786766707897186,-0.012924310987221542
1738772459386779400,2.642779296875,-0.0057317485850304365,0.017706921604275703,-0.008833881031299824
1738772459396770600,2.6527705078125,0.013731003710627555,-0.00010053776502609253,0.008490114232327322
1738772459406761500,2.662761474609375,0.002826199869252741,-0.00338671982884407,-0.004756292290642158
1738772459416752400,2.67275244140625,-0.004407258515618741,-0.007125321835279464,-0.0008798325946139812
1738772459426743300,2.682743408203125,0.008058255303837358,0.0026057985842227933,0.002842890138327493
1738772459436735500,2.692735595703125,0.0041810850769281385,-0.00023790040910243987,-0.006595932803713367
1738772459446726400,2.702726318359375,0.002360299390554428,-0.006521510723233223,-0.008122203939364407
1738772459456717600,2.712717529296875,0.007635024923086166,-0.006822539496421813,-0.00510641633598716
1738772459466708500,2.72270849609375,-0.005088263049721717,0.0008089782953262329,-0.006085733671451453
1738772459476700400,2.732700439453125,-0.006761712687276303,0.0073942019045352934,-0.005148898633444332
1738772459486691600,2.742691650390625,0.0038187180379405617,0.003805237501859665,0.007397576034310622
1738772459496682500,2.7526826171875,-0.0011187748968601225,0.0073965399920940395,-0.001965268766047666
1738772459506673400,2.76267333984375,-0.0005523366531357169,0.013383213186264037,-0.0020002493187057553
1738772459516664300,2.772664306640625,0.0035439562171697614,0.004702478602528572,-0.006649581524223322
1738772459526656500,2.782656494140625,-0.013839688249491154,-0.008016133195161819,-0.0015172395874687935
1738772459536647400,2.7926474609375,-0.0011480009913444518,-0.008763152170181273,0.00527328363576089
1738772459546638600,2.802638671875,-0.0018967735320329665,-0.006817863321304321,-0.01259298754046904
1738772459556629500,2.81262939453125,0.012794636175967752,0.001710311049222946,-0.012329627321480074
1738772459566620400,2.822620361328125,-0.01057513349559158,-0.010858078622817992,-0.015840934794506756
1738772459576612400,2.8326123046875,0.0065998366564512245,0.00680091218650341,-0.0003498627515022235
1738772459586603500,2.842603515625,0.002851334310509264,0.0066512745827436446,-0.00009273758726758388
1738772459596594400,2.852594482421875,-0.0004874912559986114,-0.008908698120713234,-0.004978586992769851
1738772459606585300,2.86258544921875,-0.011156769308447837,0.005009937116503715,0.007960178923956118
1738772459616577300,2.872577392578125,0.015811901637911796,-0.007404723298549651,-0.02364182351201307
1738772459626568200,2.882568115234375,0.007446260885335504,-0.008752630776166915,-0.012677302539767697
1738772459636559400,2.892559326171875,0.0008422595104202627,0.0015729484051465988,-0.00008256146930598333
1738772459646550500,2.902550537109375,0.004589702410437166,-0.005908931782841682,-0.005389029815539834
1738772459656541400,2.91254150390625,-0.010243161594867706,-0.0015688567519187926,-0.007168056436130428
1738772459666533400,2.922533447265625,0.013339922033809124,-0.00485854594707489,-0.0035899045467696847
1738772459676524300,2.932524169921875,-0.005070179403759539,0.003970657196640968,-0.013799061694869306
1738772459686515500,2.942515380859375,-0.01923139122519642,0.005621347013115882,0.001048485854214232
1738772459696506400,2.95250634765625,0.006733071114681661,0.005175356811285018,0.010263949796214
1738772459706497500,2.96249755859375,-0.001124583583138883,-0.0015548282265663146,-0.006920067316209315
1738772459716489200,2.9724892578125,0.005382862082123756,0.002638531810045242,-0.011641863111383282
1738772459726480400,2.98248046875,-0.006214052209258079,0.010123919129371642,-0.005188288787272176
1738772459736471300,2.99247119140625,0.003702909638546407,0.0007014262676239013,-0.016968635066627758
1738772459746462500,3.00246240234375,0.006840038620494306,-0.007671265280246734,-0.0059789448329742294
1738772459756454400,3.012454345703125,0.008202559145353734,0.005352466943860054,-0.0006682283925649243
1738772459766445300,3.0224453125,0.012141104170680045,-0.0018318916022777557,-0.0019780417680638493
1738772459776436200,3.032436279296875,0.01001636710166931,0.008038929548859595,-0.007510389900664449
1738772459786427400,3.042427490234375,-0.0010398279091343283,-0.0024368717581033706,-0.01725911276304978
1738772459796418300,3.052418212890625,-0.0054752165406942365,0.008933832561969756,-0.003902222755186085
1738772459806410200,3.06241015625,0.007204232290387153,0.0026508067697286605,-0.010499265522585483
1738772459816401400,3.0724013671875,0.0014899097641929984,0.0011550152540206909,-0.008650333737250184
1738772459826392300,3.082392333984375,-0.002858348573185503,-0.007972294053435325,-0.0006613498428567254
1738772459836383200,3.09238330078125,0.00545822887327522,-0.008268646651506423,-0.020880418807547537
1738772459846374400,3.10237451171875,0.005144925140403211,-0.004078209224343299,-0.00597106748719525
1738772459856366300,3.112366455078125,0.0019359364986419676,-0.009312602746486664,0.0004321420562802814
1738772459866357200,3.122357177734375,0.003952500485442579,-0.000030979660153388974,0.016727833739318885
1738772459876348400,3.132348388671875,-0.003625752749107778,0.001911386579275131,-0.01783979644454666
1738772459886339300,3.14233935546875,-0.0015770400583744047,-0.006472995406389236,-0.0003355634423885931
1738772459896330200,3.152330322265625,-0.0010474632263183592,-0.008864274457097053,-0.018555964765220413
1738772459906322400,3.162322509765625,-0.01387888774871826,-0.005872691425681114,0.00012894751247185922
1738772459916313300,3.172313232421875,-0.0026712650358676907,-0.0015326163947582245,-0.0042045156140433386
1738772459926304300,3.18230419921875,-0.012184358790516853,0.0019125556230545043,-0.002651130996714346
1738772459936295200,3.192295166015625,-0.006354300930164754,-0.0025695582270622254,-0.005816411215023254
1738772459946287400,3.202287353515625,0.0208224598089233,0.006111760878562927,-0.0065167871698766245
1738772459956278300,3.2122783203125,-0.006705598585866391,-0.006308160233497619,0.008214323790027992
1738772459966269400,3.22226953125,0.022024273346737025,0.00431610963344574,-0.00014048778836167912
1738772459976260400,3.23226025390625,0.0058745180565863845,-0.007811550533771514,-0.001759177992516197
1738772459986251300,3.242251220703125,-0.002728548181056976,-0.011555997759103775,0.012485861346096498
1738772459996243500,3.252243408203125,-0.011696283012628554,-0.0030272388666868206,-0.012529030342609621
1738772460006234400,3.262234375,-0.013243475922010839,-0.002881692916154861,-0.006515551339904778
1738772460016225300,3.272225341796875,-0.016199439650774,0.003102057668566704,0.003818171761135454
1738772460026216200,3.28221630859375,-0.014725859966874122,0.003708791390061378,-0.009460170549101895
1738772460036207400,3.292207275390625,0.0030137583306059238,0.00625496874153614,-0.004257699685316765
1738772460046199300,3.30219921875,0.00564819848742336,-0.0003267477363348007,-0.015338664952840189
1738772460056190500,3.3121904296875,0.008990531185269355,-0.007211831074953079,-0.00010032220830871665
1738772460066181400,3.322181396484375,0.010288754302263258,-0.0013806407034397125,0.0003789819952138714
1738772460076172300,3.33217236328125,0.008555646899342536,0.009533552020788193,-0.0034874433964825584
1738772460086163200,3.3421630859375,-0.015857457812689244,0.003392565047740936,-0.00381930198900809
1738772460096155400,3.3521552734375,-0.010120996519923209,-0.0024456395864486695,0.0005441645847413383
1738772460106146300,3.362146240234375,-0.01822714608609676,-0.007232873862981796,-0.005733645427061128
1738772460116137200,3.37213720703125,-0.01863218322303146,-0.004983633631467819,-0.0010461252191802486
1738772460126128400,3.38212841796875,0.003221921188570559,-0.0010866261929273605,-0.011981609609897713
1738772460136120300,3.392120361328125,0.0076005381315946575,0.014181085565686225,-0.0074982428051443995
1738772460146111500,3.402111572265625,0.002100187149643898,0.00505202269256115,0.0013872258505587523
1738772460156102400,3.412102294921875,0.009987725529074669,0.0014560440272092818,0.0015850215791972004
1738772460166093300,3.42209326171875,0.011440883479453623,-0.010818915656208992,-0.008614848577804514
1738772460176084200,3.432084228515625,0.005788556806184351,-0.004392682000994682,0.004397372161255043
1738772460186076400,3.442076416015625,-0.004956124570034444,-0.00783610045313835,-0.00402796288930549
1738772460196067300,3.4520673828125,-0.01353047616984695,-0.003344634252786636,-0.003353828485283884
1738772460206058200,3.462058349609375,-0.020874445724487302,-0.0010924714118242262,0.0057775553507352015
1738772460216049400,3.47204931640625,-0.00409866749048233,0.0029535891085863113,0.003258673287795682
1738772460226040300,3.482040283203125,0.006077274087071418,0.009394435811042785,-0.020865171006065792
1738772460236032500,3.492032470703125,0.012363807010650634,-0.0010807809740304947,-0.009883310739952139
1738772460246023400,3.5020234375,0.020450082832574844,-0.0037806875824928283,-0.003667622554389527
1738772460256014300,3.512014404296875,0.009330722925066948,0.008036591461300849,0.0012998174232809105
1738772460266005200,3.522005126953125,-0.012426898842118679,0.003243511965870857,-0.005161836317653069
1738772460275996400,3.531996337890625,-0.01996434514224529,0.004891863694787025,-0.006382730727738817
1738772460285988400,3.54198828125,-0.012864778802730143,0.002351531562209129,0.0015004782510353834
1738772460295979300,3.551979248046875,0.005566365422867238,-0.01559913567006588,-0.006333967674078303
1738772460305970400,3.561970458984375,0.007207154899835586,-0.0012339257091283798,-0.00640663561806723
1738772460315961300,3.57196142578125,0.009084639209508895,0.009992401704192161,-0.007839879866645787
1738772460325954300,3.581954345703125,0.010410919377207756,-0.0021276596784591674,-0.007335938657700898
1738772460335945200,3.5919453125,-0.00003507131338119507,0.004604863446950912,0.0023888266560119515
1738772460345936100,3.60193603515625,0.005341982082463801,-0.010358312407135964,0.009485473382894996
1738772460355927000,3.611927001953125,-0.010887268184684216,-0.009913491249084472,-0.0033717597217299044
1738772460365918200,3.621918212890625,-0.017619243320822715,-0.007817980274558068,0.002859776199402404
1738772460375910100,3.63191015625,-0.019683190113306045,-0.0051198272317647935,-0.0050827294997230635
1738772460385901000,3.641901123046875,0.014746354765631258,-0.015588029754161833,0.004984827220599982
1738772460395892200,3.651892333984375,0.022433986658789217,0.0016243863314390182,-0.002166183609662403
1738772460405883100,3.661883056640625,0.015364157870411873,-0.006754150435328483,-0.0056259369940875326
1738772460415874000,3.6718740234375,0.00697575729675591,-0.004216156390309334,0.012497235548414755
1738772460425866200,3.6818662109375,0.0034849195063114164,-0.0016764087796211243,-0.008645303081572638
1738772460435857200,3.691857177734375,0.004457600463367998,0.004455225843191146,-0.00818083422484633
1738772460445848000,3.70184814453125,-0.005628909265063702,-0.0016840075641870497,0.0009813964838216633
1738772460455839200,3.711839111328125,-0.009675042850710452,0.002356207737326622,-0.005911052957980428
1738772460465830100,3.721830078125,-0.012269114464521407,-0.004374561822414398,-0.007185756489602499
1738772460475822000,3.731822021484375,-0.006439093136787414,0.005507949766516685,-0.015764461750013288
1738772460485813200,3.741813232421875,0.010065466940402983,-0.002867079868912697,-0.007989262312900973
1738772460495804200,3.75180419921875,0.011911423600651323,-0.007208908465504646,-0.004603277417585195
1738772460505795000,3.761795166015625,0.008223674998618662,-0.003320668855309486,-0.014243664798856479
1738772460515786200,3.7717861328125,-0.0019961422532796856,0.0075982000440359115,-0.0028489702505423336
1738772460525778200,3.781778076171875,-0.007671813269518315,-0.0004892448216676712,-0.004657091961932019
1738772460535769000,3.79176904296875,0.002513517190888524,-0.005727145475149155,-0.020940334584529045
1738772460545760300,3.80176025390625,-0.014364588906429707,0.00010755202770233153,-0.0017306077726912917
1738772460555751200,3.811751220703125,-0.004218457945249975,-0.0018365677773952483,0.0009066521742333862
1738772460565742000,3.8217421875,-0.00782145087327808,0.0008639233529567718,-0.012488544210238614
1738772460575734000,3.831734130859375,-0.0033954511245712637,0.0034171149671077725,-0.0059558311021566624
1738772460585725200,3.84172509765625,0.007019523373246192,-0.00017126491367816925,0.0019612718692980707
1738772460595716000,3.851716064453125,0.014726444488763809,-0.012294833427667616,-0.012828637768625048
1738772460605707300,3.861707275390625,-0.009255319601297378,0.002664250773191452,-0.0070269663233630125
1738772460615699000,3.871698974609375,0.004360021840408444,-0.0015326163947582245,-0.011149009552033384
1738772460625689900,3.88168994140625,-0.012561959931254385,-0.012611644291877746,-0.011031022895284695
1738772460635681300,3.891681396484375,-0.02338555176258087,-0.01021510454416275,0.002466272809579095
1738772460645672200,3.901672119140625,-0.006059190441109239,-0.0021340894192457198,-0.0009599199423057143
1738772460655663000,3.9116630859375,-0.011888627246953547,-0.006317512583732605,-0.010421263816353166
1738772460665655000,3.921655029296875,-0.0013613880136981605,0.003562660917639732,-0.012590713384991977
1738772460675646000,3.93164599609375,0.017152210330963133,-0.0019715923339128495,0.0028341037582620627
1738772460688135200,3.94413525390625,0.003314202581904828,-0.00032908582389354704,-0.0012291073992935708
1738772460698126000,3.9541259765625,0.014181049033068119,-0.006319266149401664,-0.0008321186407269124
1738772460708117000,3.964116943359375,0.0010959420105442403,-0.0034790742874145505,-0.004708503915816255
1738772460718109200,3.974109130859375,-0.011616240046359598,-0.013206103053689001,-0.005185035671794321
1738772460728100000,3.98410009765625,-0.019635880372859536,-0.005278232663869857,0.00970802837992669
1738772460738091000,3.994091064453125,-0.0033376565227285025,-0.0034819968968629834,-0.007174767021418665
1738772460748082200,4.004082275390625,-0.01934763801600784,-0.005270633879303932,-0.008206893968820805
1738772460758073000,4.014072998046875,-0.004876045071147382,-0.00227612823843956,-0.004583405956624483
1738772460768065000,4.02406494140625,0.0007014262676239013,-0.0004822305589914322,-0.014649659775372128
1738772460778056200,4.03405615234375,-0.0012543839752674102,-0.0034749826341867445,-0.007697130373865366
1738772460788047000,4.044047119140625,0.007890497521497309,-0.006923661783337593,-0.014957262136531061
1738772460798038000,4.0540380859375,-0.0035380744656547903,-0.0036357261538505553,-0.010332434755429857
1738772460808029200,4.064029296875,-0.00558919830918312,-0.0007949497699737549,-0.007177461302003939
1738772460818021000,4.074021240234375,-0.003626921792887151,-0.004835749593377113,0.008125782423472264
1738772460828012000,4.084011962890625,-0.00005549304690212011,0.005490414109826087,0.004991259815497324
1738772460838003200,4.094003173828125,0.0030418519139289854,-0.00004442366361618042,0.00014750825872888527
1738772460847994000,4.103994140625,-0.002825578814744949,-0.008871873241662978,-0.005582543093644199
1738772460857985000,4.113985107421875,-0.0012245733588933945,0.006243862825632095,0.008206283189111855
1738772460867977200,4.123977294921875,0.0002624503284692764,-0.00871931302845478,0.010964125963312107
1738772460877968100,4.133968017578125,-0.004310264414548874,-0.005130933147668838,0.00815670842634281
1738772460887959000,4.143958984375,0.0006306625863537192,0.005350128856301308,0.0032742787093593506
1738772460897950200,4.1539501953125,0.002013641377352178,0.0060965633094310755,0.000534872206509317
1738772460907941000,4.163941162109375,0.009842764100432395,0.007148702710866928,-0.019107111824979074
1738772460917933000,4.17393310546875,0.00034311434924602505,-0.008559738552570343,-0.0072401238752092464
1738772460927924200,4.18392431640625,0.008898834313824773,0.0016138649374246596,-0.004165768205965287
1738772460937915100,4.1939150390625,-0.0016553659915924071,-0.004524199426174163,-0.00008154950864918647
1738772460947906000,4.203906005859375,-0.00970602251086384,-0.007518705067038536,0.014574281567777507
1738772460957897200,4.213897216796875,-0.015771606160141526,-0.0007815057665109634,-0.001961873801263573
1738772460967889200,4.22388916015625,-0.00429214423596859,0.011049217280745505,-0.003597312676734873
1738772460977880000,4.233880126953125,0.00941843774113804,-0.00929272900223732,-0.012961258022213587
1738772460987871200,4.243871337890625,-0.0019581117978319526,-0.001505143865942955,0.0052924347191583366
1738772460997862100,4.253862060546875,0.021579379123449323,-0.009137830701470374,-0.0026186443660641085
1738772461007853000,4.26385302734375,0.01895487583875656,-0.0068967737764120095,0.003029808708041673
1738772461017845200,4.27384521484375,0.019022132388688624,0.006261398482322693,0.0005905431001900069
1738772461027836200,4.283836181640625,-0.0010679580250754952,0.00595043283700943,-0.007748668194035417
1738772461037827000,4.2938271484375,-0.01490826732907444,0.0032540333598852157,0.006504699439860997
1738772461047818200,4.303818359375,-0.02088204450905323,0.000716039314866066,-0.006832309117654221
1738772461057810200,4.31381005859375,-0.01816515023317188,-0.009895955592393875,-0.00989854940827936
1738772461067801000,4.323801025390625,0.00022445640563964844,-0.006140986973047256,0.0022185893649235367
1738772461077792300,4.333792236328125,0.007651428068615495,-0.0038870705664157865,0.004939476541799376
1738772461087783200,4.343783203125,0.01267769526541233,-0.002238134315609932,0.0034555632643750865
1738772461097774000,4.353774169921875,0.03164371355269104,0.0053881227791309355,0.005036785736700403
1738772461107766300,4.363766357421875,0.01633329516351223,0.01090659393966198,-0.009217800031680962
1738772461117757200,4.373757080078125,-0.01005666257943958,0.002828501424193382,0.0012953938369682874
1738772461127748000,4.383748046875,-0.032477753224037585,0.010485738179087638,-0.014867805171234066
1738772461137739300,4.3937392578125,0.000872727713920176,-0.0011783961296081542,-0.021251695238775573
1738772461147730200,4.403730224609375,0.028910452663898467,-0.014355857610702514,-0.00905532520841225
1738772461157722000,4.41372216796875,0.0015291092634201048,-0.011525602620840071,0.032361812393902796
1738772461167713300,4.42371337890625,-0.01777300911042839,-0.005554126995801926,-0.019796249433187765
1738772461177704200,4.4337041015625,-0.02449438978731632,0.0014788403809070586,-0.017253869190707337
1738772461187695000,4.443695068359375,-0.06748597477376461,0.0004594342052936554,-0.01313417489521671
1738772461197686300,4.453686279296875,-0.02529639035258442,-0.006084288349747657,-0.020158895033388396
1738772461207678000,4.463677978515625,0.016774024668335913,-0.004113280537724495,0.016243952362646814
1738772461217669000,4.473669189453125,0.0415793801009655,0.0026285949379205704,0.017153026606648927
1738772461227660300,4.483660400390625,0.04142389727830886,-0.010103460863232612,-0.04926250021578744
1738772461237651200,4.493651123046875,0.034206768973730504,-0.009081716600060463,-0.034155646141269244
1738772461247642000,4.50364208984375,0.019129026829265056,0.005704933643341064,0.05301678841512184
1738772461257634000,4.513634033203125,0.011804419562220572,-0.0006131634622812271,-0.0073939330472989236
1738772461267625200,4.523625244140625,-0.04412263484299182,-0.009756254860758781,-0.003744785152049735
1738772461277616000,4.5336162109375,-0.08108663010299205,0.005227963781356811,0.034082190462702416
1738772461287607300,4.543607177734375,-0.062346310330368575,0.009006313276290893,-0.04061827541727107
1738772461297598200,4.55359814453125,-0.0021206454157829285,0.007241057169437408,-0.030616665210027712
1738772461307590000,4.56358984375,0.023539902074076233,-0.011896189498901366,-0.0018010529351973673
1738772461317581000,4.5735810546875,0.0300070157289505,-0.009945639953017234,-0.015688698808284243
1738772461327572200,4.583572265625,0.03497136013805866,-0.0023217209458351136,-0.000696362646966736
1738772461337563400,4.5935634765625,0.03384144279267639,-0.001889174747467041,0.01066638055917574
1738772461347555000,4.60355517578125,0.01814882015287876,0.006164367848634719,-0.021584411491593344
1738772461357546200,4.613546142578125,-0.0009673837274312972,-0.00329085823893547,0.010430272531649097
1738772461367537200,4.623537109375,-0.026443222300149498,0.00043780689537525175,0.015587874490534885
1738772461377528000,4.633528076171875,-0.03652560384273529,-0.004490881678462028,-0.027447784816368948
1738772461387519200,4.643519287109375,-0.054665071645379065,0.005107552272081375,-0.011975655934790847
1738772461397511200,4.65351123046875,-0.018786533534526823,0.011263736814260482,-0.012431124067731433
1738772461407502000,4.663502197265625,0.011093056422471999,0.0009539397239685058,0.011340599159465637
1738772461417493200,4.6734931640625,0.028957762404344976,-0.010856909579038619,0.0038945001022118956
1738772461427484200,4.683484130859375,0.039521278527379036,-0.0009843348622322083,-0.014914324893814045
1738772461437475300,4.693475341796875,0.02751636795699596,-0.008926818299293518,-0.005072158444180968
1738772461447467300,4.70346728515625,0.03935173064675182,-0.011484686088562011,0.001521373481536284
1738772461457458200,4.713458251953125,0.010831775137782097,-0.001325111123919487,-0.0029287506386186575
1738772461467449000,4.723448974609375,-0.022221147625707087,0.002408230185508728,-0.0017732851486209256
1738772461477440300,4.733440185546875,-0.03637362815141677,-0.012408230674266815,-0.013018777487776242
1738772461487431200,4.74343115234375,-0.032993301530741155,-0.008957797959446907,-0.014610434018325758
1738772461497423000,4.753423095703125,-0.033824491657875475,-0.0037099604338407515,0.018752776253753108
1738772461507414300,4.763414306640625,-0.026290004499815403,0.0031909049957990644,-0.0026554327124962583
1738772461517405200,4.7734052734375,0.0004051102021709084,0.012335749959945679,-0.013523909431742503
1738772461527396000,4.78339599609375,0.023002141935564577,-0.004553425520658493,-0.01760289839915349
1738772461537387300,4.79338720703125,0.031762956018187107,0.007570142993330955,-0.01383850893091294
1738772461547379200,4.803379150390625,0.028518275008536875,-0.002171498820185661,0.003890089073986746
1738772461557370000,4.8133701171875,0.03281279386468231,0.005285831448435783,0.006824389531035558
1738772461567361300,4.823361328125,0.00014090630803257226,-0.009701894325017928,-0.0070050747227855025
1738772461577352200,4.833352294921875,-0.030552338119409977,-0.00957154594361782,0.00005869475270937982
1738772461587344100,4.84334423828125,-0.04639116429686546,-0.0029886604219675063,-0.007954778946342412
1738772461597335300,4.853335205078125,-0.06284424991514534,0.0043634559065103525,-0.0018364393424097215
1738772461607326200,4.863326171875,-0.03235325006153434,0.0076899699807167045,0.004302862563627423
1738772461617317000,4.873317138671875,0.009863258899189532,0.0060690907806158064,-0.01193169577876688
1738772461627308300,4.883308349609375,0.03051617082748562,-0.002596446233987808,-0.01709449450257816
1738772461637300200,4.89330029296875,0.040029812571406365,-0.0015460603982210158,0.003254136393284716
1738772461647291100,4.903291015625,0.03451656557526439,-0.007995090407133101,0.01236995362364687
1738772461657282300,4.9132822265625,0.02120407953765243,-0.004729366609454154,0.0003965647804088803
1738772461667273200,4.923273193359375,0.0037427301922813056,-0.006996142497658729,-0.01310243033337174
1738772461677264100,4.93326416015625,-0.027266156055592,-0.008803484180569648,-0.023093980370904318
1738772461687256300,4.94325634765625,-0.0572731717845425,-0.00042027123868465424,-0.010684491604601498
1738772461697247200,4.953247314453125,-0.059154163225553925,0.002140519160032272,-0.005661938176763942
1738772461707238100,4.963238037109375,-0.013600618796609341,0.012639116820693016,-0.002342876756651094
1738772461717229300,4.973229248046875,-0.004061258089542389,-0.006942366483807564,-0.009342061165589256
1738772461727220200,4.98322021484375,0.03176233496367931,0.0008493103057146072,-0.010799591042875544
1738772461737212200,4.993212158203125,0.04569971143398434,0.003841477859020233,-0.0001250424824133006
1738772461747203300,5.003203369140625,0.04488481485452503,-0.004399111741781234,0.00026799543761662787
1738772461757194200,5.0131943359375,0.026441980191133915,0.0033639234751462934,-0.0029864011078665495
1738772461767185200,5.02318505859375,0.00969184785503894,-0.0006967500925064087,-0.004938188196189003
1738772461777176000,5.033176025390625,-0.023597148686647414,-0.001305237379670143,-0.00039080076096397533
1738772461787168300,5.043168212890625,-0.04495557853579521,-0.002354454171657562,-0.0032749106094881425
1738772461797159200,5.0531591796875,-0.061029345980286594,-0.005786766707897186,-0.0017373057998920558
1738772461807150300,5.063150390625,-0.017564846252463757,-0.009959668478369712,-0.005861981089532491
1738772461817141200,5.073141357421875,0.004824132220819592,-0.008597147953510284,-0.015139187724830116
1738772461827132200,5.083132080078125,0.023184476232528686,-0.004398527219891548,-0.00005255752260236477
1738772461837124400,5.093124267578125,0.021911387556791305,-0.005891980648040771,-0.0029068059515804635
1738772461847115300,5.103115234375,0.036086627903580665,0.0012865326792001724,-0.008188064829120411
1738772461857106200,5.113106201171875,0.016326828890107573,-0.0017196633994579313,-0.006922593775080167
1738772461867097000,5.12309716796875,0.005855740290880203,-0.009214403069019318,0.003406748551309283
1738772461877088300,5.133088134765625,-0.0018202376971021294,-0.010715455281734466,0.008893873869272647
1738772461887080200,5.143080078125,-0.032439795833826064,-0.008174538627266883,0.013557969248259905
1738772461897071400,5.1530712890625,-0.03721066349744796,-0.015052023181319235,-0.004553530266524467
1738772461907062300,5.163062255859375,-0.03020462066028267,-0.00007423427999019622,-0.008459225903719197
1738772461917053200,5.17305322265625,-0.01357205028925091,0.0026315175473690033,-0.008458244089607615
1738772461927045400,5.18304541015625,0.01003094361629337,0.0024900632500648497,-0.000031978045945743356
1738772461937036300,5.193036376953125,0.010389292067289353,-0.011870470535755157,-0.003444023809042119
1738772461947027200,5.203027099609375,0.021431458552740514,-0.009182838886976241,-0.004120412104354182
1738772461957018000,5.21301806640625,0.01794365296959877,-0.0044049569606781,-0.007059817709372146
1738772461967009300,5.22300927734375,-0.0024041019996628166,-0.008308978661894798,0.004090916867222404
1738772461977001200,5.233001220703125,-0.009478570430539547,-0.00457271474301815,0.002055584818692296
1738772461986992400,5.242992431640625,-0.021480631456710395,-0.004272270491719246,-0.018980517170089296
1738772461996983300,5.2529833984375,-0.023124270477890965,-0.0006745382606983184,-0.0030087747677564037
1738772462006974200,5.26297412109375,-0.013452807823754846,-0.015180617997050285,-0.014337367539363913
1738772462016965000,5.272965087890625,-0.00919160671532154,0.00009293898046016692,0.0014992895138915628
1738772462026957300,5.282957275390625,0.015558803659677505,-0.001998480340838432,-0.002328701672709576
1738772462036948200,5.2929482421875,0.013012041786313057,-0.007983984491229057,-0.011169707563478732
1738772462046939400,5.302939453125,0.007812719577550888,0.0029319617986679077,-0.005097121067967964
1738772462056930300,5.312930419921875,-0.0012555164864286779,-0.00485854594707489,-0.00969571574598085
1738772462066921200,5.322921142578125,-0.010504442879557608,-0.012647300127148627,0.002370386388906627
1738772462076913400,5.332913330078125,-0.005934650745987892,0.008297872745990753,-0.003623017940149293
1738772462086904300,5.342904296875,-0.0034539033135399222,-0.013845570001006125,-0.008458943917573196
1738772462096895200,5.352895263671875,-0.012223521757125854,-0.005910685348510742,-0.0029495896431370053
1738772462106886100,5.36288623046875,0.006711480337381362,-0.006356675550341606,0.006227706846097135
1738772462116877300,5.372877197265625,-0.004355820589326322,-0.0012625672817230223,0.000930855105080991
1738772462126869200,5.382869140625,0.0027911650884896513,0.0107096100628376,-0.011276267502270638
1738772462136860400,5.3928603515625,-0.000016330080293118953,-0.011288286733627318,0.006258386824617628
1738772462146851300,5.402851318359375,0.014434220076538622,-0.003062310180068016,-0.005922057267540367
1738772462156842200,5.41284228515625,-0.009316657867096364,-0.00530862780213356,-0.005985788419825258
1738772462166833200,5.422833251953125,0.002365012098290026,-0.00755377638041973,-0.009509483304500462
1738772462176825300,5.432825439453125,0.0014210092464461922,-0.003361585387587547,-0.020569896120228803
1738772462186816300,5.442816162109375,0.0008808744877576828,0.006069675302505493,-0.010161422145145479
1738772462196807200,5.45280712890625,0.0036152678877115246,-0.0006657704323530197,0.00020392300503408478
1738772462206798300,5.46279833984375,-0.0023638065218925474,0.0027688801914453505,-0.0022142142984943347
1738772462216789200,5.472789306640625,-0.014651077697612345,-0.005766308441758156,0.004385459102819731
1738772462226781400,5.482781494140625,-0.015399229183793066,0.005157821154594421,0.00443270890693966
1738772462236772400,5.4927724609375,-0.00724924047589302,0.0020189386069774627,-0.0034508294362196462
1738772462246763300,5.50276318359375,-0.006592822393774986,-0.003064648267626762,-0.007071625736530404
1738772462256754200,5.512754150390625,0.007522212198376655,-0.0015647650986909865,-0.0015715972690988564
1738772462266745300,5.522745361328125,-0.008804689756967127,-0.014133739292621612,-0.00474821373005252
1738772462276737300,5.5327373046875,-0.013296703946590422,-0.0015635960549116134,0.008543555744393961
1738772462286728200,5.542728271484375,0.0062993924051523206,-0.0038145898520946502,-0.014716627489292295
1738772462296719400,5.55271923828125,-0.002570763803459704,-0.011593991681933402,-0.006358049519275664
1738772462306710300,5.562710205078125,-0.006051007134653627,0.0011269582033157349,-0.006829360250386525
1738772462316701200,5.572701171875,-0.0006944120049476623,-0.006653028148412704,-0.010751874877052614
1738772462326692900,5.58269287109375,-0.013444551452063023,-0.00440671052634716,-0.005468670352187473
1738772462336683800,5.592683837890625,0.0004138780305162072,-0.002758358797430992,-0.008098714036744786
1738772462346674700,5.6026748046875,-0.009379201709292828,-0.009339490753412246,-0.0014460056914460436
1738772462356665900,5.612665771484375,0.004027940341830253,0.001437339326739311,0.005768074565514689
1738772462366656800,5.62265673828125,0.008168729940988124,0.0017383680999279022,0.003425946442123677
1738772462376648700,5.632648681640625,0.005628945797681808,-0.005294014754891396,-0.00574765397363808
1738772462386640000,5.642639892578125,-0.007385434076189994,0.005628945797681808,-0.012025433910248101
1738772462396630800,5.652630859375,0.013359905375912785,-0.0035030396848917005,-0.00518559793161985
1738772462406621700,5.66262158203125,0.0069265843927860254,-0.0064963762819767,-0.006607604404375888
1738772462416612900,5.67261279296875,-0.008276208903454244,-0.012334580916166306,-0.01174271939517348
1738772462426604800,5.682604736328125,-0.0040810953011736276,0.0032277298748493192,-0.007440310064339427
1738772462436595700,5.692595703125,-0.00959726490676403,0.007715688943862915,0.0006365484763293353
1738772462446587000,5.7025869140625,-0.013868950876593589,-0.0018570260435342787,-0.0024811101899293135
1738772462456577800,5.712577880859375,-0.012326945598982274,-0.007539163333177566,-0.0021985028467148364
1738772462466568700,5.722568603515625,-0.006728979461453855,-0.0003524666994810104,-0.005024064394089509
1738772462476561000,5.732560791015625,-0.000172397424839437,-0.006336801806092262,-0.005489478532309295
1738772462486551800,5.7425517578125,0.00678984280321747,-0.008728080856800078,0.0005006920892221387
1738772462496542700,5.752542724609375,0.0013823577364906667,-0.010529577320814132,-0.013220322233642218
1738772462506534000,5.762533935546875,0.0014069807210937142,0.007868249157071114,0.005656161456526024
1738772462516524800,5.77252490234375,0.002497662034630775,-0.0026075521498918532,-0.01210395392299979
1738772462526516700,5.782516845703125,-0.00879471635222435,0.003523497951030731,0.0022815500500008054
1738772462536508000,5.7925078125,-0.026925416326522827,-0.0018622867405414581,-0.0022167102183797394
1738772462546498800,5.802498779296875,-0.021534955459833145,-0.009935703080892562,-0.005154727869320777
1738772462556489700,5.81248974609375,-0.008835669417120516,-0.004542319604754447,-0.014916678964393212
1738772462566480600,5.822480712890625,0.0017904270807281135,0.003096212449669838,-0.0004331352868350222
1738772462576472800,5.832472900390625,0.0009890475699678063,-0.0037847792357206343,0.001158388670268323
1738772462586463700,5.842463623046875,0.008995207360386849,-0.0021358429849147797,-0.011040826195024419
1738772462596455000,5.852454833984375,-0.0045913829108700155,0.0009989479094743728,-0.0034641989473908324
1738772462606445800,5.86244580078125,0.001998480340838432,-0.0018505963027477263,-0.005088174001465086
1738772462616436700,5.872436767578125,-0.010279949941299856,-0.004850362640619278,-0.005085920395585708
1738772462626429000,5.882428955078125,-0.008400164076685906,-0.0036567689418792724,-0.0021740790790448954
1738772462636419800,5.892419921875,-0.01127371021900326,0.0006844751328229904,0.006524062298279023
1738772462646410800,5.90241064453125,-0.016048669535852968,0.00009118541479110717,-0.004376748356690222
1738772462656402000,5.91240185546875,-0.00011226473543792963,-0.009332476490736007,-0.008458187007391824
1738772462666392800,5.922392822265625,0.002717442265152931,0.004584989702701568,-0.003305737574714294
1738772462676384800,5.932384765625,-0.002468435940146446,0.0029360534518957137,0.0007612622722088417
1738772462686376000,5.9423759765625,-0.0024065131524577737,0.0020358897417783735,0.0013475799684041702
1738772462696366800,5.952366943359375,-0.00009176993668079376,-0.007694061633944511,0.004196973911693203
1738772462706357800,5.962357666015625,-0.0017330708703026175,-0.0026063831061124802,-0.0017235230134785523
1738772462716348700,5.9723486328125,-0.014273988013528286,0.007268529698252677,-0.013279525624570668
1738772462726340900,5.9823408203125,-0.008867197066545486,-0.01443009189069271,0.004132496124025783
1738772462736331800,5.992331787109375,-0.02759823755417019,-0.0005126256972551345,-0.0020953659856982995
1738772462746323000,6.002322998046875,0.011540836722590028,-0.001557166314125061,-0.009309171534495545
1738772462756313900,6.01231396484375,-0.0014963395049795508,-0.009486790269613266,0.0058040083911764665
1738772462766304800,6.0223046875,0.0004734992632642388,-0.01172609362900257,0.008800972563074902
1738772462776297000,6.032296875,-0.004686075456999242,-0.003941431102156639,-0.006948054726611008
1738772462786287900,6.042287841796875,0.01983520233724266,-0.002893383353948593,-0.011984628117468673
1738772462796278800,6.05227880859375,0.01739595595896244,0.013113164073228835,-0.01013855044292286
1738772462806269700,6.062269775390625,0.0012678279787302017,0.004433014011383057,-0.00609637208400818
1738772462816260900,6.0722607421875,0.009333097545243798,0.005175356811285018,-0.011589848654711386
1738772462826252800,6.082252685546875,-0.0067441770305857055,-0.006799743142724037,0.0019068967775921917
1738772462836244000,6.092243896484375,-0.01756426173057407,-0.002009001734852791,0.00005002642580147949
1738772462846235000,6.10223486328125,-0.017717406465671954,0.0020376433074474334,-0.009156678678301977
1738772462856225800,6.112225830078125,-0.010701390223763882,-0.002593523624539375,-0.00843148680095619
1738772462866216700,6.122216796875,0.00007598784565925598,-0.0063280339777469635,-0.005315787624460062
1738772462876209000,6.132208984375,0.0038356691727414725,-0.0031797990798950195,0.00035572245501134603
1738772462886199800,6.14219970703125,-0.001409282276034355,-0.0025812486648559567,0.003993397038945113
1738772462896190700,6.152190673828125,-0.004143091154098511,-0.0066261401414871215,-0.01463182044129353
1738772462906182000,6.162181884765625,-0.009473346266150474,-0.002744330272078514,-0.0011252405994426225
1738772462916172800,6.1721728515625,-0.007755436432361602,0.00623100334405899,-0.0032349793162546117
1738772462926165000,6.1821650390625,-0.030638883891701697,-0.0018500117808580398,0.0012999390084005426
1738772462936156000,6.192156005859375,-0.014986593262292444,-0.0007937807261943817,-0.004238343391353555
1738772462946146800,6.202146728515625,-0.006820237941481172,-0.004675006073713303,-0.0038909647151769604
1738772462956137700,6.2121376953125,0.0029267011016607283,0.0001128127247095108,0.002947899724138551
1738772462966129000,6.22212890625,0.0033586993107572196,-0.0049742812812328336,0.00963956054537557
1738772462976120800,6.232120849609375,0.01530048151705414,-0.006170213067531585,0.0045194185051906964
1738772462986111700,6.24211181640625,0.0008913958817720412,-0.0055693245649337765,-0.010418691691709682
1738772462996103000,6.25210302734375,-0.005424363136291504,0.0008598316997289657,-0.0011634511492811725
1738772463006093800,6.26209375,0.0047667760103940965,-0.0030377602607011794,-0.005050771450391039
1738772463016084700,6.272084716796875,-0.00408752504196018,-0.0019897125124931333,-0.0018878176177866406
1738772463026076700,6.28207666015625,-0.0044172319203615185,-0.010367664757370948,0.005207974731031572
1738772463036067800,6.29206787109375,0.004970774149894714,-0.002285480588674545,-0.009820024828950408
1738772463046058800,6.302058837890625,-0.0014063961992040275,0.0028057050704956054,0.0002590918963032891
1738772463056050000,6.3120498046875,0.0016424699774011968,-0.0006318681627511978,-0.0038496146434699764
1738772463066040800,6.322040771484375,-0.006331577641703188,-0.00227612823843956,-0.000523602036529337
1738772463076032500,6.332032470703125,0.008799392527341842,-0.0028752631753683087,0.009356425905192737
1738772463086023700,6.342023681640625,0.008368636427260935,-0.002277297282218933,0.0019060382610667146
1738772463096014800,6.352014892578125,-0.004442914350889623,0.0026578210324048994,-0.0027023248965342642
1738772463106005800,6.362005859375,-0.018351064726710317,0.001011222869157791,-0.0027898773137014356
1738772463115997000,6.371996826171875,0.002294248417019844,-0.0027291327029466627,-0.0013897621561118284
1738772463125988600,6.381988525390625,0.005116320100426674,0.002509352472424507,-0.008394586573381093
1738772463135979800,6.391979736328125,0.020442484048008917,-0.00452653751373291,0.009058064583947999
1738772463145971000,6.401970947265625,0.0015852598974481224,0.0008604162216186523,0.004094121748227917
1738772463155961900,6.4119619140625,-0.0037286286016926166,-0.0049719431936740876,-0.0110973284555017
1738772463165952800,6.421952880859375,-0.003819814016483724,-0.0012269114464521407,0.0023382914849622463
1738772463175944700,6.43194482421875,-0.0010644508937373758,-0.006018237376213074,0.0024390131974287212
1738772463185935600,6.441935546875,-0.010268296036124228,0.0028138883769512177,0.0035153092217646187
1738772463195926800,6.4519267578125,-0.014492014678381383,-0.010203414106369019,-0.002619945269761956
1738772463205918000,6.46191796875,0.006534954726696014,0.009245967251062392,-0.008220948181170388
1738772463215908900,6.471908935546875,-0.00451539506521076,0.013734510841965674,0.0004046772335641435
1738772463225900500,6.481900634765625,-0.020457681617140767,-0.009306173005700111,-0.01208164961800212
1738772463235891700,6.4918916015625,-0.022988076877593994,-0.003769581666588783,0.016891592341620708
1738772463245882600,6.501882568359375,-0.025073102990724145,0.007751344779133796,-0.0028564511603326537
1738772463255873800,6.511873779296875,-0.0018079262048006056,-0.0033183307677507397,-0.012088209506240673
1738772463265865000,6.521864990234375,-0.007534450625441968,0.004464578193426132,0.008114397375533008
1738772463275856600,6.531856689453125,-0.005181823084689677,-0.0043622868627309795,-0.003794310824113199
1738772463285847600,6.54184765625,0.0050385786890983575,-0.004058335480093956,-0.007440094293563742
1738772463295838700,6.551838623046875,-0.0035299276918172836,0.019736381605267524,0.005412534559535561
1738772463305830000,6.561829833984375,-0.007816811230778693,0.007912088298797608,0.0014127467384161718
1738772463315820800,6.57182080078125,0.006489362019300461,-0.00047112464308738706,-0.014949937346600927
1738772463325812200,6.581812255859375,-0.004704232168197631,-0.0016764087796211243,-0.0038504023780478744
1738772463335803400,6.591803466796875,-0.014279906297661363,0.007294833183288574,-0.012500470968405715
1738772463345794600,6.601794677734375,-0.006291209098696709,-0.002433364626765251,-0.02128910007313825
1738772463355785500,6.611785400390625,-0.007138217849470675,-0.004531213688850402,-0.009914340632455424
1738772463365776400,6.6217763671875,-0.013811631198786199,-0.0136550158649683,0.006855104329707683
1738772463375768300,6.631768310546875,-0.00715162532031536,-0.010360065972805022,-0.007408296645258087
1738772463385759200,6.64175927734375,-0.0011643676042556762,-0.009611293432116507,0.002851286076036922
1738772463395750400,6.65175048828125,0.012900982627272605,0.00040799627900123595,-0.011108030229317955
1738772463405741600,6.661741455078125,-0.0042670097947120665,-0.0016956980019807815,-0.012663200949179007
1738772463415732500,6.671732421875,-0.01004559319615364,-0.0019978958189487456,-0.006512649280054028
1738772463425724200,6.68172412109375,-0.016570647583343086,0.0005436053574085235,-0.006170811289153062
1738772463435715300,6.69171533203125,-0.004255319356918335,0.0029430677145719526,0.005764865403342992
1738772463445706200,6.701706298828125,-0.011617372557520865,0.003243511965870857,-0.0034690868975289046
1738772463455697400,6.711697509765625,-0.00691547847688198,-0.008723989203572273,-0.01209162758932216
1738772463465688600,6.7216884765625,-0.004447006004117429,-0.0066261401414871215,-0.002603293531182862
1738772463475680300,6.73168017578125,0.013119009292125701,-0.007525719329714775,0.00212567193299983
1738772463485671200,6.741671142578125,0.0020201076507568357,-0.0033417116433382033,0.003813230724536697
1738772463495662300,6.751662353515625,0.004508965324424207,0.0035369419544935225,-0.00535985109929461
1738772463505653500,6.761653564453125,-0.007266228143312036,-0.006191255855560302,-0.00536541033629037
1738772463515644400,6.77164453125,-0.015845182853005825,-0.009331307446956634,0.00010813890423341945
1738772463525636400,6.78163623046875,-0.00855856950879097,0.0047369653940200806,-0.005295439526997506
1738772463535627300,6.791627197265625,0.0096726682305336,0.00009936872124671936,0.01605781068188953
1738772463545618200,6.8016181640625,0.0023965032150968907,0.00473521182835102,-0.006447971704631345
1738772463555609300,6.811609375,-0.0026683789590373633,0.0047404725253582,-0.008326654740836237
1738772463565600500,6.8216005859375,0.0035813290854915976,-0.010071896681189536,-0.0036735796544293403
1738772463575592200,6.83159228515625,-0.007615151178836822,-0.005583937612175941,-0.015703910077147883
1738772463585583400,6.841583251953125,-0.0001431713303551078,0.0051841246396303175,-0.007184009202977177
1738772463595574300,6.85157421875,0.004713621051050722,-0.005443652358651161,-0.0024374805399347676
1738772463605565200,6.861565185546875,0.00036945436690002676,-0.007238719081878662,-0.009943991418625227
1738772463615556400,6.871556396484375,-0.0073094827631488436,-0.009481529572606087,0.0016204535094766468
1738772463625548300,6.88154833984375,-0.00006141133103519677,-0.007981061881780624,-0.015780346589023247
1738772463635539200,6.891539306640625,0.009777882170677184,-0.011420973202586173,0.004190714846731862
1738772463645530400,6.9015302734375,0.003812215231917798,0.0018956044882535933,0.011761630733264609
1738772463655521300,6.911521240234375,0.0002297171026468277,-0.013965981510281562,-0.004580050378569285
1738772463665512400,6.921512451171875,-0.010225625938177108,-0.01037584806382656,-0.0008316851012979895
1738772463675504400,6.93150439453125,0.004073533049225807,-0.010073650246858596,-0.005410858054857817
1738772463685495300,6.941495361328125,-0.0020230302602052687,0.005786766707897186,0.006652302633450017
1738772463695486200,6.951486328125,-0.0015507365733385084,0.0018950199663639068,-0.009029719268053304
1738772463705477400,6.961477294921875,-0.0018617022186517714,-0.0009480945050716399,0.0012887750113419316
1738772463715468300,6.97146826171875,-0.008414192602038384,-0.004989478850364684,-0.006964763261994812
1738772463725460200,6.981460205078125,-0.000623100334405899,-0.013669044390320777,-0.015653130879625676
1738772463735451400,6.991451416015625,0.0015308628290891647,-0.004843348377943039,-0.0008400451485642406
1738772463745442300,7.0014423828125,0.006842997762560844,-0.007090835043787956,-0.002535423918253218
1738772463755433200,7.01143310546875,-0.015749357795715332,0.014606617501378058,0.0012545908982996479
1738772463765424400,7.02142431640625,0.0014437325349077581,0.006526771420240402,-0.006730315756125492
1738772463775416300,7.031416259765625,0.0117640875518322,-0.001104161849617958,-0.00845061219735653
1738772463785407200,7.0414072265625,0.005787899219058454,-0.0024456395864486695,-0.01995393334608525
1738772463795398400,7.0513984375,0.002570763803459704,-0.010528992798924445,-0.01085392646244145
1738772463805389300,7.061389404296875,-0.0033095629394054413,0.006824293062090874,0.0016402135174110298
1738772463815380200,7.071380126953125,0.009559270983934403,-0.009486205747723579,0.004350130634056404
1738772463825372400,7.081372314453125,-0.004054791816137731,-0.012927870634198188,0.010514280428626807
1738772463835363300,7.09136328125,-0.019739267682097852,-0.015167173993587493,0.016328640679636738
1738772463845354200,7.101354248046875,-0.013121310847066341,0.010276479342579841,-0.0036939685656761866
1738772463855345400,7.111345458984375,-0.013080978836677968,-0.010219196197390555,-0.0009660771155118709
1738772463865336300,7.12133642578125,0.014534173319675027,-0.00034019173979759216,-0.017642286269692702
1738772463875328300,7.131328369140625,0.0028074951687827704,-0.008873626807332039,-0.006285214324394474
1738772463885319400,7.1413193359375,-0.008282054122351109,0.003397241222858429,-0.010658546595880761
1738772463895310300,7.151310302734375,-0.003665536770224571,0.0032487726628780363,-0.005016352015914162
1738772463905301200,7.16130126953125,-0.009970774394273758,-0.004987140762805938,0.01262231866623042
1738772463915292200,7.171292236328125,-0.006322773280739784,0.005934066224098205,-0.0008974724263483949
1738772463925283300,7.181283447265625,0.0028191490739583967,-0.008880056548118591,-0.003398062065121485
1738772463935275300,7.191275146484375,0.0018330606460571289,-0.007985738056898117,-0.0003730482632061466
1738772463945266400,7.201266357421875,0.012200761936046182,-0.0003559738308191299,-0.0053457226800645
1738772463955257300,7.21125732421875,0.0034317280143499372,-0.0024538228929042814,-0.005789538620295934
1738772463965248300,7.221248291015625,-0.00845331903602928,0.006371288597583771,0.005474326628950075
1738772463975239200,7.2312392578125,-0.00031385172214359045,-0.005602057790756225,0.011376281252555782
1738772463985231400,7.2412314453125,0.0020300445228815076,0.015499182426929473,-0.0009712336374752339
1738772463995222300,7.25122216796875,-0.010108100505732,0.00831716196835041,-0.012785556678724242
1738772464005213200,7.261213134765625,-0.000021006255410611628,-0.00006546645164489745,-0.004012921440033824
1738772464015204400,7.271204345703125,-0.00517415123488754,-0.0051566521108150475,-0.0028861721576278793
1738772464025195300,7.2811953125,-0.016662344454787672,0.003221300134062767,-0.0011316536436810564
1738772464035187500,7.2911875,0.0014502353409305215,-0.00007072714865207672,-0.0019044489494735898
1738772464045178400,7.301178466796875,0.0008563611010089516,0.008906944555044174,-0.0036383008471937497
1738772464055169300,7.311169189453125,-0.0052893020471557976,0.003969488152861595,-0.010279107407794799
1738772464065160200,7.32116015625,-0.002315839194320142,-0.0053068742364645,-0.009362196917209076
1738772464075151400,7.3311513671875,0.009149557671882212,-0.00007364975810050964,-0.00726573038639035
1738772464085143300,7.341143310546875,0.002374948970414698,-0.002024199303984642,-0.009184771119980723
1738772464095134500,7.351134521484375,-0.006826010095141828,0.00022387188374996183,-0.01912891380647779
1738772464105125400,7.36112548828125,-0.007023030504584312,0.0047153380841016765,-0.0005388282894746225
1738772464115116300,7.3711162109375,-0.003864822201989591,0.0011298808127641678,0.004680241654545534
1738772464125107200,7.381107177734375,0.002524550041556358,0.0020300445228815076,0.005276382058433955
1738772464135099400,7.391099365234375,0.015310381856560706,-0.0071007719159126275,-0.0035339853811266948
1738772464145090300,7.40109033203125,0.009691957452893257,-0.010994856745004652,-0.007259373710840009
1738772464155081200,7.411081298828125,0.007815678719617426,-0.004563362392783165,-0.002787290918504004
1738772464165072400,7.421072265625,0.002042940537072718,0.000671031129360199,-0.007863599239772884
1738772464175063300,7.431063232421875,-0.0056493675312027335,-0.0065092357635498045,-0.0048516949395358095
1738772464185055500,7.441055419921875,0.003182173700071871,-0.006209960556030273,0.00308003677677043
1738772464195046400,7.45104638671875,0.010075988334417342,0.0018698855251073835,0.01414324005661765
1738772464205037300,7.461037353515625,0.004226714316941798,-0.003516483688354492,0.0020655562255575202
1738772464215028200,7.4710283203125,0.00361530442032963,-0.008753215298056602,-0.0057245071351353545
1738772464225019400,7.481019287109375,-0.0019762319764122364,-0.007852467066049576,-0.020652331972983665
1738772464235011300,7.49101123046875,-0.016562391211651265,-0.0018640403062105178,-0.006316874404560076
1738772464245002200,7.501002197265625,-0.007389489196799695,-0.010844050097465514,-0.0039250907470646775
1738772464254993400,7.510993408203125,0.00418521326277405,-0.006806172883510589,-0.011430101790535264
1738772464264984300,7.520984375,-0.0006148804953321815,-0.0005213935256004333,-0.01190418785897782
1738772464274975200,7.530975341796875,-0.00008884732723236084,0.003821604114770889,-0.005549384605314117
1738772464284967400,7.540967529296875,-0.014293898290395736,0.002624503284692764,0.00313002510019287
1738772464294958300,7.550958251953125,-0.0038771336942911147,-0.005752864438295364,-0.0014834590456921431
1738772464304949200,7.56094921875,-0.0015513210952281952,-0.012190788531303405,0.003256227029438014
1738772464314940400,7.5709404296875,-0.0024169980138540265,-0.006506313154101371,-0.0014656101503423996
1738772464324932400,7.580932373046875,-0.003256919436715543,0.012045827102661132,-0.0017873347943932456
1738772464334923300,7.59092333984375,-0.018185645031929015,-0.001124035593867302,0.0029436716444150076
1738772464344915500,7.60091552734375,-0.014141301544569431,-0.009354103800654412,0.0038106508937940813
1738772464354906400,7.61090625,-0.0034147768795490265,0.0018640403062105178,-0.007683923832420259
1738772464364897300,7.620897216796875,0.0011123816886916757,-0.008462123396992684,0.0029422999587695813
1738772464374888400,7.630888427734375,-0.001851728813908994,-0.006661211454868316,-0.009356251804434577
1738772464384879400,7.64087939453125,0.014825265220738947,0.0009738134682178497,-0.00010012249190622242
1738772464394871300,7.650871337890625,-0.008518822020292282,0.005463526102900505,0.001506205167040025
1738772464404862500,7.660862548828125,0.003070493486523628,0.005310965889692306,-0.012473489346646237
1738772464414853400,7.670853271484375,-0.002205401089787483,-0.00606675269305706,-0.019185424058465284
1738772464424844300,7.68084423828125,0.0014940379500389099,-0.00921381854712963,-0.005945249771815725
1738772464434835500,7.69083544921875,-0.010917115333676338,0.003355740168690681,-0.011728670320223318
1738772464444827400,7.700827392578125,0.0005868965098634361,0.009042553633451461,0.0008960787640498892
1738772464454818300,7.710818359375,-0.012412870316766201,0.010088847815990447,-0.0018501287994004086
1738772464464809500,7.7208095703125,-0.013115465628169476,-0.0009796586871147156,0.00718759396612877
1738772464474800400,7.73080029296875,-0.013240553312562405,-0.012054010409116744,-0.008330152739019832
1738772464484791300,7.740791259765625,-0.012154475108906626,-0.006519172635674476,-0.004215057557655381
1738772464494783500,7.750783447265625,0.010029774572513996,-0.003677811729907989,0.0105270451537217
1738772464504774400,7.7607744140625,-0.0002221548506990075,0.0015559972703456878,-0.004902830900906701
1738772464514765300,7.770765380859375,-0.009569828910566866,0.004245967006683349,-0.009500308479956584
1738772464524756500,7.780756591796875,0.00658116848859936,-0.0023375030368566513,0.012176657257962506
1738772464534747400,7.790747314453125,-0.002309993975423276,0.000502104303240776,0.009827300528174964
1738772464544739300,7.8007392578125,-0.010288754302263258,-0.0027940146327018736,0.001304622318795009
1738772464554730500,7.81073046875,-0.02011811093185097,-0.0004021510601043701,-0.006735335566182038
1738772464564721400,7.820721435546875,-0.013640987339615822,0.002887538135051727,-0.009996027566539122
1738772464574712300,7.83071240234375,-0.007283142745494842,-0.0012988076388835907,0.003565939149292535
1738772464584703500,7.840703369140625,-0.013815722852014004,0.007833177843689918,-0.0015958847529785997
1738772464594695400,7.8506953125,-0.0013087079783901572,-0.012963526469469069,-0.0059774150295910655
1738772464604686300,7.860686279296875,0.0011596914291381836,-0.001295300507545471,-0.005979360962327336
1738772464614677500,7.870677490234375,-0.004129610618017613,-0.006835983499884605,-0.016915234653756488
1738772464624668400,7.88066845703125,0.009482735149003566,-0.010134440523386001,-0.009982172571122645
1738772464634659300,7.890659423828125,0.005965045884251594,0.0001876315265893936,-0.003267350070006796
1738772464644651500,7.900651611328125,-0.01150046817958355,-0.0004132569760084152,0.01108963605610188
1738772464654642400,7.910642333984375,0.0011783961296081542,0.012457915034890174,-0.01964045836656587
1738772464664633300,7.92063330078125,-0.0024952874144539236,0.0015378770917654036,0.00152971590466841
1738772464674624500,7.93062451171875,-0.009006313276290893,-0.004294482323527336,0.0027151332895242373
1738772464684615400,7.940615478515625,0.005729483562707901,-0.015214520266652107,-0.0017584249353843914
1738772464694606300,7.9506064453125,0.00608896452486515,0.005283493360877037,-0.008475122159172314
1738772464704598500,7.9605986328125,0.0053892918229103085,-0.0002554360657930374,-0.01322275393603486
1738772464714589400,7.97058935546875,0.007789959756471216,-0.010581015247106551,-0.0008863503847183892
1738772464724580400,7.980580322265625,0.007406476864218712,0.007821487405896187,0.0023551657014773807
1738772464734571300,7.9905712890625,-0.012213584885001181,-0.00040741175711154934,0.0005160510583191353
1738772464744562400,8.0005625,-0.015376980819366871,0.004082300877571106,0.0031653024803730656
1738772464754554400,8.010554443359375,-0.013396657189726829,0.0006453121662139892,-0.002154505444545066
1738772464764545500,8.020545654296875,0.0039233474561944605,0.0022930793732404706,-0.016177117079467278
1738772464774536400,8.030536376953124,-0.00029459903240203856,-0.004140168544650077,-0.005140622282976983
1738772464784527400,8.04052734375,-0.0030705300191417335,-0.0150666362285614,-0.011367863909015431
1738772464794518300,8.050518310546876,0.014457016430236398,0.0034878421157598493,-0.010728221148473676
1738772464804510500,8.060510498046876,0.003704151747561991,-0.0014513678520917891,0.013312303374521434
1738772464814501400,8.07050146484375,0.008491934013366698,-0.00564063623547554,-0.0006187897708805394
1738772464824492500,8.080492431640625,0.006894472221471369,-0.011472411128878594,0.000035663684075552735
1738772464834483500,8.0904833984375,-0.007654350678063929,0.0012479542344808578,0.005636512616206892
1738772464844474400,8.100474365234374,-0.010036825367808342,-0.00009235445857048034,0.005679764952755067
1738772464854466600,8.110466552734374,0.0015641805768013,-0.006672901892662048,0.0012351603974559112
1738772464864457500,8.12045751953125,0.01680032815337181,-0.0020335516542196275,-0.011192639772850089
1738772464874448400,8.130448486328126,0.006051007134653627,-0.016100655451416968,0.010559572883567306
1738772464884439300,8.140439208984375,-0.003610591712594032,-0.00772328772842884,0.002209950114269304
1738772464894430500,8.150430419921875,0.013578991486690938,-0.004587327790260315,-0.009410256147148901
1738772464904422400,8.16042236328125,-0.0026326865911483763,-0.007284896311163902,0.001769902313807688
1738772464914413600,8.17041357421875,-0.01909454003777355,-0.0005512041419744491,-0.006229796055195038
1738772464924404500,8.180404541015625,-0.006911350291036069,0.0040916532278060915,-0.004431477358133998
1738772464934395400,8.1903955078125,0.007677147031761706,-0.004135492369532585,-0.006582879242606577
1738772464944386300,8.20038623046875,0.005969174070097506,-0.00862169787287712,-0.004846479337479104
1738772464954377500,8.21037744140625,0.0010667524486780166,0.002150456032156944,-0.004987507230631309
1738772464964369400,8.220369384765625,-0.004874364570714533,0.0006523264288902282,-0.0008268042150841211
1738772464974360300,8.2303603515625,-0.010199943507649004,-0.010723054066300391,0.0012706466985458974
1738772464984351500,8.2403515625,-0.015082454852201044,-0.0011485855132341385,-0.0074713696395949224
1738772464994342400,8.25034228515625,-0.022170367286540565,0.007383680510520935,-0.016458927412243793
1738772465004333300,8.260333251953124,-0.012504713318683205,0.005590367352962493,-0.00329144732740242
1738772465014325500,8.270325439453124,-0.008490216980315744,0.00006195932030677795,-0.008470449408987769
1738772465024316400,8.28031640625,-0.009630034665204583,-0.00786532654762268,0.006981165836701984
1738772465034307300,8.290307373046875,0.004907024731300771,-0.00008534019589424133,-0.0017037787031535117
1738772465044298500,8.300298583984375,0.0019318448454141615,-0.00772328772842884,-0.002002253047185513
1738772465054289400,8.310289306640625,0.0020925883650779725,-0.0036906712114810943,-0.006047068461764137
1738772465064281300,8.32028125,-0.004647533544898033,0.0021387655943632127,0.017354669533926063
1738772465074272500,8.3302724609375,-0.009674385263584554,-0.0041489363729953765,0.004201338132501405
1738772465084263400,8.340263427734374,-0.016621427922509608,-0.013423545196652412,-0.008906176799241803
1738772465094254300,8.35025439453125,-0.006873940890096127,-0.003099135059118271,-0.009505436175400972
1738772465104245500,8.36024560546875,0.0027414441952481865,-0.010882044020295143,-0.007707882380031514
1738772465114237200,8.3702373046875,0.006850633079744875,-0.00010462941825389861,0.0001109330073435558
1738772465124228400,8.380228271484375,0.0008914324143901467,0.0039344168394804,0.009822936021955683
1738772465134219500,8.390219482421875,-0.0027613179394975302,-0.008489595925807952,-0.0075233703965350285
1738772465144210400,8.40021044921875,-0.010039199987985192,-0.00789279907643795,-0.008066436327004338
1738772465154201300,8.410201416015624,-0.005220364996790886,0.003627542847394943,0.003760410266977851
1738772465164193300,8.420193359375,0.00245144827272743,-0.023010288709402082,0.00582085849045543
1738772465174184400,8.430184326171876,0.0007949863025918602,0.00467383702993393,0.0024638082849123746
1738772465184175400,8.44017529296875,-0.011836568266153334,-0.010443652603030203,0.0029684635923767928
1738772465194166500,8.45016650390625,-0.015285831937193869,-0.0083481416285038,-0.008915885342503316
1738772465204157400,8.460157470703125,0.002957096239924431,0.008860767325758934,0.002923652625926479
1738772465214149000,8.470149169921875,-0.0026221286645159124,0.004074117571115494,0.004308760298162815
1738772465224140300,8.480140380859375,-0.003519954287074506,-0.010740005201101303,-0.00798276749838842
1738772465234131500,8.49013134765625,-0.006651822572015226,-0.00864566327035427,0.0007382905334030511
1738772465244122400,8.500122314453124,0.001142776826955378,0.0024269348859786988,-0.004192014037963236
1738772465254113500,8.510113525390626,-0.008434066346287726,0.004970774149894714,0.0003655823374974716
1738772465264105200,8.520105224609376,-0.003832673498056829,-0.0010129764348268508,-0.0033132458839681927
1738772465274096000,8.53009619140625,-0.005188179760240018,-0.007297755792737007,0.018641718236356974
1738772465284087300,8.54008740234375,-0.010012275448441505,0.006171966633200645,-0.005635301902409992
1738772465294078500,8.550078369140625,0.005499181938171387,-0.003103226712346077,0.002160873108421947
1738772465304069400,8.5600693359375,0.0010521759340539575,-0.007295417705178261,0.005470403939081006
1738772465314061300,8.570061279296874,-0.0015285247415304183,0.006615618747472763,0.00002811256315981154
1738772465324052200,8.58005224609375,-0.007208908465504646,-0.00251227508187294,0.0016252477020752849
1738772465334043000,8.59004296875,0.003836217162013054,-0.011638999867439269,-0.0040522288246487735
1738772465344033800,8.60003369140625,-0.013277999246120453,-0.008044774767756462,0.001307658379147324
1738772465354025000,8.61002490234375,-0.008682488149404526,-0.007445055308938026,0.0022879085807231605
1738772465364017000,8.620016845703125,-0.01158756194114685,0.004529460123181343,-0.004941748413987807
1738772465374008000,8.630008056640625,0.008259257768653333,0.0006406359910964965,0.0034366838923247994
1738772465383999000,8.6399990234375,0.008459164254926144,-0.004149520894885063,-0.01675464982265257
1738772465393990000,8.649989990234374,-0.0026829554736614225,0.0034779052436351775,-0.007194928460035589
1738772465403980800,8.659980712890626,0.00785831228494644,0.0012304185777902603,0.006298946022224845
1738772465413972000,8.669971923828125,-0.005808978539705276,-0.012989245432615279,0.009939972830633633
1738772465423964000,8.6799638671875,0.004023227634094655,-0.010301029261946678,-0.00837946834852919
1738772465433955000,8.689955078125,-0.0026379472881555557,-0.008052373552322387,0.0024968406215455613
1738772465443946000,8.699946044921875,-0.008712335298396646,0.00003156418204307556,0.010512058788788272
1738772465453937000,8.70993701171875,0.01899462332725525,-0.008940846824645996,-0.011159752425045006
1738772465463927800,8.719927734375,-0.0037730887979269025,-0.0010088847815990446,-0.011811213487543864
1738772465473919700,8.729919677734374,-0.002878770306706428,0.007670096236467361,-0.0019250818871929367
1738772465483911000,8.739910888671876,0.015185294172167777,-0.0007078560084104537,-0.01042256300758454
1738772465493901800,8.74990185546875,0.007230535775423049,-0.006698620855808257,-0.0028091705318161984
1738772465503893000,8.75989306640625,0.0005576338827610015,-0.004157704201340675,0.002947090012907574
1738772465513884000,8.7698837890625,0.007080934704281389,0.006462474012374877,0.0075742940120631826
1738772465523875800,8.779875732421875,-0.009464578437805175,-0.0011649521261453627,0.01406114327222458
1738772465533867000,8.789866943359375,-0.0020920038431882855,-0.00355447761118412,0.001495345703602652
1738772465543858000,8.79985791015625,-0.01712882945537567,-0.0018985270977020263,-0.011046185073442757
1738772465553848800,8.809848876953126,-0.004391476424597204,-0.0014507833302021026,-0.005018253424522117
1738772465563840000,8.819840087890626,0.01906187987718731,0.002591185536980629,-0.001498023430345347
1738772465573831700,8.829831787109375,0.014091690249182283,-0.006385317122936249,-0.004377135659524356
1738772465583822800,8.83982275390625,0.011284816134907305,0.005733575215935707,0.010257540605025133
1738772465593814000,8.84981396484375,-0.0045592342069372535,0.00812719235420227,-0.01543471605570521
1738772465603805000,8.859804931640625,-0.007568973949551582,-0.006835983499884605,-0.012496347349137068
1738772465613795800,8.8697958984375,-0.013833879563212394,-0.017910335221886634,-0.0033038758382463126
1738772465623787800,8.879787841796874,-0.004348842859268188,0.002588262927532196,0.0036780377754825166
1738772465633778700,8.88977880859375,-0.009809409820102154,0.0022919103294610976,-0.007996317103950422
1738772465643769900,8.899769775390626,0.004487411079742014,-0.006384148079156876,-0.017195733237214152
1738772465653761000,8.909760986328125,0.011449066785909234,-0.006238017606735229,-0.004489688374740944
1738772465663752000,8.919751953125,0.004201543343067169,-0.009683774146437644,0.004638840494255419
1738772465673743600,8.92974365234375,-0.0015951237043365836,-0.001305237379670143,-0.000655299556099635
1738772465683734800,8.93973486328125,-0.005971987081691622,-0.014777882415056228,0.007288838408986339
1738772465693726000,8.949725830078124,-0.00246434428691864,0.0007815057665109634,-0.004374006983276922
1738772465703716900,8.959716796875,0.004106266275048256,0.004223755174875259,-0.013065503847977378
1738772465713708000,8.9697080078125,-0.015185294172167777,-0.003407762616872787,0.009529460367560387
1738772465723699700,8.97969970703125,-0.0005523731857538223,0.00018470891714096068,-0.008698414087609853
1738772465733690600,8.989690673828125,0.008449848437309265,0.0027279636591672897,-0.0003649113360508636
1738772465743681800,8.999681884765625,-0.004683773902058601,0.0027262100934982297,-0.006944625227086362
1738772465753673000,9.0096728515625,-0.005163118384219706,0.006019406419992447,0.00542057744374033
1738772465763664000,9.019663818359374,-0.012275580737926065,0.00048632221221923825,-0.0030095256843051172
1738772465773655800,9.02965576171875,-0.006930639513395727,0.0030319150418043135,0.006062934463642886
1738772465783646700,9.039646728515624,0.00019760493133217096,-0.0008563245683908462,0.001044854283645691
1738772465793637600,9.0496376953125,-0.004197999679110944,0.0010848726272583008,-0.006651010292084538
1738772465803628800,9.05962890625,0.010340813283063471,0.002729717224836349,-0.002918872846587328
1738772465813620000,9.069619873046875,-0.009389211646653711,-0.006698620855808257,-0.006000435716396896
1738772465823611600,9.079611572265625,-0.0017149506917223333,-0.0007148702710866927,0.009976411833905149
1738772465833602800,9.089602783203125,-0.01678282902929932,-0.01058627594411373,-0.0016730995808662554
1738772465843593700,9.09959375,0.006550736817717551,-0.0017506430596113203,0.006146947498020017
1738772465853584600,9.109584716796874,0.014150105905532836,-0.009530044889450072,0.010292232892493484
1738772465863575800,9.119575927734376,0.02247545118033886,-0.00504500842988491,0.0006722458389122038
1738772465873567700,9.129567626953126,0.0029150106638669965,-0.001911386579275131,-0.005782192139123799
1738772465883558700,9.13955859375,-0.010799626433849335,0.0030178865164518353,-0.014002253833482973
1738772465893549800,9.1495498046875,-0.022006116635538635,-0.0065665189087390895,-0.0006719644235883606
1738772465903540700,9.159540771484375,-0.014353556055761873,-0.017335165682435035,0.008817453911239862
1738772465913532000,9.169531982421875,-0.018677812463045118,0.00032850130200386043,-0.001947471244692133
1738772465923523000,9.179523193359374,0.004133154281973838,-0.0032592940568923947,0.005937589338456746
1738772465933514800,9.1895146484375,0.001508066475391388,0.006620879444479942,0.00657549794128281
1738772465943505700,9.199505615234376,-0.00025079642329365015,-0.0019102175354957578,0.008686767032300122
1738772465953496800,9.209496826171875,0.010188764526508748,-0.0014671499431133269,-0.0030904314482657355
1738772465963487700,9.21948779296875,0.009624152913689612,0.002715104177594185,-0.012820373405423014
1738772465973479000,9.22947900390625,-0.0035234614184126256,-0.005821838021278381,0.00781862302030786
1738772465983470800,9.239470947265625,-0.011730185282230377,-0.006271919876337051,0.0034547347160128992
1738772465993461800,9.249461669921875,-0.023753764020465314,-0.007616320222616196,0.001369492546695983
1738772466003452700,9.25945263671875,-0.013961268802545964,0.00990180081129074,-0.0023467215292956095
1738772466013443800,9.26944384765625,-0.0017243030419573186,-0.003108487409353256,-0.005069405939735589
1738772466023434800,9.279434814453126,0.005337305907346308,0.003773673319816589,-0.005759828468621708
1738772466033426700,9.2894267578125,0.014977825433947146,0.0007779986351728439,-0.005685427508561406
1738772466043417900,9.29941796875,0.01091247569117695,-0.010151391658186912,-0.002400166466295195
1738772466053408800,9.30940869140625,-0.0028687603693455456,-0.01599953316450119,0.0036807663053972646
1738772466063399700,9.319399658203125,-0.010525485667586326,0.003896422916650772,0.007352364065294386
1738772466073390800,9.329390869140624,-0.019189232583902774,-0.006129881057143211,-0.02626537466534646
1738772466083382800,9.3393828125,-0.02620174169447273,0.006445522877573967,-0.00038681278331059726
1738772466093373700,9.349373779296876,-0.0017061828633770345,-0.0052174423873424525,0.0038031811150358408
1738772466103364900,9.35936474609375,0.003154116649366915,0.007954173874855041,-0.0024213964839917023
1738772466113355800,9.369355712890625,0.015131518158316612,-0.012097849550843238,0.012332270228071138
1738772466123346700,9.3793466796875,0.007032382854819297,-0.003274491626024246,0.0171128498598875
1738772466133339000,9.3893388671875,-0.0007388722011819482,-0.0016360767692327497,-0.004311368955424405
1738772466143329800,9.399329833984375,0.00672375529706478,-0.004185761252045631,0.013819183175935177
1738772466153320700,9.40932080078125,-0.004806486966274679,0.004487374547123908,-0.011059429289150284
1738772466163311600,9.4193115234375,-0.021959866341017185,0.006429740786552429,0.0006395548539294395
1738772466173302800,9.429302734375,-0.0020826514929533,0.009124386698007582,-0.0031934203236378376
1738772466183294700,9.439294677734376,-0.0015185513367876409,0.00613338818848133,-0.011955219359893817
1738772466193286000,9.449285888671875,0.00014616700503975152,0.001793313157558441,-0.0038623445484132386
1738772466203276800,9.45927685546875,0.004095781413652003,-0.0052425768285989756,0.0010527747264975915
1738772466213267700,9.469267822265625,0.001461925778724253,-0.006741290953755378,0.0010729678457442786
1738772466223258600,9.479258544921874,-0.009110358172655104,-0.001499298647046089,0.00564851586454315
1738772466233249800,9.489249755859374,-0.0077256623486056915,-0.006739537388086319,0.0040106318723584986
1738772466243241700,9.49924169921875,-0.0006692775636911391,0.004184007686376571,-0.0066014834783767575
1738772466253233000,9.50923291015625,-0.011133351900242268,-0.001952303111553192,0.004634396929167269
1738772466263223800,9.519223876953125,0.005802548798918724,-0.009883680632710456,0.001999866297037806
1738772466273214700,9.529214599609375,-0.002167955156229436,-0.010929974815249443,-0.014853864552493904
1738772466283205600,9.53920556640625,0.004411386701464653,0.00912146408855915,0.0004439897555785137
1738772466293197800,9.54919775390625,-0.012657821521162986,-0.002998597294092178,0.0018204637426766565
1738772466303188700,9.559188720703125,0.010848726272583008,0.0014899462968111037,-0.017779253904835784
1738772466313179600,9.5691796875,0.001045746193267405,0.003438742277026176,-0.010535078904771945
1738772466323170800,9.5791708984375,-0.0002133139571174979,0.008828618621826172,0.0022576173320921953
1738772466333161700,9.58916162109375,0.02146189022362232,-0.015262451061606406,0.007440986488596536
1738772466343154000,9.59915380859375,-0.003360416343808174,-0.0056862289428710935,0.012415573730506002
1738772466353144800,9.609144775390625,0.014857413924671709,-0.00239244809448719,-0.011150622695451601
1738772466363135700,9.6191357421875,0.013770787731744349,0.009281038564443587,0.008451564328715903
1738772466373127000,9.629126953125,-0.010562274014018476,0.007332827106118202,-0.006652440772412228
1738772466383117800,9.639117919921874,-0.02097790609896183,-0.010177110621333122,-0.010713049837161088
1738772466393109800,9.64910986328125,-0.006487571921013295,-0.0008984101444482803,-0.0026862559673783834
1738772466403101000,9.659100830078126,-0.006368329455517232,0.0007487725406885147,0.010939415072096744
1738772466413091800,9.669091796875,-0.0023538696497678755,-0.0022428104907274244,0.002605888774123741
1738772466423082800,9.679082763671875,-0.003328815629146993,-0.017059855872392653,0.0029301913937451896
1738772466433074000,9.689073974609375,0.007752550355531275,-0.0019470424145460127,0.006123246391201973
1738772466443064800,9.69906494140625,-0.003333491804264486,-0.0000011690437793731689,-0.012885991695761913
1738772466453056800,9.709056884765625,0.004157740733958781,-0.0026952304333448408,0.002724422849321854
1738772466463048000,9.7190478515625,0.0011316709110513329,-0.00883563288450241,-0.005583478671160992
1738772466473038800,9.729038818359374,0.002579495099186897,0.003729834178090095,0.006364644227665849
1738772466483029800,9.73902978515625,-0.011003040051460265,0.00013736264407634735,0.0003502781673276331
1738772466493020700,9.749020751953125,-0.009439443996548651,-0.0012122983992099762,-0.005979173732659547
1738772466503012900,9.759012939453125,-0.002424012276530266,-0.0006201777249574661,-0.0030317049792502075
1738772466513003800,9.769003662109375,-0.0007195829788222909,0.0029682021558284756,0.0005285108216761728
1738772466522995000,9.778994873046875,0.0013175123393535614,-0.004367547559738159,0.0073905954501417
1738772466532985900,9.78898583984375,-0.00846040636394173,-0.004515431597828865,0.003825353560115036
1738772466542976800,9.798976806640624,-0.022167444677092134,-0.005558803170919418,-0.004299837777012726
1738772466552969000,9.808968994140624,-0.015637714114785192,0.0016325696378946303,0.005595312956138514
1738772466562960000,9.8189599609375,0.01123038253393024,-0.009730535897612571,0.007676491727924439
1738772466572950800,9.82895068359375,0.010617292136885226,-0.004492050722241401,-0.014783349749684566
1738772466582941700,9.838941650390625,0.009738719204068184,-0.008240589600801467,-0.0020433449645715883
1738772466592932900,9.848932861328125,-0.0029143896093592045,-0.004060089045763015,0.00012538394109287763
1738772466602924800,9.8589248046875,-0.0036357261538505553,-0.005115735578536987,-0.004827766645498922
1738772466612916000,9.868916015625,0.005064334184862673,0.003263385710120201,0.00009882444231916452
1738772466622907000,9.878906982421874,-0.022558453288674354,0.006409867042303085,-0.005225181594159221
1738772466632897800,9.888897705078126,-0.007112462353706359,-0.006454290705919265,-0.008353003891644766
1738772466642888700,9.898888671875,0.010120411998033523,-0.00016308160722255705,0.008938292395489406
1738772466652881000,9.908880859375,0.012477167724631725,0.00013736264407634735,-0.0051047278440441
1738772466662871800,9.918871826171875,0.018633973321318626,0.0034288054049015043,0.0023385993008108925
1738772466672862700,9.92886279296875,0.018301416898705063,-0.006453121662139892,-0.0013797716267043142
1738772466682854000,9.93885400390625,0.0063525838971138,-0.0021206454157829285,-0.00673555761600146
1738772466692844800,9.9488447265625,-0.017822656938433646,-0.015441899281740187,0.004698478851668187
1738772466702835700,9.958835693359376,-0.01849602615535259,-0.00047463177442550657,-0.0012498299560917076
1738772466712828000,9.968827880859376,-0.0051794119318947195,-0.014384499183297157,-0.001289740414316475
1738772466722818800,9.97881884765625,-0.0011374795973300934,-0.0015092355191707611,0.0014714331071751074
1738772466732809700,9.988809814453125,0.008946107521653176,-0.0006073182433843612,-0.0005923076185092213
1738772466742801000,9.99880078125,0.003451565225981176,-0.004493219766020774,0.005445009202920482
1738772466752791800,10.008791748046875,0.00840538824107498,-0.003745616269111633,-0.007229218888704781
1738772466762783700,10.01878369140625,-0.008348762683011591,0.004484451937675476,0.005969860198331298
1738772466772775000,10.02877490234375,0.002020655640028417,0.01435819569826126,-0.005010759100411087
1738772466782765800,10.038765869140626,-0.00804247321281582,0.0043278000712394715,-0.00771120056923537
1738772466792756700,10.0487568359375,-0.01775313536617905,-0.0043517654687166216,0.013655091213493141
1738772466802748000,10.058747802734375,-0.00808101512491703,-0.004798340192437172,0.001311581211721932
1738772466812739800,10.06873974609375,-0.000442446537874639,-0.00030979660153388974,0.0009908422348322346
1738772466822730800,10.078730712890625,0.002325228077173233,-0.01272562606036663,-0.003498717704923183
1738772466832722000,10.088721923828125,0.01798519055638462,-0.009731120419502257,-0.0002678060673657455
1738772466842712800,10.098712890625,0.018325930285453797,0.00014379238486289978,-0.004709602463059127
1738772466852703700,10.108703857421874,0.0021265271672978995,-0.002405307576060295,-0.0006361153650170308
1738772466862696000,10.118696044921874,-0.003025485301017761,0.0035761049211025238,0.005028517377743264
1738772466872686800,10.128686767578126,-0.02352934414744377,0.002828501424193382,0.006168227177244262
1738772466882677800,10.138677734375,-0.011145663392543793,-0.010481062003970145,0.002246789406579046
1738772466892669000,10.1486689453125,-0.008974785626865923,-0.0007452654093503951,-0.0018901631260334396
1738772466902659800,10.158659912109375,-0.0025765724897384643,-0.005225625693798065,0.009850538698222954
1738772466912650800,10.168650634765624,0.01148293252289295,-0.004178162467479705,0.002301661969795532
1738772466922643000,10.178642822265624,0.008846117745898663,0.004348258337378502,-0.0017737719172160721
1738772466932633900,10.1886337890625,0.011811433824896812,-0.006879238119721413,0.007272955853265011
1738772466942624800,10.198624755859376,-0.0001578209102153778,-0.008382628419995307,0.0010411893199809127
1738772466952616000,10.208615966796875,-0.007398257025144994,-0.00270049113035202,-0.006827068399422569
1738772466962606800,10.21860693359375,-0.019333024968765676,0.0017938976794481276,0.02073440249955747
1738772466972598800,10.228598876953125,-0.017071546310186383,-0.005077157133817673,0.006056079460348701
1738772466982590000,10.23858984375,0.004881963355280458,0.00016834230422973633,-0.008556908416311489
1738772466992580900,10.248580810546875,-0.0021439897587522865,0.0030178865164518353,0.0035791611029359046
1738772467002571800,10.25857177734375,0.011532616883516311,-0.014043138399720191,0.002022442884204793
1738772467012563000,10.26856298828125,0.014506079736351965,-0.006567103430628776,0.00481638045591535
1738772467022555000,10.278554931640626,0.008340542843937874,-0.004027940341830253,0.00828994174292893
1738772467032545800,10.2885458984375,-0.008033632319234311,-0.007474281403422356,-0.00034153545515728183
1738772467042537000,10.298536865234375,-0.014978336890600621,-0.0029886604219675063,-0.010957571783295133
1738772467052527900,10.30852783203125,-0.003606500059366226,0.0004594342052936554,0.01165865441597998
1738772467062518800,10.318518798828125,-0.004107435318827629,-0.00177636202275753,0.00812131574008672
1738772467072511000,10.328510986328125,-0.013917466193437575,0.0021177228063344955,-0.003999898988734639
1738772467082502000,10.338501953125,0.013997509159706533,0.0034673838496208187,-0.006314917626202805
1738772467092492800,10.348492919921876,0.005317980152368545,-0.013590718457102774,-0.010079659862536937
1738772467102484000,10.35848388671875,-0.0021738369077444076,-0.0037140520870685575,0.014426938669092487
1738772467112475000,10.368474853515625,-0.006903788039088248,-0.004016249904036521,0.009219984568079235
1738772467122465800,10.3784658203125,-0.00019351327810436487,-0.001322188514471054,-0.0027098098020796896
1738772467132458000,10.3884580078125,-0.01680262970831245,0.009309095615148543,0.012810457082896028
1738772467142449000,10.398448974609375,-0.007882241149805486,-0.0032581250131130217,-0.010373708622378762
1738772467152439800,10.408439697265624,0.018545747048594057,0.0069195701301097865,0.011957372501073404
1738772467162430700,10.4184306640625,0.0105786406269297,-0.01223930384814739,0.007499599078591563
1738772467172422000,10.428421875,0.0016121479043737052,-0.009851531928777694,0.004415513174844091
1738772467182413800,10.438413818359376,-0.009490297400951385,0.007052256599068641,0.017762588181113825
1738772467192405000,10.448405029296875,-0.021481763967871666,0.002264437800645828,0.00848537298348383
1738772467202396000,10.45839599609375,-0.0133195003002882,-0.004016834425926208,-0.01544773993405979
1738772467212386800,10.46838671875,-0.0022463541546836495,0.0012263269245624542,0.01652664632812375
1738772467222377700,10.478377685546874,-0.0001163198560476303,-0.0011620295166969298,0.015283537232119124
1738772467232370000,10.488369873046874,-0.0011696283012628554,-0.013126608076691627,0.001766914059811097
1738772467242360800,10.49836083984375,0.01785177343506366,-0.003102057668566704,-0.004248952121158072
1738772467252351700,10.508351806640626,0.019367511760257184,-0.002361468434333801,0.0058835781458765266
1738772467262343000,10.518343017578125,0.0003600289514288306,-0.0032721535384654995,-0.010033039675257168
1738772467272333800,10.528333740234375,0.012910882966779171,-0.0016384148567914962,0.008961068199589499
1738772467282324700,10.53832470703125,-0.017232910884357987,-0.0004383914172649383,0.0023361981374036985
1738772467292317000,10.54831689453125,-0.0266349454799667,-0.004323123896121979,0.010129088494833557
1738772467302307800,10.558307861328124,-0.00989065836276859,0.002717442265152931,0.003583331815032579
1738772467312298800,10.568298828125,0.0026198636421933767,-0.0034089316606521606,0.0017097114005460753
1738772467322290000,10.5782900390625,0.004839877779223025,-0.007298340314626693,-0.008099050821817945
1738772467332280600,10.588280517578125,0.011535576025582849,0.003171615773439407,-0.00015139459436177275
1738772467342272500,10.5982724609375,0.014328385081887244,-0.009558686462044715,0.0031946530140878164
1738772467352263700,10.608263671875,-0.009074665804766117,-0.008222469422221183,-0.010151701043796492
1738772467362254600,10.618254638671875,-0.010746982931159436,-0.004786065232753754,0.012349042124714469
1738772467372245500,10.62824560546875,-0.030946305873058733,0.0013555062621831893,0.011601341588038485
1738772467382236400,10.638236328125,-0.012561338876746594,-0.005370587122440338,0.004225339777185581
1738772467392228600,10.648228515625,0.0052519657114520665,0.0003214870393276214,0.004844978075203835
1738772467402219500,10.658219482421876,0.01376432145833969,-0.013294365859031676,-0.007061752796487417
1738772467412210700,10.668210693359375,0.015154314512014388,0.002265606844425201,0.004176384641868936
1738772467422201600,10.67820166015625,0.004918788234330713,-0.005818330889940261,-0.006111892738481401
1738772467432192500,10.688192626953125,0.01514028598666191,0.007347440153360366,-0.0039890456616354635
1738772467442184700,10.698184814453125,0.0005435688247904181,0.007051672077178954,0.020650274729926605
1738772467452175600,10.708175537109375,-0.01720773991048336,-0.01179798982143402,0.008412386520730796
1738772467462166500,10.71816650390625,-0.012118271284364162,-0.011941197684407233,-0.021103249511681497
1738772467472157400,10.728157470703126,-0.0022953809281811115,-0.012687047615647316,-0.012387419640034203
1738772467482148600,10.738148681640626,-0.0018347776791080832,-0.006851765590906143,-0.009533472105686086
1738772467492139500,10.748139404296875,-0.004572093688510358,-0.01313479138314724,0.010547519402881152
1738772467502131700,10.758131591796875,0.003619396073557436,-0.005651157629489898,0.002896981816831976
1738772467512122600,10.76812255859375,0.010254852032661438,-0.0008586626559495925,-0.005665536639647325
1738772467522113500,10.778113525390625,0.006259060394763946,0.005580430480837822,-0.014681805054371944
1738772467532104400,10.7881044921875,-0.0006961290379986167,0.002441547933220863,-0.005091373459660099
1738772467542095600,10.798095703125,0.013012662840820848,0.007525134807825088,0.012390352524281478
1738772467552087600,10.808087646484376,0.005195851610042154,0.009016250148415565,0.002526308744624839
1738772467562078500,10.818078369140625,0.015027473261952399,0.00048281508088111874,0.0028166160506327286
1738772467572069600,10.828069580078125,-0.005727145475149155,-0.011789806514978409,0.0090380098890746
1738772467582060500,10.838060546875,-0.02612809193637222,0.0028770167410373687,0.009646832819667179
1738772467592051500,10.848051513671875,-0.0056768400600180026,0.006619710400700569,0.01105603746388806
1738772467602043600,10.858043701171875,-0.013164601999521255,-0.0038473230779170987,-0.003565960269712377
1738772467612034600,10.86803466796875,-0.0030505832096561786,-0.001301145726442337,-0.00009333056446048431
1738772467622025500,10.878025390625,0.005501556558348238,0.00004442366361618042,-0.001729686180317367
1738772467632016600,10.8880166015625,0.007325264854170382,0.0009410802423954009,-0.0051737368180009066
1738772467642007600,10.898007568359375,-0.00955689636375755,0.00004208557605743408,0.014445557746238773
1738772467651998500,10.90799853515625,0.0015460969308391213,-0.0008569090902805328,0.0014475838720070895
1738772467661990700,10.91799072265625,-0.0028308395117521284,-0.007146949145197868,-0.0049761119078932095
1738772467671981600,10.927981689453125,-0.017460874421335756,0.0003337619990110397,-0.006483247372345067
1738772467681972500,10.937972412109374,-0.011983867782354354,-0.00355447761118412,-0.002990379738307092
1738772467691963600,10.947963623046874,-0.00011109569165855646,-0.001005962172150612,0.002722429538346478
1738772467701954600,10.95795458984375,-0.0016752762684598564,-0.005192892467975616,-0.005239077117948909
1738772467711946500,10.967946533203126,-0.003563793428801,-0.006379471904039383,0.00003055211435712408
1738772467721937700,10.977937744140625,0.00985682915840298,0.004838672202825546,-0.0031242252616575567
1738772467731928600,10.987928466796875,-0.00008179653193801641,0.0024409634113311766,0.008975278817210346
1738772467741919500,10.99791943359375,-0.00029810616374015806,-0.006840659675002097,-0.0074700995602936015
1738772467751910700,11.00791064453125,-0.008346351530216635,-0.004304419195652008,-0.007304286569045507
1738772467761902600,11.017902587890624,-0.010161328530311584,-0.007895137163996696,-0.022266402406385166
1738772467771893500,11.0278935546875,-0.011948175414465367,-0.0019102175354957578,-0.006136490036087343
1738772467781884700,11.037884765625,-0.0003161898097023368,-0.006696867290139198,0.0010678452876993105
1738772467791875600,11.04787548828125,-0.009962518022581935,-0.00699263536632061,0.006161591369658708
1738772467801866500,11.057866455078125,0.006999065107107162,-0.005199322208762168,0.005925515878995065
1738772467811857700,11.067857666015625,0.0016741072246804832,-0.005651157629489898,-0.00210871523268288
1738772467821849600,11.077849609375,-0.008892294975183904,-0.01912088005542755,-0.002275473505424452
1738772467831840500,11.087840576171875,0.002747873936034739,-0.007604045262932777,-0.007636743097781436
1738772467841831700,11.097831787109374,0.0029109920758754013,-0.0017687632381916045,-0.004771484151552431
1738772467851822600,11.107822509765626,-0.001760543399117887,0.012298340559005737,0.012826327080529882
1738772467861813500,11.1178134765625,0.010189970102906227,-0.005208674558997154,0.006018958324598497
1738772467871805700,11.1278056640625,-0.0035561946442350745,-0.014337152910232543,0.0012278435990359866
1738772467881796600,11.137796630859375,0.0016460501739755272,-0.006105915659666061,0.004833054171147523
1738772467891787500,11.14778759765625,0.0019155147651210426,-0.006104162093997001,0.00007621845781104639
1738772467901778700,11.15777880859375,-0.006056231299042702,-0.010142623829841614,-0.005314240125590004
1738772467911769600,11.16776953125,0.0023632585326209665,-0.00265606746673584,-0.0032154380759122432
1738772467921761500,11.177761474609374,0.007529847515560686,-0.011781038686633109,0.013983236322470474
1738772467931752700,11.187752685546876,0.002755436187982559,0.0033317747712135314,0.006006429919876973
1738772467941743600,11.19774365234375,-0.008467932083271443,0.00677343965768814,0.0014465903560412698
1738772467951734500,11.207734619140625,0.0037824046155437827,-0.008040098592638968,0.0016939461487781955
1738772467961725400,11.217725341796875,0.0031722002953290937,-0.00414835185110569,0.007563389596380875
1738772467971716600,11.227716552734375,-0.007913841864466666,-0.0044470425367355345,0.000004114486114121973
1738772467981708500,11.23770849609375,0.005840542721748352,-0.012227613410353659,0.008171259824791922
1738772467991699700,11.24769970703125,0.007125321835279464,-0.012972878819704055,-0.01552979105268023
1738772468001690600,11.257690673828124,0.015832359904050824,-0.010274141255021095,-0.0021676988570805407
1738772468011681500,11.267681640625,0.008767828345298767,-0.0017436287969350814,-0.006676909635032643
1738772468021672400,11.27767236328125,0.005372304155491292,-0.014914076015353201,0.004219827918428927
1738772468031664600,11.28766455078125,-0.019469255101680755,0.006634323447942733,-0.0011610614023171365
1738772468041655600,11.297655517578125,-0.016291794109344483,0.010679799446463585,0.010055560892674838
1738772468051646500,11.307646484375,-0.0106704470962286,-0.007423427999019622,0.007070055404774029
1738772468061637600,11.3176376953125,-0.0029459903240203855,-0.004129647150635719,-0.0014292188107210676
1738772468071628500,11.327628662109374,0.0002811550289392471,0.007844283759593963,-0.002976689710494247
1738772468081620700,11.337620849609374,0.004767981586791575,-0.004425999748706817,0.0018932013269688467
1738772468091611600,11.347611572265626,-0.006829517226479947,-0.014604863935708999,0.00007145323443692177
1738772468101602600,11.3576025390625,-0.008567921859025955,0.009485036703944206,0.008827214399317745
1738772468111593500,11.367593505859375,-0.008026654589176178,-0.0029389760613441466,0.017263979592768007
1738772468121584600,11.377584716796875,-0.017767163891531525,0.0008019640326499939,-0.00401823179856874
1738772468131575600,11.387575439453125,-0.01375500564072281,-0.0002437456279993057,-0.009941121324815321
1738772468141567500,11.3975673828125,-0.00721946639213711,-0.003983516678214073,0.005033339112511021
1738772468151558700,11.40755859375,-0.001543758843280375,-0.009662146836519241,0.006431063952314434
1738772468161549600,11.417549560546876,0.0032569559693336487,-0.010553542718291281,0.003566310754517326
1738772468171540500,11.42754052734375,-0.0032645912865176797,-0.00965220996439457,0.00407083134795248
1738772468181531600,11.43753173828125,0.008548669169284403,0.0048562078595161436,-0.0006137491258152295
1738772468191523600,11.447523681640625,0.012943104735948145,-0.014449381113052367,0.002638782971794717
1738772468201514500,11.457514404296875,0.003985854765772819,0.0018541034340858458,0.013469437014858704
1738772468211505700,11.467505615234375,-0.0026537293791770934,0.0014005144476890562,-0.01155274178951513
1738772468221496600,11.47749658203125,-0.016010639080405235,-0.005929974570870399,-0.004401903062133351
1738772468231487500,11.487487548828126,-0.016537293303012846,-0.0017366145342588423,0.0094668137773755
1738772468241479700,11.497479736328126,-0.004816460371017456,0.0015600889235734938,-0.006835463480898761
1738772468251470600,11.507470703125,-0.0030617256581783295,-0.006368950510025024,0.004812224299783702
1738772468261461500,11.51746142578125,0.002805157081224024,0.002763619494438171,-0.00005858633217576425
1738772468271452700,11.52745263671875,0.00795537945125252,0.006508651241660118,-0.0021160434475459623
1738772468281443600,11.537443603515625,-0.010166004705429077,0.002918517795205116,0.009749210915330332
1738772468291434500,11.5474345703125,0.0135591542750597,-0.003818681505322456,-0.0007715774567186599
1738772468301426700,11.5574267578125,-0.01511982772052288,-0.0038210195928812026,-0.0014075521140737692
1738772468311417600,11.56741748046875,-0.014622399592399596,-0.005469955843687057,-0.0005665284336253535
1738772468321408500,11.577408447265626,0.0015495675295591354,-0.004421908095479011,-0.01007504990278976
1738772468331400000,11.58739990234375,-0.0043230873635038735,-0.009508417579531669,0.0018746981267206138
1738772468341390800,11.597390869140625,-0.0031383345583453773,-0.002026537391543388,0.008521245160352554
1738772468351383000,11.607383056640625,0.0014805939465761184,-0.007112462353706359,0.00047225372931570744
1738772468361374000,11.6173740234375,-0.006050970602035522,-0.0036684593796730038,-0.001259664651050116
1738772468371365000,11.627365234375,-0.002753061567805707,-0.0021662381231784818,0.00726728302265983
1738772468381356000,11.63735595703125,0.008079882613755762,-0.00710720165669918,0.017269656989950453
1738772468391347000,11.647346923828126,0.010365911191701889,-0.0036672903358936308,0.007444664295759866
1738772468401339100,11.657339111328126,0.006300013459660112,0.0020136779099702833,0.013134396374213974
1738772468411330000,11.667330078125,-0.015349581355787813,0.0033580782562494275,-0.0012473012139322236
1738772468421321000,11.677321044921875,-0.007028839190863072,0.00814940418601036,-0.013288348251843126
1738772468431312000,11.687311767578125,-0.008042436680197716,-0.0011228665500879287,-0.0018002015539488637
1738772468441303000,11.697302978515625,-0.001026383905671537,-0.01144727668762207,0.0037373844427725997
