time,seconds_elapsed,z,y,x
1738772456769081000,0.0250810546875,0.00031942431814968586,-0.0009534652344882488,0.00827249139547348
1738772456779072000,0.035072021484375,0.0008083176799118519,0.00043246010318398476,0.007257979828864336
1738772456789063000,0.04506298828125,-0.00005081808194518089,0.0005166158080101013,0.005162072367966175
1738772456799055000,0.05505517578125,-0.0005963281728327274,0.0001993908081203699,0.0013681951677426696
1738772456809046000,0.0650458984375,0.00004256411921232939,0.0004960666410624981,-0.0009564781212247908
1738772456819037200,0.075037109375,0.00040954595897346735,0.000982058933004737,-0.004399146419018507
1738772456829028000,0.085028076171875,0.00008623814210295677,0.0011013683397322893,-0.007981098257005215
1738772456839019000,0.09501904296875,-0.0007073921151459217,-0.00037090503610670567,-0.006283178925514221
1738772456849011200,0.10501123046875,-0.0005116497632116079,-0.000047597335651516914,-0.004546797834336758
1738772456859002000,0.115002197265625,0.00030518940184265375,0.0006574704311788082,0.0009400497074238956
1738772456868993000,0.124992919921875,0.0018357080407440662,0.0003275047056376934,0.004890050273388624
1738772456878984000,0.13498388671875,-0.0006672848830930889,0.00040893186815083027,0.006848551798611879
1738772456888976100,0.14497607421875,-0.0004875215236097574,-0.000008651986718177795,0.004093777853995562
1738772456898967000,0.154967041015625,-0.00038036168552935123,-0.0012087603099644184,0.003635296132415533
1738772456908958200,0.164958251953125,0.0007307091727852821,0.0004224260337650776,0.000546295486856252
1738772456918949000,0.17494921875,0.0010622208938002586,-0.0010435562580823898,-0.004407997243106365
1738772456928941000,0.184941162109375,0.0005615465342998505,0.0009341069962829351,-0.005507882684469223
1738772456938932200,0.19493212890625,-0.0006337449885904789,0.0008141188882291317,-0.0035165748558938503
1738772456948923100,0.204923095703125,-0.00031230144668370485,0.0004873489961028099,-0.0030079111456871033
1738772456958914000,0.2149140625,0.0006521557224914432,-0.00013389228843152523,0.00010675931116566062
1738772456968905000,0.224905029296875,0.0001975542400032282,0.00004214257933199406,0.002410660032182932
1738772456978897200,0.234897216796875,-0.0006166665116325021,-0.0008003299590200186,0.004028250463306904
1738772456988888000,0.24488818359375,0.00001024163793772459,-0.0007177719380706549,0.004196828231215477
1738772456998879200,0.254879150390625,-0.00018635543528944254,-0.0006324232090264559,0.0012078245636075735
1738772457008870100,0.2648701171875,0.0004823643248528242,0.00048637064173817635,0.0011582898441702127
1738772457018862000,0.274862060546875,0.0010639369720593095,0.000699295662343502,-0.00043048831867054105
1738772457028853200,0.284853271484375,-0.00031078688334673643,-0.00003120931796729565,-0.0042225634679198265
1738772457038844200,0.29484423828125,-0.000074162264354527,0.0005194088444113731,-0.004263893235474825
1738772457048835000,0.3048349609375,0.002308834111317992,0.00018145376816391945,-0.0022327001206576824
1738772457058826000,0.314825927734375,-0.0018446999602019787,0.00016448460519313812,-0.00018386714509688318
1738772457068818200,0.324818115234375,0.0008730558911338449,0.0005399901419878006,0.0018249552231281996
1738772457078809000,0.33480908203125,-0.0005897498922422528,-0.0000820518471300602,0.0032326432410627604
1738772457088800300,0.34480029296875,-0.001123181078583002,-0.00044184504076838493,0.002348740119487047
1738772457098791200,0.354791259765625,0.00012129219248890877,-0.0011542032007128,0.0016366816125810146
1738772457108783000,0.364783203125,0.000532217905856669,-0.00023727677762508392,0.001013235654681921
1738772457118774300,0.374774169921875,0.0005564731545746326,-0.00013230228796601295,-0.0006903773173689842
1738772457128765200,0.38476513671875,-0.0009434191160835326,-0.0008372410666197538,-0.0012041011359542608
1738772457138756000,0.394756103515625,-0.0012503138277679682,0.0007374291308224201,-0.0019045430235564709
1738772457148747300,0.404747314453125,0.0006059093866497278,-0.0007254453375935555,-0.0008206365746445954
1738772457158739200,0.4147392578125,-0.0005818077479489148,0.00016239657998085022,-0.001440170337446034
1738772457168730000,0.424730224609375,0.00010262464638799429,-0.00028448179364204407,0.0016397754661738873
1738772457178721300,0.43472119140625,0.0012166004162281752,0.00025438820011913776,0.001876252586953342
1738772457188712200,0.444712158203125,-0.0008145924657583237,-0.0004635998047888279,0.004435816779732704
1738772457198703000,0.454703125,-0.0004429214750416577,0.00012321583926677704,0.00037047278601676226
1738772457208695300,0.4646953125,0.0020290245302021503,0.0016638543456792831,-0.0014295578002929688
1738772457218686200,0.474686279296875,0.00023799098562449217,-0.0001318568829447031,-0.0022781433071941137
1738772457228677000,0.484677001953125,0.0029935636557638645,-0.0005928501486778259,-0.0022613652981817722
1738772457238668300,0.494668212890625,0.00043880101293325424,-0.0004464981611818075,-0.0034411263186484575
1738772457248660000,0.504659912109375,0.000702986610122025,-0.000326123321428895,-0.0004730333457700908
1738772457258651100,0.514651123046875,0.0007840031757950783,-0.0005873104091733694,-0.0005599955911748111
1738772457268642300,0.524642333984375,0.0014218301512300968,0.00012215552851557732,0.0027934566605836153
1738772457278633200,0.53463330078125,0.0003852497320622206,0.0010139858350157738,0.0031008757650852203
1738772457288625000,0.544625,-0.0009889414068311453,0.00046004820615053177,0.004037776030600071
1738772457298616000,0.554615966796875,0.0012850124621763825,-0.0015754255000501871,0.0010200579417869449
1738772457308607000,0.56460693359375,0.0018986047944054008,0.000012617558240890503,0.0013606761349365115
1738772457318597600,0.57459765625,0.001016083057038486,-0.000788782024756074,-0.00004781871393788606
1738772457328588500,0.584588623046875,0.003848887514322996,0.0002610362134873867,-0.004187702666968107
1738772457338580500,0.59458056640625,0.0005045534344390035,0.00030451640486717224,-0.0038939928635954857
1738772457348571600,0.604571533203125,0.001139983651228249,-0.0004938994534313679,-0.0027424420695751905
1738772457358562600,0.6145625,0.00004662212450057268,0.0007231435738503933,-0.0012813445646315813
1738772457368553500,0.624553466796875,0.0007965682307258248,-0.0015738329384475946,0.0012409352930262685
1738772457378544600,0.634544677734375,0.0026378827169537544,-0.00004248647019267082,0.0026517980732023716
1738772457388536600,0.64453662109375,-0.0003113015554845333,0.00024247169494628906,0.005127205979079008
1738772457398527500,0.654527587890625,0.001633618725463748,-0.0005238638259470463,0.0013981455704197288
1738772457408518700,0.6645185546875,0.0014104458969086409,-0.0011843277607113123,0.0009667134145274758
1738772457418509600,0.674509521484375,0.002086789347231388,-0.00020790426060557365,-0.0020649880170822144
1738772457428501200,0.684501220703125,0.002071609254926443,-0.0005637025460600853,-0.0029499565716832876
1738772457438492400,0.694492431640625,0.00009771890472620726,-0.0001991612371057272,-0.0024336548522114754
1738772457448483600,0.704483642578125,0.00031689705792814493,-0.00032219942659139633,-0.0014040766982361674
1738772457458474500,0.714474609375,-0.00014942779671400785,-0.0007839302998036146,-0.000253579142736271
1738772457468465700,0.724465576171875,-0.00026101432740688324,0.00017347605898976326,0.0012827985920011997
1738772457478457300,0.734457275390625,0.001370956189930439,-0.00036124931648373604,0.0033830804750323296
1738772457488448300,0.7444482421875,-0.0008360053179785609,-0.0006086570210754871,0.00227227620780468
1738772457498439400,0.754439453125,-0.00023006321862339973,0.001104963943362236,0.002365825930610299
1738772457508430600,0.7644306640625,-0.0013097086921334267,-0.0004971940070390701,0.0009229250717908144
1738772457518422300,0.77442236328125,-0.0005272352136671543,-0.0014488790184259415,-0.001806139713153243
1738772457528413400,0.784413330078125,-0.00001590827014297247,-0.0007202380802482367,-0.003636264009401202
1738772457538404400,0.794404296875,-0.0008609514334239066,0.0006987061351537704,-0.0015224858652800322
1738772457548395500,0.8043955078125,0.00009379175025969744,-0.0006581747438758612,-0.0007264669984579086
1738772457558386700,0.81438671875,0.0021129322703927755,-0.0001413905993103981,0.0016249518375843763
1738772457568378400,0.82437841796875,0.0009983992204070091,-0.00035231304354965687,0.0009466447518207133
1738772457578369300,0.834369384765625,-0.00016173976473510265,0.000590568408370018,0.0019709495827555656
1738772457588360400,0.8443603515625,-0.0008008984732441604,-0.0008392829913645983,0.0011634790571406484
1738772457598351400,0.854351318359375,0.00009603577200323343,0.00026416731998324394,0.0007714718813076615
1738772457608343300,0.86434326171875,-0.00008106441237032413,-0.0006932388059794903,-0.0012453399831429124
1738772457618334500,0.87433447265625,0.001206681365147233,0.0001918906345963478,-0.0019297903636470437
1738772457628325400,0.884325439453125,-0.00016111810691654682,0.0016688797622919083,-0.0014152677031233907
1738772457638316300,0.89431640625,0.0005539514822885394,0.00025303522124886513,0.00013004345237277448
1738772457648307500,0.904307373046875,0.00014595524407923222,-0.0006788047030568123,0.00033457420067861676
1738772457658299400,0.91429931640625,-0.0008570502395741642,-0.0013756593689322472,0.0020770796108990908
1738772457668290300,0.924290283203125,-0.0010570536833256483,-0.0013700667768716812,0.0015769380843266845
1738772457678281500,0.934281494140625,-0.0007588135777041316,0.00014128535985946655,0.0009855240350589156
1738772457688272400,0.9442724609375,0.0004966005217283964,-0.0008808358106762171,0.0012481117155402899
1738772457698264300,0.954264404296875,-0.0005926626035943627,0.0002731345593929291,0.0006574384751729667
1738772457708255500,0.96425537109375,0.0000321150291711092,0.0013210885226726532,-0.0011583047453314066
1738772457718246400,0.974246337890625,0.00014923105482012033,-0.0006479793228209019,0.00001622599666006863
1738772457728237300,0.9842373046875,-0.0009892702801153064,-0.002144675934687257,0.0010199714452028275
1738772457738228500,0.994228515625,0.001154421828687191,-0.0001329814549535513,0.00019557360792532563
1738772457748220400,1.004220458984375,0.0013131462037563324,-0.00003977073356509209,-0.0008182917954400182
1738772457758211300,1.01421142578125,-0.000006613787263631821,-0.00043022935278713703,0.00028465414652600884
1738772457768202500,1.024202392578125,0.00004398624878376722,-0.0010267773177474737,0.00025695725344121456
1738772457778193400,1.034193359375,0.0005209604278206825,0.0005183662287890911,-0.00019054616859648377
1738772457788184300,1.044184326171875,-0.00008810451254248619,0.0004528523422777653,0.0009873700328171253
1738772457798176500,1.054176513671875,-0.00045235356083139777,0.00018124468624591827,0.0008858782239258289
1738772457808167400,1.06416748046875,-0.00015594367869198322,0.0003911019302904606,-0.0014236151473596692
1738772457818158300,1.074158447265625,-0.00020440120715647936,0.0004165484569966793,-0.0013225484872236848
1738772457828149500,1.0841494140625,0.0011500825639814138,-0.00031875050626695156,-0.001486599212512374
1738772457838141400,1.094141357421875,0.0002302213106304407,-0.0005851434543728828,0.0017281393520534039
1738772457848132400,1.10413232421875,-0.0009567495435476303,-0.0003696936182677746,0.0006205308018252254
1738772457858123500,1.11412353515625,0.00008619099389761686,0.0005880985409021378,0.001666969619691372
1738772457868114400,1.124114501953125,0.00029445020481944084,-0.0009019400458782911,-0.0004153560730628669
1738772457878105300,1.134105224609375,0.0010307844495400786,-0.0001834239810705185,0.0010560486698523164
1738772457888097500,1.14409765625,0.00036765728145837784,-0.00022337143309414387,0.00046349529293365777
1738772457898088400,1.15408837890625,0.0010456278687343001,0.0005838288925588131,0.00030049640918150544
1738772457908079400,1.164079345703125,0.0015971685061231256,-0.0007075376342982054,-0.00039006126462481916
1738772457918070500,1.174070556640625,-0.001153338118456304,-0.00030439323745667934,0.0002342999796383083
1738772457928061400,1.1840615234375,0.0013079553609713912,-0.00011743931099772453,-0.0018765215063467622
1738772457938053400,1.194053466796875,-0.0008860388188622892,-0.00007965276017785072,-0.0005833631148561835
1738772457948044500,1.20404443359375,0.00030279625207185745,-0.0008101577404886484,-0.00028908380772918463
1738772457958035500,1.214035400390625,0.0000572744756937027,-0.0015178790781646967,0.0008206106722354889
1738772457968026400,1.2240263671875,-0.0013235744554549456,0.0005162432789802551,0.0004200712719466537
1738772457978018600,1.2340185546875,-0.0012981923064216971,0.00021491153165698051,-0.00032400520285591483
1738772457988009500,1.244009521484375,0.00018545472994446754,0.0004972065798938274,-0.0004390537505969405
1738772457998000400,1.25400048828125,0.00023834628518670797,-0.0006851763464510441,-0.00046323760761879385
1738772458007991600,1.263991455078125,-0.0005741841741837561,-0.00024708639830350876,-0.0007620442775078118
1738772458017982500,1.273982421875,-0.0005733681609854102,-0.0003063557669520378,0.00015087416977621615
1738772458027974400,1.283974365234375,0.002730549778789282,-0.00035189581103622913,-0.000024628126993775368
1738772458037965600,1.293965576171875,-0.0009283184772357345,0.000605530571192503,0.0015840810956433415
1738772458047956500,1.30395654296875,-0.00056106859119609,0.0010015428997576237,-0.0006889268988743424
1738772458057947400,1.313947509765625,-0.0003097567241638899,-0.00014753430150449276,-0.0001971561141544953
1738772458067939600,1.323939697265625,0.00014351331628859043,0.00023835757747292519,-0.00016306764155160636
1738772458077930500,1.333930419921875,-0.0012799286050722003,-0.00003604870289564133,-0.0004875256272498518
1738772458087921400,1.34392138671875,-0.0007576826610602438,-0.0006893221288919449,0.00022939735208638012
1738772458097912600,1.35391259765625,0.001364748110063374,-0.00035312632098793983,-0.001474949298426509
1738772458107903500,1.363903564453125,-0.0008467409061267972,-0.00020026089623570442,-0.0010717468103393912
1738772458117895400,1.3738955078125,-0.001189735485240817,0.00016857217997312546,-0.00045383020187728107
1738772458127886600,1.383886474609375,0.001181276747956872,-0.0011121421121060848,0.0002833327744156122
1738772458137877500,1.39387744140625,-0.0005665228236466646,0.00012185191735625267,0.0003275279304943979
1738772458147868400,1.403868408203125,0.00017516757361590862,-0.00022435910068452358,-0.00016728737682569772
1738772458157859600,1.413859619140625,-0.001080774236470461,-0.00030126702040433884,-0.0005624794866889715
1738772458167851500,1.4238515625,-0.0003366869641467929,0.00032590748742222786,-0.000909223104827106
1738772458177842400,1.433842529296875,-0.0006236586486920714,0.0005919910036027431,-0.0001463571679778397
1738772458187833600,1.44383349609375,0.0010237728711217642,0.0016018617898225784,-0.000780722126364708
1738772458197824500,1.453824462890625,0.0006192077416926622,0.00011694198474287987,-0.00014683128392789513
1738772458207815400,1.4638154296875,0.0006607531104236841,-0.0017078560777008533,-0.0005148801719769835
1738772458217807600,1.4738076171875,-0.0010678406106308103,-0.0007162569090723991,0.0013707797043025494
1738772458227798500,1.483798583984375,0.00046933593694120646,-0.0005245092324912548,0.001596083166077733
1738772458237789400,1.49378955078125,0.0004015160957351327,-0.0008514092769473791,0.001990845426917076
1738772458247780600,1.503780517578125,-0.00044137437362223864,0.0003158543258905411,0.00012929594959132373
1738772458257772500,1.5137724609375,-0.001117435283958912,-0.00040326686576008797,-0.0011994808446615934
1738772458267763500,1.523763427734375,0.0005465076537802815,-0.000914593692868948,0.0009954965207725763
1738772458277754600,1.533754638671875,-0.0007245084852911532,-0.00025067292153835297,-0.001566656632348895
1738772458287745500,1.54374560546875,0.0004590002354234457,-0.0011420329101383686,-0.0011578614357858896
1738772458297736400,1.553736328125,-0.00045545672765001655,0.00046412553638219833,0.0007461326313205063
1738772458307728600,1.563728759765625,-0.0008900846005417407,0.00041725393384695053,0.0010382814798504114
1738772458317719800,1.5737197265625,-0.002224173629656434,-0.00023861252702772617,-0.00038197555113583803
1738772458327710700,1.583710693359375,-0.000881940417457372,-0.0011105313897132874,0.0005346844554878771
1738772458337702000,1.593701904296875,0.00013256585225462914,-0.00047707371413707733,0.0014539569383487105
1738772458347692800,1.60369287109375,0.0011403061216697097,0.0006542368791997433,-0.0008169205393642187
1738772458357684700,1.613684814453125,-0.00039644818753004074,0.001656008418649435,-0.0008430028101429343
1738772458367676000,1.623676025390625,0.001167626236565411,0.001117783598601818,-0.0006137046730145812
1738772458377666800,1.633666748046875,-0.0012559930328279734,-0.000603485619649291,0.002358607016503811
1738772458387657700,1.64365771484375,0.0012521720491349697,0.000028748996555805206,0.0006344764260575175
1738772458397649000,1.65364892578125,-0.0004612156772054732,-0.0012042231392115355,-0.000828240648843348
1738772458407640600,1.663640625,0.0010767597705125809,-0.0006321761757135391,0.001236774493008852
1738772458417631700,1.6736318359375,-0.0006404808955267072,-0.0006090640090405941,0.0018751658499240875
1738772458427623000,1.683622802734375,-0.0009107918012887239,0.0006564701907336712,-0.0002598903956823051
1738772458437613800,1.69361376953125,-0.000765763339586556,0.00009331433102488518,0.0002955148520413786
1738772458447605500,1.70360546875,-0.0011141047580167651,-0.0002971051726490259,0.00020363580551929772
1738772458457596700,1.7135966796875,-0.0011103891301900148,0.00032733380794525146,-0.00011645062477327883
1738772458467587600,1.723587646484375,0.0008619481232017279,0.00005222950130701065,-0.002502110321074724
1738772458477578800,1.733578857421875,-0.0012044967152178288,0.00021200859919190407,-0.0004115322954021394
1738772458487570000,1.74356982421875,-0.00010647543240338564,-0.0000748136080801487,0.001568261650390923
1738772458497561600,1.7535615234375,-0.0001541490200906992,0.0008202213793992996,-0.0009117609588429332
1738772458507552500,1.763552490234375,0.0012019325513392687,-0.00002293521538376808,0.001724768546409905
1738772458517543700,1.773543701171875,0.00028316036332398653,0.00030707381665706635,-0.0014397321501746774
1738772458527534800,1.783534912109375,-0.0005237774457782507,-0.0004479321651160717,-0.0003329223836772144
1738772458537525800,1.79352587890625,0.00047195982187986374,-0.0007806513458490372,-0.00015748784062452614
1738772458547517700,1.803517578125,-0.0006068867514841259,0.0008587907068431377,-0.001440598862245679
1738772458557508600,1.813508544921875,-0.000044519430957734585,-0.0009423797018826008,-0.000741995288990438
1738772458567499500,1.82349951171875,0.0005733339348807931,-0.001451842486858368,-0.0005505139706656337
1738772458577490700,1.83349072265625,-0.0008043843554332852,-0.0009579977486282587,0.000613014679402113
1738772458587481900,1.84348193359375,-0.0001764110056683421,0.000010860152542591095,0.0006827894831076264
1738772458597473500,1.8534736328125,0.0004244872834533453,-0.0011077998206019402,0.00022072013234719634
1738772458607464700,1.863464599609375,0.0017022719839587808,-0.00030299252830445766,-0.000946276995819062
1738772458617455600,1.87345556640625,-0.0003540570614859462,-0.0001265739556401968,0.0008022995316423476
1738772458627446500,1.883446533203125,0.0007327789207920432,-0.00010287179611623287,0.0004307886119931936
1738772458637437700,1.893437744140625,0.0006244191899895668,-0.0003019161522388458,-0.00247619254514575
1738772458647429600,1.9034296875,-0.00028558296617120504,-0.0005144362803548574,-0.00017974870570469648
1738772458657420500,1.913420654296875,-0.0006542191258631647,0.0009991349652409554,-0.0023013190366327763
1738772458667411700,1.92341162109375,-0.0017644909676164389,-0.00019049900583922863,-0.001216081203892827
1738772458677402600,1.933402587890625,0.0002254790160804987,0.0004271869547665119,-0.00035983455018140376
1738772458687394600,1.94339453125,-0.0003100826870650053,0.0008793915621936321,-0.0008999236160889268
1738772458697385700,1.9533857421875,-0.0012227462138980627,0.00031100446358323097,0.0003609647392295301
1738772458707376600,1.963376708984375,-0.0019338101847097278,0.0003253854811191559,0.0003825363819487393
1738772458717367600,1.973367431640625,0.0005269929533824325,-0.00017663929611444473,0.00007770859519951046
1738772458727358700,1.983358642578125,0.0010612229816615582,-0.000799552770331502,0.0005853070761077106
1738772458737350700,1.9933505859375,0.00001649162732064724,-0.001066707307472825,-0.0016458961181342602
1738772458747341600,2.003341552734375,-0.00042106572072952986,-0.00013007363304495811,0.0007581394747830927
1738772458757332700,2.013332763671875,-0.0005240386817604303,-0.00009635230526328087,0.001016531721688807
1738772458767323600,2.02332373046875,0.00026984966825693846,-0.00003216997720301151,-0.0005725764203816652
1738772458777314600,2.033314453125,-0.00007873226422816515,-0.00043176067993044853,0.0020921952091157436
1738772458787306800,2.043306640625,0.00007519847713410854,0.0004502781666815281,0.0011393161257728934
1738772458797297700,2.053297607421875,-0.00045041716657578945,0.0013843525666743517,0.00008326128590852022
1738772458807288600,2.06328857421875,0.0012247110716998577,-0.0010601631365716457,0.0004971164744347334
1738772458817279700,2.07327978515625,-0.0004375055432319641,0.000676790252327919,-0.00043653699685819447
1738772458827271700,2.083271728515625,-0.000731784850358963,0.00007331790402531624,0.0011357932817190886
1738772458837262600,2.0932626953125,0.0011823013192042708,0.00007402058690786362,0.0003510462702251971
1738772458847253800,2.103253662109375,-0.0004009478725492954,-0.000972868176177144,0.0008471932378597558
1738772458857244700,2.11324462890625,0.00020908587612211704,-0.0010252625215798616,0.0004789423546753824
1738772458867235600,2.123235595703125,0.0010261437855660915,-0.0008417707867920399,-0.000655564246699214
1738772458877227800,2.133227783203125,0.00015214458107948303,-0.0006990814581513405,-0.000048499758122488856
1738772458887218700,2.14321875,-0.0006460047443397343,0.0007259761914610863,-0.0007190837059170008
1738772458897209600,2.153209716796875,-0.0006242492818273604,-0.0024255230091512203,0.00039543939055874944
1738772458907200800,2.16320068359375,-0.0005318376352079213,0.000827794661745429,0.0015296797500923276
1738772458917191700,2.173191650390625,-0.0007584427366964519,0.0007709627971053123,0.0008822360541671515
1738772458927183600,2.18318359375,0.0006684788968414068,0.00008147023618221283,-0.00045760025386698544
1738772458937174800,2.1931748046875,-0.0015920308651402593,-0.0004724299069494009,0.00045349355787038803
1738772458947165700,2.203165771484375,0.0015608855755999684,-0.0003035853151232004,-0.00010044392547570169
1738772458957156600,2.213156494140625,-0.0013784057227894664,-0.00036154501140117645,-0.00030313123716041446
1738772458967148800,2.223148681640625,0.0008892759215086699,0.00037561822682619095,-0.0005382883828133345
1738772458977139700,2.2331396484375,0.00029429595451802015,0.00015059509314596653,-0.0008146851323544979
1738772458987130600,2.243130615234375,0.0003076117718592286,-0.00020467047579586506,0.0010852140840142965
1738772458997121800,2.253121826171875,-0.00021923542954027653,0.0006199311465024948,0.00048814708134159446
1738772459007112700,2.26311279296875,-0.0007281654980033636,-0.00003893510438501835,0.0012404900044202805
1738772459017104600,2.273104736328125,-0.00041044532554224133,-0.0006052621174603701,-0.00003734519123099744
1738772459027095800,2.283095703125,-0.00025518296752125025,-0.0006247030105441809,-0.0005486721056513488
1738772459037086700,2.293086669921875,-0.00046758190728724003,0.00027812388725578785,-0.00042426487198099494
1738772459047077600,2.30307763671875,0.00022670417092740536,-0.0006627708207815886,0.0015805629082024097
1738772459057069800,2.31306982421875,-0.0006914421683177352,0.00010415562428534031,0.001023224089294672
1738772459067060700,2.323060791015625,-0.0007226011366583407,-0.00022501079365611076,0.0005505129811353981
1738772459077051600,2.3330517578125,-0.0006529590464197099,0.000033685239031910896,0.0002726268721744418
1738772459087042800,2.343042724609375,-0.0006625464302487671,0.0012992196716368198,-0.0018429883057251573
1738772459097033700,2.35303369140625,0.0023835247848182917,0.0008734595030546188,-0.0019645625725388527
1738772459107025700,2.363025634765625,-0.0014495630748569965,-0.0005270966794341803,0.00009619139018468559
1738772459117016800,2.373016845703125,0.0006616376340389252,0.0005930981133133173,-0.00004447498940862715
1738772459127007700,2.3830078125,0.0005694922292605042,-0.00010598148219287395,0.00036618445301428437
1738772459136998700,2.39299853515625,0.0004774786066263914,-0.0001484784297645092,-0.0009493366233073175
1738772459146989800,2.40298974609375,-0.0008242745534516871,-0.0008808476850390434,-0.00035944642149843276
1738772459156981800,2.412981689453125,-0.00022202404215931892,0.0005735827144235373,0.00004445158992893994
1738772459166972700,2.42297265625,-0.001142146298661828,-0.00048715434968471527,-0.000414943671785295
1738772459176963800,2.4329638671875,0.000973474932834506,-0.0003199868369847536,0.0008731097332201898
1738772459186954800,2.442954833984375,-0.0017927504377439618,0.0011785740498453379,-0.0001314346445724368
1738772459196946700,2.45294677734375,0.0008794009918347001,0.0009979195892810822,0.0005189775256440043
1738772459206937900,2.462937744140625,0.0009558337042108178,-0.0006551046390086412,0.000011379015631973743
1738772459216928800,2.4729287109375,0.0001894788583740592,-0.001075169537216425,-0.00037132337456569076
1738772459226919700,2.482919677734375,-0.0006052083917893469,0.00042365724220871925,-0.00009968093945644796
1738772459236910800,2.492910888671875,-0.000640991551335901,0.0011090112384408712,0.0016623357078060508
1738772459246902800,2.50290283203125,-0.0005837336066178977,0.00005360064096748829,0.0015688587445765734
1738772459256893700,2.512893798828125,-0.0002705503720790148,0.0008240360766649246,0.00016546279948670417
1738772459266884900,2.522884765625,-0.0010194312781095505,0.0003811521455645561,-0.0011573293013498187
1738772459276875800,2.532875732421875,0.0008506467565894127,-0.0006564108189195395,-0.00012055554543621838
1738772459286866700,2.54286669921875,0.0009643635712563992,0.00011111213825643063,-0.0004995233612135053
1738772459296859000,2.55285888671875,-0.0001418725587427616,-0.000004960689693689346,0.0004825697687920183
1738772459306849800,2.562849853515625,0.000562000903300941,-0.00034264964051544666,-0.00006817195389885455
1738772459316840400,2.57284033203125,0.00004089379217475653,0.0007073318120092154,-0.0004268200136721134
1738772459326831400,2.582831298828125,0.0006235933396965265,-0.00031399051658809185,-0.0012513346737250686
1738772459336823600,2.592823486328125,0.0005313486326485872,0.0006499853916466236,-0.0008735759183764458
1738772459346814500,2.602814453125,-0.0024308855645358562,0.0001895250752568245,-0.0004722375306300819
1738772459356805400,2.612805419921875,0.0002406807616353035,-0.0009014962706714869,0.0006919553270563483
1738772459366796500,2.622796630859375,-0.0006874309037812054,0.00028547458350658417,0.0006381595158018172
1738772459376787500,2.632787353515625,-0.0011603672755882144,-0.0021372304763644934,0.0009115845896303654
1738772459386779400,2.642779296875,0.0010348764481022954,-0.0008908710442483425,-0.0007113456958904862
1738772459396770600,2.6527705078125,-0.0008273964049294591,0.0003404330927878618,0.00041777448495849967
1738772459406761500,2.662761474609375,-0.0006028919597156346,-0.0011016684584319592,0.0012870302889496088
1738772459416752400,2.67275244140625,0.0006187218241393566,0.000571815762668848,0.00007908628322184086
1738772459426743300,2.682743408203125,0.00011911289766430855,-0.0004942477680742741,0.0014111994532868266
1738772459436735500,2.692735595703125,0.0008370494470000267,0.0001311018131673336,0.0011010392336174846
1738772459446726400,2.702726318359375,0.0010271992068737745,0.000752151245251298,-0.0010819538729265332
1738772459456717600,2.712717529296875,-0.0006763790152035654,0.0015098766889423132,-0.001306761521846056
1738772459466708500,2.72270849609375,-0.00033336388878524303,0.00026405020616948605,-0.00022871399414725602
1738772459476700400,2.732700439453125,0.0004074973985552788,-0.00015781819820404053,0.0006592209683731198
1738772459486691600,2.742691650390625,-0.0007304712780751288,-0.0008499736431986094,-0.001175963319838047
1738772459496682500,2.7526826171875,0.0010616087820380926,0.0008950554765760899,-0.00043980375630781054
1738772459506673400,2.76267333984375,-0.00047610042383894324,0.000552572775632143,0.0003072129038628191
1738772459516664300,2.772664306640625,0.0005108356708660722,-0.00019625923596322536,-0.0011951823253184557
1738772459526656500,2.782656494140625,-0.003321452997624874,0.0011960412375628948,0.0006716935895383358
1738772459536647400,2.7926474609375,0.00015499128494411707,0.0004585261922329664,0.00011608733620960265
1738772459546638600,2.802638671875,-0.0005275768344290555,-0.0012693328317254782,-0.0004450406995601952
1738772459556629500,2.81262939453125,-0.0006571334088221192,-0.0011780709028244019,0.0001633778738323599
1738772459566620400,2.822620361328125,0.0007527441484853625,0.0024254522286355495,0.0006438121199607849
1738772459576612400,2.8326123046875,-0.00042980158468708396,0.00039774971082806587,0.00016387717914767563
1738772459586603500,2.842603515625,-0.0024596629664301872,-0.00019826553761959076,0.00005894862988498062
1738772459596594400,2.852594482421875,-0.0009230406722053885,0.0005177268758416176,0.0005098957917653024
1738772459606585300,2.86258544921875,-0.001019979827105999,-0.0002993310336023569,0.00011761215864680707
1738772459616577300,2.872577392578125,0.00012060778681188822,-0.001470610499382019,0.0016971859149634838
1738772459626568200,2.882568115234375,0.00014084787108004093,-0.0001488837879151106,0.0006391119677573442
1738772459636559400,2.892559326171875,0.0006715593626722693,-0.000461481511592865,-0.00037205233820714056
1738772459646550500,2.902550537109375,0.0011621135054156184,0.0003486520145088434,-0.0004479524213820696
1738772459656541400,2.91254150390625,-0.0005306225502863526,0.0016227173618972301,0.0018267184495925903
1738772459666533400,2.922533447265625,0.00037538481410592794,0.0013731792569160461,-0.00013230281183496118
1738772459676524300,2.932524169921875,-0.0007785869529470801,-0.0015260595828294754,0.0004565900599118322
1738772459686515500,2.942515380859375,0.0003929375670850277,0.001030308660119772,0.0007657830719836056
1738772459696506400,2.95250634765625,-0.0008747042156755924,-0.000967696774750948,-0.00018500919395592064
1738772459706497500,2.96249755859375,0.0007532860618084669,-0.00006941240280866623,0.00137400534003973
1738772459716489200,2.9724892578125,-0.00010549917351454496,-0.00015795184299349785,0.0008242100011557341
1738772459726480400,2.98248046875,0.0006092932308092713,-0.00012812437489628792,0.0008702826453372836
1738772459736471300,2.99247119140625,-0.0009114022832363844,-0.0005127377808094025,0.0020632422529160976
1738772459746462500,3.00246240234375,0.00008382101077586412,-0.00024029635824263096,0.0014773467555642128
1738772459756454400,3.012454345703125,-0.0006268661236390471,0.0006430861540138721,-0.0005020344397053123
1738772459766445300,3.0224453125,0.0004423930076882243,-0.00027517182752490044,-0.0012040436267852783
1738772459776436200,3.032436279296875,-0.0002711472334340215,-0.0005131000652909279,-0.00010094251047121361
1738772459786427400,3.042427490234375,-0.00002933223731815815,-0.0009091121610254049,-0.00032251753145828843
1738772459796418300,3.052418212890625,-0.0004204721190035343,-0.0009006059262901545,-0.00005051820335211232
1738772459806410200,3.06241015625,0.00028420030139386654,0.00014495127834379673,0.0005747920367866755
1738772459816401400,3.0724013671875,0.0005819522775709629,-0.00006152456626296043,0.00020004947145935148
1738772459826392300,3.082392333984375,0.000882889493368566,-0.0006772472988814116,0.00038167706225067377
1738772459836383200,3.09238330078125,-0.00030912819784134626,-0.0007903478108346462,0.0005380787770263851
1738772459846374400,3.10237451171875,0.0005233759293332696,0.0004046123940497637,0.00028747529722750187
1738772459856366300,3.112366455078125,-0.0007718927809037268,0.0007765244226902723,0.0015045865438878536
1738772459866357200,3.122357177734375,0.0009032356319949031,-0.0010746386833488941,0.00005129951023263857
1738772459876348400,3.132348388671875,-0.0005289425025694072,-0.00023214821703732014,-0.0005537368124350905
1738772459886339300,3.14233935546875,0.00010755297262221575,0.0008110119961202145,0.0003195136960130185
1738772459896330200,3.152330322265625,-0.0011348279658704996,0.0003063587937504053,0.00020353318541310728
1738772459906322400,3.162322509765625,0.00012085249181836843,-0.0018691776785999537,0.0004693166702054441
1738772459916313300,3.172313232421875,-0.0012818992836400867,0.0007800217717885971,-0.0007205283618532121
1738772459926304300,3.18230419921875,0.0001295760739594698,0.0005624415352940559,0.0008621882880106568
1738772459936295200,3.192295166015625,-0.001087331329472363,-0.0002659361343830824,0.0021653762087225914
1738772459946287400,3.202287353515625,0.0008336068131029606,-0.00046301004476845264,0.001120351837016642
1738772459956278300,3.2122783203125,0.00004478695336729288,-0.000924902968108654,-0.000877822982147336
1738772459966269400,3.22226953125,-0.00011633429676294327,0.0005579451099038124,-0.0006887385970912874
1738772459976260400,3.23226025390625,-0.00007792236283421516,0.0000326838344335556,-0.0015631733695045114
1738772459986251300,3.242251220703125,0.001008647377602756,-0.0005124651361256838,0.0006073028780519962
1738772459996243500,3.252243408203125,0.002251992467790842,-0.0011222120374441147,-0.00039635863504372537
1738772460006234400,3.262234375,-0.000017287093214690685,-0.00048491754569113255,-0.001553768408484757
1738772460016225300,3.272225341796875,-0.0005580023862421513,0.000797684071585536,0.0008136560209095478
1738772460026216200,3.28221630859375,-0.00008768821135163307,0.00045919627882540226,0.0016078106127679348
1738772460036207400,3.292207275390625,-0.0008987768669612706,-0.00031392485834658146,0.00028613622998818755
1738772460046199300,3.30219921875,-0.00021674134768545628,-0.00016345619224011898,-0.0003727298171725124
1738772460056190500,3.3121904296875,0.0002905786968767643,-0.0002817416097968817,-0.000535155413672328
1738772460066181400,3.322181396484375,0.00029910076409578323,0.0003928369842469692,-0.0016550146974623203
1738772460076172300,3.33217236328125,-0.0006727617583237588,-0.000866822199895978,-0.0017884691478684545
1738772460086163200,3.3421630859375,-0.0008690367103554308,0.00022933515720069408,-0.0011021725367754698
1738772460096155400,3.3521552734375,-0.000252670724876225,-0.00019417982548475266,-0.000980700133368373
1738772460106146300,3.362146240234375,0.0003329584142193198,-0.00018512504175305367,0.0022987164556980133
1738772460116137200,3.37213720703125,-0.0004594415077008307,0.0013093538582324982,0.0013653298374265432
1738772460126128400,3.38212841796875,-0.00112682965118438,-0.0005684408824890852,0.0016047479584813118
1738772460136120300,3.392120361328125,-0.0006279762601479888,-0.00020008604042232037,0.0003049213846679777
1738772460146111500,3.402111572265625,-0.0023089635651558638,-0.0005846465937793255,-0.0012330540921539068
1738772460156102400,3.412102294921875,-0.00028101145289838314,-0.0006500901654362679,-0.00018509069923311472
1738772460166093300,3.42209326171875,0.00015042070299386978,0.0003752268385142088,-0.00045327102998271585
1738772460176084200,3.432084228515625,-0.000030855066142976284,-0.00011538062244653702,-0.001031513442285359
1738772460186076400,3.442076416015625,0.00014784315135329962,0.0012675989419221878,0.00012136901204939932
1738772460196067300,3.4520673828125,-0.00039026845479384065,0.0013773515820503235,0.0009770503966137767
1738772460206058200,3.462058349609375,-0.001305064302869141,-0.00012573646381497383,0.0010279167909175158
1738772460216049400,3.47204931640625,0.00040238688234239817,-0.0000748767051845789,0.002082786988466978
1738772460226040300,3.482040283203125,-0.00014569167979061604,-0.0005883341655135155,-0.0007462890353053808
1738772460236032500,3.492032470703125,0.0004197749076411128,-0.0003889871295541525,-0.00045497252722270787
1738772460246023400,3.5020234375,-0.000046011991798877716,0.00030103791505098343,-0.001316771493293345
1738772460256014300,3.512014404296875,0.0002950672060251236,-0.000907285837456584,-0.0019414171110838652
1738772460266005200,3.522005126953125,-0.0020288070663809776,-0.00013017538003623486,0.0008919199462980032
1738772460275996400,3.531996337890625,-0.0011300512123852968,-0.0012188509572297335,0.0015982994809746742
1738772460285988400,3.54198828125,-0.00044508621795102954,-0.00015065702609717846,0.001285378122702241
1738772460295979300,3.551979248046875,-0.0004791880492120981,0.0016299441922456026,0.0013617075746878982
1738772460305970400,3.561970458984375,-0.00008104543667286634,-0.00017887470312416553,-0.0010617689695209265
1738772460315961300,3.57196142578125,0.0008644724730402231,0.00017117313109338284,0.0019186014542356133
1738772460325954300,3.581954345703125,-0.0005075879744254053,-0.00022537168115377426,-0.0009379051625728607
1738772460335945200,3.5919453125,-0.000005741952918469906,-0.0010468072723597288,-0.0007477983017452061
1738772460345936100,3.60193603515625,-0.0010454400908201933,-0.000021756626665592194,-0.00008973122021416202
1738772460355927000,3.611927001953125,0.0005229194648563862,0.00011977041140198708,-0.0008504365687258542
1738772460365918200,3.621918212890625,-0.0006387514295056462,-0.0009974257554858923,0.0005671640974469483
1738772460375910100,3.63191015625,-0.0007408679812215269,-0.000027319183573126793,0.002190143335610628
1738772460385901000,3.641901123046875,0.001383269322104752,0.00036869291216135025,-0.00002107915497617796
1738772460395892200,3.651892333984375,-0.0008759143529459834,0.0007746347691863775,0.0006951140821911395
1738772460405883100,3.661883056640625,0.000678306445479393,0.000043064355850219727,-0.0017757667228579521
1738772460415874000,3.6718740234375,-0.000705203739926219,-0.0005613819230347872,-0.00020294594287406653
1738772460425866200,3.6818662109375,-0.00030945800244808197,-0.000009841285645961761,-0.0006964296917431056
1738772460435857200,3.691857177734375,-0.0004519884241744876,-0.0016743037849664688,-0.0005289743421599269
1738772460445848000,3.70184814453125,0.0010630839969962835,0.001288462895900011,-0.000701813492923975
1738772460455839200,3.711839111328125,-0.00024212023708969355,-0.0003824913874268532,0.0006488586659543216
1738772460465830100,3.721830078125,0.0011387288104742765,-0.0006959454622119665,0.0013836247380822897
1738772460475822000,3.731822021484375,-0.00045784522080793977,-0.0005060033872723579,-0.00030351249733939767
1738772460485813200,3.741813232421875,-0.0004314799443818629,0.00046684942208230495,0.00027279555797576904
1738772460495804200,3.75180419921875,0.00045746169053018093,-0.0006661443039774895,-0.00032893597381189466
1738772460505795000,3.761795166015625,0.00001005060039460659,-0.0008680119644850492,-0.0004320002917665988
1738772460515786200,3.7717861328125,0.00009286007843911648,0.0010134498588740826,-0.001266630832105875
1738772460525778200,3.781778076171875,0.001855339971370995,-0.0005666033830493689,-0.0015361427795141935
1738772460535769000,3.79176904296875,-0.0006396656972356141,0.00016804225742816925,-0.00032347513479180634
1738772460545760300,3.80176025390625,-0.0003829369670711458,-0.0001848265528678894,0.0002565613540355116
1738772460555751200,3.811751220703125,-0.0003756395308300853,-0.0002749422565102577,0.0015501005109399557
1738772460565742000,3.8217421875,-0.00045153964310884476,0.0003258669748902321,0.0014443730469793081
1738772460575734000,3.831734130859375,-0.0005178751307539642,-0.0011071146000176668,0.0003088001976720989
1738772460585725200,3.84172509765625,-0.0003074854612350464,0.0003573575522750616,-0.0011924237478524446
1738772460595716000,3.851716064453125,-0.00006273784674704075,0.0005007649306207895,-0.0011132631916552782
1738772460605707300,3.861707275390625,0.0009726991411298513,0.00037905829958617687,-0.0010139273945242167
1738772460615699000,3.871698974609375,-0.0007282185833901167,0.00007589510641992092,-0.0021972768008708954
1738772460625689900,3.88168994140625,-0.0009615115122869611,0.000475369393825531,-0.0003359936235938221
1738772460635681300,3.891681396484375,-0.0004820970934815705,-0.0009069144725799561,0.0001168279122794047
1738772460645672200,3.901672119140625,-0.001516202581115067,0.0003658102359622717,0.00032535340869799256
1738772460655663000,3.9116630859375,-0.0005708759999834001,0.0005466274451464415,0.0018282803939655423
1738772460665655000,3.921655029296875,-0.0014917971566319466,-0.00015431665815412998,0.0007595538627356291
1738772460675646000,3.93164599609375,0.00007863680366426706,-0.0010175569914281368,-0.0008965607266873121
1738772460688135200,3.94413525390625,0.0005273794522508979,0.0010906013194471598,-0.001723472261801362
1738772460698126000,3.9541259765625,0.0005972085054963827,-0.00008482090197503567,-0.0010703103616833687
1738772460708117000,3.964116943359375,-0.001392705482430756,-0.0003135865554213524,0.0007992286700755358
1738772460718109200,3.974109130859375,-0.0005213223048485816,-0.0009729224257171154,-0.0003946041688323021
1738772460728100000,3.98410009765625,-0.0001285059843212366,0.0011400296352803707,-0.0010822323383763433
1738772460738091000,3.994091064453125,-0.0002502516144886613,-0.0006617659237235785,0.0009766827570274472
1738772460748082200,4.004082275390625,0.0014365946408361197,0.001134802820160985,0.0012909357901662588
1738772460758073000,4.014072998046875,-0.00028528633993119,0.0000445276964455843,-0.0005792358424514532
1738772460768065000,4.02406494140625,0.0006172589492052794,0.0001947297714650631,-0.00011957421520492062
1738772460778056200,4.03405615234375,0.0010023554787039757,-0.0011095623485744,-0.0014268123777583241
1738772460788047000,4.044047119140625,-0.00025146082043647766,0.0005445270799100399,-0.0012904586037620902
1738772460798038000,4.0540380859375,0.0007052595028653741,-0.0009104115888476372,-0.0004813683626707643
1738772460808029200,4.064029296875,0.0011460125679150224,0.00044114282354712486,-0.0013500915374606848
1738772460818021000,4.074021240234375,0.00012529129162430763,-0.00032331468537449837,0.000025775552785489708
1738772460828012000,4.084011962890625,-0.0012622156646102667,-0.0003329021856188774,-0.0005995346582494676
1738772460838003200,4.094003173828125,-0.0010444707004353404,0.00038494961336255074,0.0004962069215252995
1738772460847994000,4.103994140625,0.00005940953269600868,0.0005524624139070511,0.000607527035754174
1738772460857985000,4.113985107421875,0.0003489820519462228,-0.0003430643118917942,0.0006599847692996264
1738772460867977200,4.123977294921875,-0.000027855276130139828,0.000839379383251071,0.00009566095832269639
1738772460877968100,4.133968017578125,-0.0007784083718433976,0.00032466487027704716,0.0010511346627026796
1738772460887959000,4.143958984375,0.0011353391455486417,0.0007704782765358686,-0.0005345114623196423
1738772460897950200,4.1539501953125,0.00245842756703496,0.00028738868422806263,-0.0003190917195752263
1738772460907941000,4.163941162109375,-0.0005416233907453716,0.000023203203454613686,0.001980814151465893
1738772460917933000,4.17393310546875,-0.0005647861980833113,-0.0009759040549397469,-0.0004001754568889737
1738772460927924200,4.18392431640625,0.00019607890862971544,-0.00025711674243211746,0.0004898529732599854
1738772460937915100,4.1939150390625,0.0015575721627101302,0.00033849338069558144,-0.001495351199992001
1738772460947906000,4.203906005859375,0.00020495255012065172,0.0008189277723431587,0.0013070933055132627
1738772460957897200,4.213897216796875,-0.00038447993574663997,0.0013838130980730057,0.001311073312535882
1738772460967889200,4.22388916015625,-0.0035709519870579243,0.0011268178932368755,0.0019672762136906385
1738772460977880000,4.233880126953125,0.0007560267113149166,0.00029989005997776985,0.002716211834922433
1738772460987871200,4.243871337890625,0.0007003666833043098,0.0003693988546729088,-0.00048650577082298696
1738772460997862100,4.253862060546875,-0.0010062886867672205,0.0013294038362801075,-0.000793222978245467
1738772461007853000,4.26385302734375,-0.0008899085805751383,-0.0007137730717658997,-0.0011695276480168104
1738772461017845200,4.27384521484375,-0.0013943274971097708,0.001341504044830799,-0.0031114642042666674
1738772461027836200,4.283836181640625,0.001086673466488719,-0.000491549726575613,-0.0013194229686632752
1738772461037827000,4.2938271484375,0.0015877906698733568,0.0004193950444459915,0.0011011636815965176
1738772461047818200,4.303818359375,-0.0015321025857701898,0.0009831860661506653,0.001432460849173367
1738772461057810200,4.31381005859375,-0.0008318000473082066,-0.0005792239680886269,0.003848235122859478
1738772461067801000,4.323801025390625,-0.00037826376501470804,-0.0010399508755654097,0.0020197087433189154
1738772461077792300,4.333792236328125,0.00039856263902038336,-0.0001905537210404873,0.0007015117444097996
1738772461087783200,4.343783203125,-0.0008469978347420692,-0.0003450170625001192,0.0010146994609385729
1738772461097774000,4.353774169921875,-0.001077044173143804,0.0002869493328034878,-0.0033127828501164913
1738772461107766300,4.363766357421875,0.0001370909158140421,0.0015562120825052261,-0.0032070553861558437
1738772461117757200,4.373757080078125,0.00004383851774036884,0.000014948658645153046,0.005897466093301773
1738772461127748000,4.383748046875,-0.0018131837714463472,-0.0008950536139309406,0.005088930018246174
1738772461137739300,4.3937392578125,0.00022112997248768806,-0.00044579547829926014,-0.00030682928627356887
1738772461147730200,4.403730224609375,0.0007130156736820936,-0.0003919997252523899,-0.004272808786481619
1738772461157722000,4.41372216796875,0.0012549585662782192,0.0005328627303242683,-0.003938350826501846
1738772461167713300,4.42371337890625,0.0004983545513823628,0.00007453234866261482,-0.0029090391471982002
1738772461177704200,4.4337041015625,-0.0008022375404834747,-0.0011083430144935846,0.0038324620109051466
1738772461187695000,4.443695068359375,-0.0030177212320268154,-0.0008566742762923241,0.009296203963458538
1738772461197686300,4.453686279296875,-0.0009816924575716257,-0.00026150932535529137,0.007798107340931892
1738772461207678000,4.463677978515625,0.0008961025159806013,-0.0003355450462549925,0.003657157765701413
1738772461217669000,4.473669189453125,-0.0008566249161958694,-0.00035608280450105667,-0.000006011643563397229
1738772461227660300,4.483660400390625,-0.0008678102167323232,-0.0022280188277363777,-0.005283331498503685
1738772461237651200,4.493651123046875,0.001347919343970716,0.0013483320362865925,-0.007127640303224325
1738772461247642000,4.50364208984375,-0.00043346919119358063,0.0003413907252252102,-0.00586290517821908
1738772461257634000,4.513634033203125,-0.0011735178995877504,0.0005933805368840694,-0.0075851972214877605
1738772461267625200,4.523625244140625,0.0021415851078927517,-0.0006220859941095114,0.0015393253415822983
1738772461277616000,4.5336162109375,0.0026756052393466234,0.0008661225438117981,0.007085804361850023
1738772461287607300,4.543607177734375,-0.0006067407666705549,-0.000018846243619918823,0.00910128466784954
1738772461297598200,4.55359814453125,0.0009222637163475156,-0.001080408925190568,0.006460289005190134
1738772461307590000,4.56358984375,0.00010973319876939058,-0.0004074280150234699,0.0019177350914105773
1738772461317581000,4.5735810546875,-0.0001707593910396099,-0.00024956976994872093,-0.0004425218212418258
1738772461327572200,4.583572265625,0.0004915687022730708,0.00023832125589251518,-0.0026785118971019983
1738772461337563400,4.5935634765625,0.00005498470272868872,0.0011753980070352554,-0.005133314989507198
1738772461347555000,4.60355517578125,-0.00006246066186577082,0.00002944003790616989,-0.008069716393947601
1738772461357546200,4.613546142578125,0.0007230531191453338,0.0004320414736866951,-0.004602809436619282
1738772461367537200,4.623537109375,0.000440491596236825,-0.00005611591041088104,-0.0011633369140326977
1738772461377528000,4.633528076171875,-0.0021767064463347197,-0.00031289830803871155,0.005709132179617882
1738772461387519200,4.643519287109375,-0.0002235440770164132,-0.0005445932038128376,0.003943989053368568
1738772461397511200,4.65351123046875,0.00007320358417928219,-0.00173828168772161,0.004405935760587454
1738772461407502000,4.663502197265625,-0.0004839297034777701,-0.00030709896236658096,0.0036642453633248806
1738772461417493200,4.6734931640625,-0.0008504542056471109,-0.0000987430103123188,-0.00010447432578075677
1738772461427484200,4.683484130859375,-0.0011431355960667133,-0.001923274714499712,-0.002974829403683543
1738772461437475300,4.693475341796875,0.0018066815100610256,-0.0005497285164892673,-0.003218703670427203
1738772461447467300,4.70346728515625,0.0004996020579710603,0.001004758756607771,-0.002858377993106842
1738772461457458200,4.713458251953125,-0.00014418642967939377,-0.00044014141894876957,-0.0031102204229682684
1738772461467449000,4.723448974609375,-0.0006888028583489358,0.0006408356130123138,-0.0013032654533162713
1738772461477440300,4.733440185546875,-0.002524441573768854,0.001109070610255003,0.0006039785221219063
1738772461487431200,4.74343115234375,0.0009318090742453933,0.0009167902171611786,0.002009594812989235
1738772461497423000,4.753423095703125,-0.000007416470907628536,-0.00000251084566116333,0.004199489019811153
1738772461507414300,4.763414306640625,0.00021389219909906387,-0.0006901391316205263,0.0037329031620174646
1738772461517405200,4.7734052734375,0.001191378221847117,-0.0006097401492297649,0.004604546818882227
1738772461527396000,4.78339599609375,-0.0013511417200788856,-0.0008520877454429865,0.002854583552107215
1738772461537387300,4.79338720703125,0.001252020476385951,-0.0013066139072179794,-0.001407969044521451
1738772461547379200,4.803379150390625,0.0013308499474078417,0.00015919003635644913,-0.004211745224893093
1738772461557370000,4.8133701171875,0.0009828124893829226,0.0004916414618492126,-0.005632131360471249
1738772461567361300,4.823361328125,0.00020330515690147877,0.0006250655278563499,-0.0054299975745379925
1738772461577352200,4.833352294921875,0.0008873221231624484,-0.00027271010912954807,-0.0025607822462916374
1738772461587344100,4.84334423828125,-0.0015883524902164936,-0.0013022881466895342,0.002322922693565488
1738772461597335300,4.853335205078125,-0.0011075573274865746,-0.0000804038718342781,0.006701159756630659
1738772461607326200,4.863326171875,-0.00008943083230406046,-0.00031396327540278435,0.006136303301900625
1738772461617317000,4.873317138671875,0.0007428673561662436,0.0005082124844193459,0.004850433673709631
1738772461627308300,4.883308349609375,0.0003007827326655388,0.00014442438259720802,0.0015459832502529025
1738772461637300200,4.89330029296875,0.0009917780989781022,-0.0007762897294014692,-0.0010700993007048965
1738772461647291100,4.903291015625,0.0006476977141574025,-0.0011715027503669262,-0.005480826832354069
1738772461657282300,4.9132822265625,0.00006243586540222168,-0.0003491523675620556,-0.00610523484647274
1738772461667273200,4.923273193359375,0.00021423608995974064,0.000276956707239151,-0.0034729663748294115
1738772461677264100,4.93326416015625,0.0009182338835671544,-0.0001360748428851366,-0.0012422790750861168
1738772461687256300,4.94325634765625,-0.0011595644755288959,-0.0003523235209286213,0.0021854755468666553
1738772461697247200,4.953247314453125,-0.0005035386420786381,0.00042974064126610756,0.005997277330607176
1738772461707238100,4.963238037109375,-0.00019620987586677074,-0.0006581605412065983,0.004430805798619986
1738772461717229300,4.973229248046875,0.0010597830405458808,-0.001343628391623497,0.004352955147624016
1738772461727220200,4.98322021484375,0.0006334109930321574,-0.00021364912390708923,0.0006676727207377553
1738772461737212200,4.993212158203125,0.00045004719868302345,0.0016237706877291203,-0.0006913032266311347
1738772461747203300,5.003203369140625,-0.00015875149983912706,0.00035211117938160896,-0.004151016008108854
1738772461757194200,5.0131943359375,-0.00019370310474187136,-0.000038499245420098305,-0.0051176827400922775
1738772461767185200,5.02318505859375,0.0006736883660778403,-0.0005231946706771851,-0.003361594630405307
1738772461777176000,5.033176025390625,-0.00006815360393375158,0.000609060749411583,-0.0019614517223089933
1738772461787168300,5.043168212890625,0.00008764129597693682,0.00006124842911958694,0.0012860068818554282
1738772461797159200,5.0531591796875,0.0004540504887700081,0.00047605205327272415,0.0023106879089027643
1738772461807150300,5.063150390625,-0.0018210879061371088,-0.00033701094798743725,0.003939476795494556
1738772461817141200,5.073141357421875,-0.0015416055684909225,0.0013964725658297539,0.001902993768453598
1738772461827132200,5.083132080078125,0.0011159628629684448,-0.00023817573674023151,0.0016595808556303382
1738772461837124400,5.093124267578125,0.000016638077795505524,-0.00033613969571888447,-0.0002789258724078536
1738772461847115300,5.103115234375,-0.000029967166483402252,0.0018953229300677776,-0.0020275574643164873
1738772461857106200,5.113106201171875,-0.000763007381465286,-0.00047971238382160664,-0.003452837932854891
1738772461867097000,5.12309716796875,0.000017831451259553432,0.0007290961220860481,-0.002159873256459832
1738772461877088300,5.133088134765625,-0.0005562927690334618,0.00027968594804406166,-0.0014889199519529939
1738772461887080200,5.143080078125,0.0013912769500166178,-0.0009906417690217495,0.0015707857673987746
1738772461897071400,5.1530712890625,-0.0015457489062100649,-0.0009325325954705477,0.002346443012356758
1738772461907062300,5.163062255859375,-0.0003843444283120334,-0.0002776612527668476,0.0038657765835523605
1738772461917053200,5.17305322265625,-0.0005257079028524458,-0.00045972014777362347,0.001550709013827145
1738772461927045400,5.18304541015625,0.0010237193200737238,-0.00038941274397075176,0.0011536317178979516
1738772461937036300,5.193036376953125,0.0014833168825134635,0.0011281708721071482,0.0007984339608810842
1738772461947027200,5.203027099609375,0.0002390880836173892,-0.0003112677950412035,-0.00251879938878119
1738772461957018000,5.21301806640625,-0.0010959422215819359,0.0014236210845410824,-0.002993279602378607
1738772461967009300,5.22300927734375,0.0014029019512236118,0.0000981655903160572,-0.0022388058714568615
1738772461977001200,5.233001220703125,-0.000024926383048295975,0.00172275654040277,0.0009776393417268991
1738772461986992400,5.242992431640625,0.0020709813106805086,-0.0006514512933790684,0.0013771135127171874
1738772461996983300,5.2529833984375,-0.0014453507028520107,-0.0005006117280572653,0.0021983024198561907
1738772462006974200,5.26297412109375,0.0009190038545057178,-0.00028249877505004406,0.0022196078207343817
1738772462016965000,5.272965087890625,0.0023016990162432194,-0.0008438699878752232,0.0011705126380547881
1738772462026957300,5.282957275390625,0.001009533298201859,-0.00010164710693061352,-0.00050461565842852
1738772462036948200,5.2929482421875,-0.00006246299017220736,-0.0007828057277947664,0.00007826343062333763
1738772462046939400,5.302939453125,0.00005125394091010094,-0.0005793401505798101,-0.0015960659366101027
1738772462056930300,5.312930419921875,-0.000805037678219378,-0.0005529937334358692,-0.0012977919541299343
1738772462066921200,5.322921142578125,0.001039734110236168,-0.000617974903434515,-0.001032274798490107
1738772462076913400,5.332913330078125,-0.0000014409888535737991,0.001005780417472124,-0.00036019651452079415
1738772462086904300,5.342904296875,-0.000056834775023162365,-0.0011503146961331367,0.0007956154295243323
1738772462096895200,5.352895263671875,0.0009242828236892819,0.00048682489432394505,0.0009731963509693742
1738772462106886100,5.36288623046875,-0.00023152923677116632,0.00101279909722507,0.001386519055813551
1738772462116877300,5.372877197265625,-0.0009650213178247213,-0.0005801795050501823,0.0006888743955641985
1738772462126869200,5.382869140625,-0.0004784617922268808,-0.00018283585086464882,-0.0008096862584352493
1738772462136860400,5.3928603515625,-0.0007951763109304011,0.00033056014217436314,-0.0011046609142795205
1738772462146851300,5.402851318359375,-0.0024657773319631815,-0.0014047555159777403,-0.0012948106741532683
1738772462156842200,5.41284228515625,0.00044974905904382467,-0.00038707745261490345,-0.00014779504272155464
1738772462166833200,5.422833251953125,-0.00031218130607157946,-0.0015559389721602201,0.00056353525724262
1738772462176825300,5.432825439453125,-0.0002973083173856139,0.000443790340796113,0.0007313222740776837
1738772462186816300,5.442816162109375,-0.0015657718759030104,-0.00003264937549829483,-0.00007162079418776557
1738772462196807200,5.45280712890625,0.0014699884923174977,0.0006277335342019796,-0.0020408215932548046
1738772462206798300,5.46279833984375,-0.001084515592083335,0.0005329248961061239,-0.002860808977857232
1738772462216789200,5.472789306640625,-0.00030269846320152283,0.00019209296442568302,-0.000555585022084415
1738772462226781400,5.482781494140625,0.001815313589759171,-0.0015176564920693636,0.0004881078493781388
1738772462236772400,5.4927724609375,-0.0017270178068429232,-0.0014213835820555687,0.0006874060491099954
1738772462246763300,5.50276318359375,0.000025874818675220013,-0.001160127343609929,0.0010088495910167694
1738772462256754200,5.512754150390625,0.001592540997080505,0.000947990920394659,0.0006752472836524248
1738772462266745300,5.522745361328125,-0.00003278604708611965,-0.00021714228205382824,0.0004906902322545648
1738772462276737300,5.5327373046875,-0.0008383700624108315,-0.00021725567057728767,-0.0011162236332893372
1738772462286728200,5.542728271484375,0.0004593883641064167,0.0005792956799268723,0.0005756825557909906
1738772462296719400,5.55271923828125,0.0002005974529311061,0.0006525954231619835,-0.0006671553128398955
1738772462306710300,5.562710205078125,0.000025894143618643284,0.0011514052748680115,-0.000029061964596621692
1738772462316701200,5.572701171875,0.0005241484614089131,0.0010238026734441519,0.00008563126903027296
1738772462326692900,5.58269287109375,-0.0008726795203983784,-0.0006167045794427395,-0.00006883206515340135
1738772462336683800,5.592683837890625,0.001576912123709917,-0.0003745967987924814,-0.00031350753852166235
1738772462346674700,5.6026748046875,0.00012708723079413176,0.0002885300200432539,0.0027853467036038637
1738772462356665900,5.612665771484375,0.0005418788641691208,-0.00004099518992006779,0.0003288822481408715
1738772462366656800,5.62265673828125,-0.001171332667581737,0.00018164492212235928,-0.0002077446988550946
1738772462376648700,5.632648681640625,-0.00030508660711348057,0.0009228482376784086,-0.0009674330940470099
1738772462386640000,5.642639892578125,0.00023207301273941994,-0.0017871843883767724,-0.0016627844888716936
1738772462396630800,5.652630859375,-0.0005351253203116357,0.00001345248892903328,0.0010286981705576181
1738772462406621700,5.66262158203125,0.000445983256213367,0.0009972243569791317,-0.001989728771150112
1738772462416612900,5.67261279296875,0.0008126044413074851,0.0001359274610877037,0.0014075670624151826
1738772462426604800,5.682604736328125,-0.00039220950566232204,-0.0007234746590256691,-0.0001333378895651549
1738772462436595700,5.692595703125,-0.00014349946286529303,0.001742449589073658,-0.00021162096527405083
1738772462446587000,5.7025869140625,-0.000658022181596607,0.0003698565997183323,0.0015428696060553193
1738772462456577800,5.712577880859375,0.0003833257360383868,0.0007267533801496029,0.0009468208299949765
1738772462466568700,5.722568603515625,0.0009050389053300023,0.00008759461343288422,0.0005116603570058942
1738772462476561000,5.732560791015625,-0.000009511597454547882,0.00048446422442793846,0.0001097194108297117
1738772462486551800,5.7425517578125,-0.0011176528641954064,-0.00016747741028666496,-0.00007829975947970524
1738772462496542700,5.752542724609375,0.0015827888855710626,0.0013442251365631819,-0.002610119991004467
1738772462506534000,5.762533935546875,-0.000012444681487977505,-0.00036605680361390114,-0.000973607471678406
1738772462516524800,5.77252490234375,0.0009303747210651636,-0.00019516563042998314,0.00014761129568796605
1738772462526516700,5.782516845703125,-0.00017110875342041254,0.0003537118900567293,0.00022723982692696154
1738772462536508000,5.7925078125,-0.0004688372719101608,-0.00018961378373205662,0.0017541865818202496
1738772462546498800,5.802498779296875,-0.0006414100644178689,-0.000251132994890213,0.0020069205202162266
1738772462556489700,5.81248974609375,-0.001300036907196045,-0.0002363240346312523,0.001658489927649498
1738772462566480600,5.822480712890625,0.00045312196016311646,-0.0006427224725484848,0.0004859001492150128
1738772462576472800,5.832472900390625,-0.0010032851714640856,-0.0009081338066607714,0.00034006586065515876
1738772462586463700,5.842463623046875,-0.00041259598219767213,0.0018311936873942614,0.000281209999229759
1738772462596455000,5.852454833984375,-0.0007279182900674641,0.0008085172157734632,-0.002495955675840378
1738772462606445800,5.86244580078125,-0.0008919689571484923,0.00014752079732716084,-0.0012874134117737412
1738772462616436700,5.872436767578125,0.00003833242226392031,-0.0005663374904543161,-0.0013067901600152254
1738772462626429000,5.882428955078125,-0.0006423715385608375,0.0004685667809098959,0.00033371709287166595
1738772462636419800,5.892419921875,-0.00006711110472679138,-0.00014640460722148418,-0.0003588218824006617
1738772462646410800,5.90241064453125,0.00003195845056325197,-0.00038076285272836685,0.0018904838943853974
1738772462656402000,5.91240185546875,0.0006942735053598881,-0.0004264023154973984,0.00007479808118660003
1738772462666392800,5.922392822265625,-0.000034899916499853134,0.0013411378022283316,-0.0005198857979848981
1738772462676384800,5.932384765625,-0.0005703078350052238,-0.0010410421527922153,-0.001579686882905662
1738772462686376000,5.9423759765625,0.0000624592648819089,0.00014033610932528973,0.000018476086552254856
1738772462696366800,5.952366943359375,-0.001910937251523137,0.000532596604898572,0.00011350689601385966
1738772462706357800,5.962357666015625,0.0007231952622532845,-0.0002048327587544918,0.00006450473301811144
1738772462716348700,5.9723486328125,0.00020225835032761097,-0.000009460141882300377,-0.0010004419600591063
1738772462726340900,5.9823408203125,0.0011788394767791033,-0.0006475537084043026,-0.00042466650484129786
1738772462736331800,5.992331787109375,-0.0001933964667841792,0.0006709897425025702,-0.0004102525708731264
1738772462746323000,6.002322998046875,0.000037499587051570415,-0.00004886253736913204,0.00043130634003318846
1738772462756313900,6.01231396484375,0.000367242144420743,-0.00039192219264805317,0.0011855337070301175
1738772462766304800,6.0223046875,-0.0005555431125685573,0.0009580343030393124,0.0009578334866091609
1738772462776297000,6.032296875,-0.00011644104961305857,-0.0005800314247608185,-0.0003177231119479984
1738772462786287900,6.042287841796875,0.0013661407865583897,-0.00015152874402701855,-0.000752351013943553
1738772462796278800,6.05227880859375,0.0002109399065375328,0.0004537273198366165,-0.0010674060322344303
1738772462806269700,6.062269775390625,0.0015097635332494974,0.00037356605753302574,-0.0006335771759040654
1738772462816260900,6.0722607421875,-0.00018614553846418858,0.00010230881161987782,-0.0017732104752212763
1738772462826252800,6.082252685546875,-0.000071363290771842,-0.0005901132244616747,0.0006124491919763386
1738772462836244000,6.092243896484375,-0.00138859695289284,-0.0009350015316158533,0.0003725727729033679
1738772462846235000,6.10223486328125,-0.00034889887319877744,0.00027726939879357815,0.0012000169372186065
1738772462856225800,6.112225830078125,-0.0011294352589175105,0.00020177080295979977,0.001605573226697743
1738772462866216700,6.122216796875,-0.0005134461098350585,-0.0004946459084749222,0.0011459116358309984
1738772462876209000,6.132208984375,0.0003438470885157585,0.0003224366810172796,-0.00020565540762618184
1738772462886199800,6.14219970703125,0.0010767490603029728,0.0004920803476125002,-0.00035239558201283216
1738772462896190700,6.152190673828125,0.0012902702437713742,0.0004157146904617548,-0.0018712572054937482
1738772462906182000,6.162181884765625,-0.00015156506560742855,0.0007866930682212114,-0.001171911135315895
1738772462916172800,6.1721728515625,0.00046270701568573713,-0.0001823089551180601,-0.000883663073182106
1738772462926165000,6.1821650390625,-0.00006379990372806787,0.0010310271754860878,0.001874306472018361
1738772462936156000,6.192156005859375,-0.00042326608672738075,0.0005555299576371908,0.001890053041279316
1738772462946146800,6.202146728515625,0.0012577212182804942,-0.00034168874844908714,0.0009747245931066573
1738772462956137700,6.2121376953125,-0.0012826132588088512,-0.00017160200513899326,0.0005706357769668102
1738772462966129000,6.22212890625,-0.0020567942410707474,-0.000771878520026803,0.0009767678566277027
1738772462976120800,6.232120849609375,0.0017281862674281001,0.002090655267238617,8.615897968411446e-7
1738772462986111700,6.24211181640625,-0.0012550867395475507,-0.000014839926734566689,0.0005950127961114049
1738772462996103000,6.25210302734375,-0.000400843215174973,-0.000809159129858017,-0.002037069760262966
1738772463006093800,6.26209375,0.0008415213087573647,-0.00018091942183673382,0.0009459370048716664
1738772463016084700,6.272084716796875,-0.0009081481257453561,0.0005550917703658342,-0.0005511711351573467
1738772463026076700,6.28207666015625,0.0010761732701212168,0.0011159537825733423,0.0006642955704592168
1738772463036067800,6.29206787109375,0.002371820155531168,0.00034194602631032467,0.0009267714340239763
1738772463046058800,6.302058837890625,0.000008530914783477783,-0.0019089578418061137,0.0008034671191126108
1738772463056050000,6.3120498046875,-0.0013662190176546574,0.0004203587304800749,0.0015070172958076
1738772463066040800,6.322040771484375,0.00017548492178320885,0.0004227554891258478,0.0007655932568013668
1738772463076032500,6.332032470703125,-0.0003324012504890561,-0.000348023371770978,-0.0016420355532318354
1738772463086023700,6.342023681640625,0.001432741992175579,0.0008317567408084869,0.00011005811393260956
1738772463096014800,6.352014892578125,0.0005881430115550756,-0.0013613870833069086,0.00023764825891703367
1738772463106005800,6.362005859375,0.000571098760701716,-0.0012924112379550934,-0.0007543792598880827
1738772463115997000,6.371996826171875,-0.0007991816964931786,-0.001204951200634241,0.0006592559511773288
1738772463125988600,6.381988525390625,0.000853575998917222,-0.0002254405990242958,0.000010243573342449963
1738772463135979800,6.391979736328125,0.00018615939188748598,-0.0014279393944889307,-0.00013301732542458922
1738772463145971000,6.401970947265625,0.00025167316198349,0.0003878041170537472,0.0003868316998705268
1738772463155961900,6.4119619140625,-0.0019514381419867277,0.000024547800421714783,0.0017409645952284336
1738772463165952800,6.421952880859375,0.0005066595040261745,0.0007249589543789625,-0.0015794646460562944
1738772463175944700,6.43194482421875,0.0012991221155971289,-0.0005614142864942551,0.0009281474631279707
1738772463185935600,6.441935546875,0.001808052184060216,-0.0007944407407194376,0.0017390799475833774
1738772463195926800,6.4519267578125,-0.0017593095544725657,-0.0005754893645644188,0.00019279491971246898
1738772463205918000,6.46191796875,-0.0009819328552111983,-0.0006604441441595554,-0.00044423321378417313
1738772463215908900,6.471908935546875,0.0006388567853718996,0.000572902150452137,0.001270604319870472
1738772463225900500,6.481900634765625,-0.00035849702544510365,0.0005979356355965137,0.0010160061065107584
1738772463235891700,6.4918916015625,-0.001201932318508625,-0.0009504933841526508,-0.0006314512575045228
1738772463245882600,6.501882568359375,0.0005517591489478946,-0.000517197186127305,0.0014071986079216003
1738772463255873800,6.511873779296875,0.0004471105057746172,-0.00032534683123230934,0.00039617953007109463
1738772463265865000,6.521864990234375,-0.0006176212918944657,0.0003857170231640339,0.0008427917491644621
1738772463275856600,6.531856689453125,-0.0008769594132900238,-0.0011616037227213383,-0.00003550783731043339
1738772463285847600,6.54184765625,0.0010442450875416398,-0.0004302996676415205,0.0007498583290725946
1738772463295838700,6.551838623046875,0.00106308632530272,-0.00015698769129812717,0.00008373911259695888
1738772463305830000,6.561829833984375,0.0015014426317065954,-0.00045472895726561546,-0.001676876563578844
1738772463315820800,6.57182080078125,-0.0011659786105155945,-0.00031678867526352406,-0.0008299438050016761
1738772463325812200,6.581812255859375,-0.000152912107296288,0.00009680027142167091,-0.0014643088215962052
1738772463335803400,6.591803466796875,0.00007752561941742897,0.00019338284619152546,-0.0015710825100541115
1738772463345794600,6.601794677734375,-0.0012276895577087998,0.00035929749719798565,-0.0004719958524219692
1738772463355785500,6.611785400390625,0.00014603743329644203,0.00016227364540100098,0.001814459916204214
1738772463365776400,6.6217763671875,-0.00036582211032509804,0.00042086653411388397,0.0004919341299682856
1738772463375768300,6.631768310546875,0.0002778335474431515,-0.00043135974556207657,-0.00020316090376581997
1738772463385759200,6.64175927734375,-0.0008052741177380085,0.0002781064249575138,-0.00078879005741328
1738772463395750400,6.65175048828125,-0.00033906096359714866,0.0006463178433477879,-0.0021707729902118444
1738772463405741600,6.661741455078125,0.0005421790992841125,-0.0003654169850051403,-0.0006596953608095646
1738772463415732500,6.671732421875,-0.00006438838317990303,-0.00003640609793365002,-0.0013996727066114545
1738772463425724200,6.68172412109375,0.0020080837421119213,0.000045885564759373665,-0.0003551809350028634
1738772463435715300,6.69171533203125,0.0010548491263762116,-0.0005549530033022165,0.002432669512927532
1738772463445706200,6.701706298828125,0.0014215664705261588,0.0007593170739710331,0.0004337009449955076
1738772463455697400,6.711697509765625,-0.0004988936707377434,0.0007780615705996752,0.0007248180918395519
1738772463465688600,6.7216884765625,-0.0008914436330087483,0.00018950318917632103,-0.0005122202564962208
1738772463475680300,6.73168017578125,-0.000176127883605659,-0.0006790964398533106,-0.0013291453942656517
1738772463485671200,6.741671142578125,-0.0020730975084006786,-0.0001043863594532013,-0.0010156913194805384
1738772463495662300,6.751662353515625,-0.00010728021152317524,0.0012034331448376179,-0.00025215354980900884
1738772463505653500,6.761653564453125,-0.0006801261915825307,-0.0008717020973563194,0.0007276234100572765
1738772463515644400,6.77164453125,-0.0001274310052394867,0.0007708570919930935,0.0006223859381861985
1738772463525636400,6.78163623046875,-0.0008486150181852281,0.0009229239076375961,0.00009854219388216734
1738772463535627300,6.791627197265625,-0.0013861912302672863,-0.0007111271843314171,0.00016037706518545747
1738772463545618200,6.8016181640625,-0.00015048449859023094,0.0007365671917796135,0.00018860655836760998
1738772463555609300,6.811609375,-0.00044355314457789063,-0.0007121649105101824,0.0013327959459275007
1738772463565600500,6.8216005859375,0.0004395510768517852,0.00003591715358197689,-0.0013285009190440178
1738772463575592200,6.83159228515625,0.0010386549402028322,0.0005706236697733402,-0.000983798410743475
1738772463585583400,6.841583251953125,0.00028231716714799404,-0.000664017628878355,-0.001441862084902823
1738772463595574300,6.85157421875,-0.0009648532141000032,-0.001357765169814229,0.0003939882153645158
1738772463605565200,6.861565185546875,0.00001758697908371687,-0.0003561503253877163,-0.000151959786307998
1738772463615556400,6.871556396484375,0.00024063477758318186,-0.000351898605003953,0.0004989642766304314
1738772463625548300,6.88154833984375,-0.0012619206681847572,0.0018156482838094234,0.0002725956146605313
1738772463635539200,6.891539306640625,0.00004977860953658819,-0.000687367981299758,0.000022045685909688473
1738772463645530400,6.9015302734375,0.00027135363779962063,-0.00033103697933256626,-0.0012179221957921982
1738772463655521300,6.911521240234375,0.00047793483827263117,0.00025088805705308914,0.00036680715857073665
1738772463665512400,6.921512451171875,0.000020137405954301357,0.00042612385004758835,0.0007971739396452904
1738772463675504400,6.93150439453125,0.0017862424720078707,0.0006161886267364025,0.00040154371527023613
1738772463685495300,6.941495361328125,-0.0003408242482692003,-0.0009004818275570869,-0.0004549289005808532
1738772463695486200,6.951486328125,-0.000567417242564261,0.0010491840075701475,0.0008714673458598554
1738772463705477400,6.961477294921875,0.0001247383188456297,0.0002283977810293436,0.000014195858966559172
1738772463715468300,6.97146826171875,-0.0006142103811725974,-0.001953540835529566,-0.0005181326414458454
1738772463725460200,6.981460205078125,-0.00015268463175743818,-0.0003724219277501106,-0.000006273097824305296
1738772463735451400,6.991451416015625,0.00036319263745099306,0.0002625735942274332,-0.0000802430440671742
1738772463745442300,7.0014423828125,-0.0003465397749096155,0.0004812192637473345,-0.0016762753948569298
1738772463755433200,7.01143310546875,0.0010568361030891538,0.0005215487908571959,0.0012838190887123346
1738772463765424400,7.02142431640625,-0.0008009851444512606,-0.0004361236933618784,0.0004137644427828491
1738772463775416300,7.031416259765625,-0.00047924998216331005,-0.0014717280864715576,0.0010698353871703148
1738772463785407200,7.0414072265625,0.001184160471893847,0.002483865013346076,0.0010328174103051424
1738772463795398400,7.0513984375,0.001111712888814509,0.001147187314927578,-0.0018993569537997246
1738772463805389300,7.061389404296875,0.0007798828883096576,-0.0005628284998238087,-0.0010372917167842388
1738772463815380200,7.071380126953125,0.0002679869066923857,0.0001434932928532362,0.0010021100752055645
1738772463825372400,7.081372314453125,-0.00045532756485044956,0.0004819808527827263,0.0017403383972123265
1738772463835363300,7.09136328125,-0.0005427093128673732,0.0005590335931628942,0.00019616427016444504
1738772463845354200,7.101354248046875,0.0013441403862088919,-0.0002734705340117216,0.0010353263933211565
1738772463855345400,7.111345458984375,-0.0005886619910597801,-0.0002913523931056261,0.0012436909601092339
1738772463865336300,7.12133642578125,-0.0007780127343721688,0.0009813723154366016,-0.0007459565531462431
1738772463875328300,7.131328369140625,-0.0004978191573172808,0.0007990235462784767,0.0000869397190399468
1738772463885319400,7.1413193359375,0.00006730365566909313,-0.00008115125820040703,0.0010443461360409856
1738772463895310300,7.151310302734375,-0.0012333706254139543,-0.0002482880372554064,-0.0006375951925292611
1738772463905301200,7.16130126953125,-0.0008155206451192498,-0.0010733352974057198,-0.0009316081996075809
1738772463915292200,7.171292236328125,0.0009973450796678662,0.000023056287318468094,-0.00006456024129875004
1738772463925283300,7.181283447265625,-0.0009837803663685918,0.0006137455347925425,-0.00041263538878411055
1738772463935275300,7.191275146484375,0.0008084303699433804,0.0013065403327345848,-0.000014917983207851648
1738772463945266400,7.201266357421875,-0.0010778865544125438,-0.0009518202859908342,-0.0005227827932685614
1738772463955257300,7.21125732421875,0.0005638328148052096,-0.0009047037456184626,-0.0006520763272419572
1738772463965248300,7.221248291015625,0.0003744821297004819,0.0005413927137851715,0.000013713957741856575
1738772463975239200,7.2312392578125,0.00015245599206537008,0.00036710198037326336,-0.00008047529263421893
1738772463985231400,7.2412314453125,-0.0008885736460797489,-0.0006358446553349495,0.0021821465343236923
1738772463995222300,7.25122216796875,-0.0007980390219017863,-0.0008207338396459818,-0.00017947009473573416
1738772464005213200,7.261213134765625,-0.0006265314295887947,-0.0007243272848427296,-0.0016828244552016258
1738772464015204400,7.271204345703125,0.0013732962543144822,-0.000026113353669643402,-0.0005676045548170805
1738772464025195300,7.2811953125,0.0014060531975701451,0.0006982663180679083,0.0011064584832638502
1738772464035187500,7.2911875,0.00219636969268322,0.00047920760698616505,0.0009452280937694013
1738772464045178400,7.301178466796875,0.0005348235135897994,0.0005939898546785116,0.0006397634861059487
1738772464055169300,7.311169189453125,0.00134174432605505,-0.0007181006949394941,0.0009484415641054511
1738772464065160200,7.32116015625,-0.00045615562703460455,0.00012159394100308418,-0.0009048522333614528
1738772464075151400,7.3311513671875,0.0007494974415749311,0.0006552024278789759,-0.0018619121983647346
1738772464085143300,7.341143310546875,-0.0014209788059815764,0.00033642188645899296,0.0003045693738386035
1738772464095134500,7.351134521484375,-0.0006665129330940545,-0.0003466680645942688,0.00030606595100834966
1738772464105125400,7.36112548828125,-0.0007512014708481729,0.0011289892718195915,0.0026848013512790203
1738772464115116300,7.3711162109375,-0.0005806875415146351,0.0002946013119071722,0.0006720609380863607
1738772464125107200,7.381107177734375,-0.0005756275495514274,0.0006916786078363657,0.0006741914548911154
1738772464135099400,7.391099365234375,0.0011379723437130451,0.0008422108367085457,-0.0004277582047507167
1738772464145090300,7.40109033203125,-0.0013677958631888032,0.0006712358444929123,-0.0007185754366219044
1738772464155081200,7.411081298828125,0.0004009668482467532,0.0005851697642356157,-0.00015654346498195082
1738772464165072400,7.421072265625,-0.0002563013695180416,0.000044547952711582184,-0.000711279921233654
1738772464175063300,7.431063232421875,0.00015237589832395315,0.0001134239137172699,0.00152289355173707
1738772464185055500,7.441055419921875,-0.00038025638787075877,-0.000308687100186944,-0.00036182551411911845
1738772464195046400,7.45104638671875,0.00045122927986085415,-0.0014165961183607578,0.0005287068197503686
1738772464205037300,7.461037353515625,0.001179603859782219,-0.0001297567505389452,-0.0005136544350534678
1738772464215028200,7.4710283203125,-0.00008180178701877594,0.001307532424107194,0.0006617252947762609
1738772464225019400,7.481019287109375,0.0007147497963160276,-0.0007279214914888144,0.0005416166968643665
1738772464235011300,7.49101123046875,-0.0007474759477190673,-0.00186796928755939,-0.00008684542262926698
1738772464245002200,7.501002197265625,-0.00016717310063540936,-0.0004045623354613781,-0.0017435979098081589
1738772464254993400,7.510993408203125,-0.0008856058702804148,0.0006510689854621887,-0.00041245901957154274
1738772464264984300,7.520984375,0.00005981628783047199,-0.00045174569822847843,0.0024565644562244415
1738772464274975200,7.530975341796875,0.0006414676317945123,-0.0013348902575671673,-0.00040744332363829017
1738772464284967400,7.540967529296875,0.00008513336069881916,-0.0006033198442310095,0.0006474347319453955
1738772464294958300,7.550958251953125,-0.00010827661026269197,0.0007828937377780676,-0.0016427437076345086
1738772464304949200,7.56094921875,0.0011284953216090798,0.0006364199798554182,-0.00010929553536698222
1738772464314940400,7.5709404296875,0.0007894415175542235,0.00033981306478381157,-0.00023515438078902662
1738772464324932400,7.580932373046875,0.000037098536267876625,0.0011182553134858608,-0.0017190678045153618
1738772464334923300,7.59092333984375,-0.0015970305539667606,0.000028161564841866493,-0.00043787300819531083
1738772464344915500,7.60091552734375,-0.0009285771520808339,0.0002814284525811672,-0.00007807996007613838
1738772464354906400,7.61090625,-0.0005224293563514948,0.00057615851983428,-0.0011216329876333475
1738772464364897300,7.620897216796875,0.000330847455188632,0.0001585748977959156,0.000938588404096663
1738772464374888400,7.630888427734375,-0.001373067032545805,0.0005807930137962103,0.0008215057896450162
1738772464384879400,7.64087939453125,0.00029966444708406925,0.0008415167685598135,-0.0006749244057573378
1738772464394871300,7.650871337890625,-0.0005858258227817714,0.0003300732932984829,-0.000465992750832811
1738772464404862500,7.660862548828125,-0.0004433467402122915,-0.00047473376616835594,-0.0008934300858527422
1738772464414853400,7.670853271484375,0.0010776029666885734,0.0017342541832476854,0.00019007956143468618
1738772464424844300,7.68084423828125,-0.0017237761057913303,0.0003837652038782835,-0.00041871904977597296
1738772464434835500,7.69083544921875,0.002333525801077485,0.0004479009658098221,-0.0002723053621593863
1738772464444827400,7.700827392578125,-0.0011797163169831038,0.00043724803254008293,0.0005282408092170954
1738772464454818300,7.710818359375,-0.000573917175643146,-0.00038262479938566685,0.00030859504477120936
1738772464464809500,7.7208095703125,0.0011528764152899384,0.0006011468358337879,0.0004707815533038229
1738772464474800400,7.73080029296875,0.0015704361721873283,-0.0010807174257934093,-0.0002798448549583554
1738772464484791300,7.740791259765625,0.0013216969091445208,0.0006338255479931831,-0.0003184606903232634
1738772464494783500,7.750783447265625,0.000619521364569664,-0.000688756350427866,-0.00035271423985250294
1738772464504774400,7.7607744140625,0.0008211225504055619,0.0007493505254387856,0.0006190732237882912
1738772464514765300,7.770765380859375,-0.000484807591419667,-0.000006278045475482941,0.00024041984579525888
1738772464524756500,7.780756591796875,-0.00019292510114610195,0.0005210277158766985,-0.0009090004023164511
1738772464534747400,7.790747314453125,0.0014166233595460653,-0.0006096737924963236,-0.0005764627130702138
1738772464544739300,7.8007392578125,-0.0005117715918458998,-0.0004498839844018221,0.000045385415432974696
1738772464554730500,7.81073046875,-0.0011787329567596316,0.0015319709200412035,-0.0007768569048494101
1738772464564721400,7.820721435546875,0.0016772410599514842,-0.0004273166414350271,0.0014854983892291784
1738772464574712300,7.83071240234375,0.0007811918621882796,0.00109614129178226,0.00011350688873790205
1738772464584703500,7.840703369140625,0.00003763730637729168,-0.0003891037777066231,0.001057863817550242
1738772464594695400,7.8506953125,0.0016226957086473703,-0.00012525334022939205,-0.0005762824439443648
1738772464604686300,7.860686279296875,0.0006588977994397283,0.0013751713559031487,-0.0004750823136419058
1738772464614677500,7.870677490234375,-0.0012693657772615552,0.00015319185331463814,-0.0024725717958062887
1738772464624668400,7.88066845703125,0.0010321378940716386,0.0014213891699910164,-0.00047972844913601875
1738772464634659300,7.890659423828125,0.0005429524462670088,-0.0007397742010653019,-0.0004599646490532905
1738772464644651500,7.900651611328125,-0.0015915711410343647,-0.0016556354239583015,0.00042713433504104614
1738772464654642400,7.910642333984375,-0.000873803161084652,-0.000367994187399745,0.0016817019786685705
1738772464664633300,7.92063330078125,-0.0011321298079565167,0.000026153866201639175,0.001013781176880002
1738772464674624500,7.93062451171875,-0.0009407213656231761,0.00027232803404331207,-0.00048090607742778957
1738772464684615400,7.940615478515625,0.00021109578665345907,0.001162889413535595,0.0008719797478988767
1738772464694606300,7.9506064453125,-0.00022304453887045383,-0.00038160989060997963,-0.0021453991066664457
1738772464704598500,7.9605986328125,0.0018323833355680108,-0.0005659007001668215,0.0003992512356489897
1738772464714589400,7.97058935546875,0.0009825545130297542,-0.0005676427390426397,-0.0004972292808815837
1738772464724580400,7.980580322265625,-0.0012156186858192086,0.00027045421302318573,0.0005621761665679514
1738772464734571300,7.9905712890625,0.0008997081313282251,-0.00198897416703403,-0.0011072388151660562
1738772464744562400,8.0005625,-0.0012100479798391461,0.00021931901574134827,0.0004810704558622092
1738772464754554400,8.010554443359375,-0.0005701857735402882,0.0002359342761337757,0.0012718692887574434
1738772464764545500,8.020545654296875,-0.0003989444812759757,0.0001808064989745617,0.00024335639318451285
1738772464774536400,8.030536376953124,0.0008226658683270216,-0.0006406665779650211,-0.0020149594638496637
1738772464784527400,8.04052734375,0.0002242537448182702,0.0008781342767179012,-0.0002466206788085401
1738772464794518300,8.050518310546876,0.0007986167911440134,-0.0011636402923613787,-0.00033229595283046365
1738772464804510500,8.060510498046876,0.0015424375887960196,-0.0007923957891762257,0.000529502984136343
1738772464814501400,8.07050146484375,-0.000559111125767231,0.0010979445651173592,0.001394564751535654
1738772464824492500,8.080492431640625,-0.00001795683056116104,-0.0008126073516905308,0.00003821676364168525
1738772464834483500,8.0904833984375,0.0017160620773211122,0.00021755695343017578,0.0006927752983756363
1738772464844474400,8.100474365234374,-0.0007921031210571527,0.0004601706750690937,0.0010416493751108646
1738772464854466600,8.110466552734374,0.0008373704040423036,-0.0011609806679189205,0.0007072826847434044
1738772464864457500,8.12045751953125,0.00041632470674812794,-0.0005561767611652613,0.0015797341475263238
1738772464874448400,8.130448486328126,0.00000807677861303091,0.000665880274027586,-0.0013442500494420528
1738772464884439300,8.140439208984375,0.0002911707852035761,0.0005066231824457645,-0.0014180195285007358
1738772464894430500,8.150430419921875,0.0007423110073432326,-0.0009577199816703796,0.00047459447523579
1738772464904422400,8.16042236328125,-0.0004803463234566152,0.0002545509487390518,-0.0004356740100774914
1738772464914413600,8.17041357421875,-0.00047913851449266076,-0.0001169797033071518,0.0009557585581205785
1738772464924404500,8.180404541015625,0.0006295354105532169,0.0002137850970029831,0.0011419134680181742
1738772464934395400,8.1903955078125,0.0002971657086163759,-0.0005114439409226179,0.00013511028373613954
1738772464944386300,8.20038623046875,-0.00034705293364822865,0.0002669980749487877,0.00011993024963885546
1738772464954377500,8.21037744140625,-0.00008137128315865993,0.0007100519724190235,-0.0012433672090992332
1738772464964369400,8.220369384765625,-0.0012076221173629165,-0.0004779843147844076,-0.0003709156299009919
1738772464974360300,8.2303603515625,0.0000093923881649971,0.00004961434751749039,-0.00016406006761826575
1738772464984351500,8.2403515625,-0.0009299045195803046,0.00032525183632969856,-0.0006367711466737092
1738772464994342400,8.25034228515625,0.0006097888108342886,-0.0015265229158103466,0.001770585193298757
1738772465004333300,8.260333251953124,-0.00039715232560411096,0.0000130506232380867,0.0008704367792233825
1738772465014325500,8.270325439453124,0.0015337099321186543,0.0006912956014275551,0.002410831395536661
1738772465024316400,8.28031640625,-0.0008394328178837895,-0.000873844139277935,-0.0007759073050692677
1738772465034307300,8.290307373046875,0.00014470075257122517,-0.0005252258852124214,-0.0006610541604459286
1738772465044298500,8.300298583984375,-0.0005621022428385913,-0.0008693062700331211,-0.001811007154174149
1738772465054289400,8.310289306640625,-0.0008006904390640557,-0.0009472081437706947,-0.0015288804424926639
1738772465064281300,8.32028125,0.00006696744821965694,0.00047838175669312477,-0.0008204796467907727
1738772465074272500,8.3302724609375,-0.0002297237515449524,-0.0007572555914521217,0.0015042186714708805
1738772465084263400,8.340263427734374,0.0007359384326264262,-0.0013034699950367212,0.0008354989113286138
1738772465094254300,8.35025439453125,0.00027678802143782377,-0.00003905268386006355,-0.0015341052785515785
1738772465104245500,8.36024560546875,-0.0009088512742891908,-0.00008938601240515709,0.0003016116679646075
1738772465114237200,8.3702373046875,-0.00034361809957772493,-0.0009874023962765932,-0.0001882541982922703
1738772465124228400,8.380228271484375,0.0000678403303027153,0.00018065981566905975,-0.0002702795318327844
1738772465134219500,8.390219482421875,-0.000897574529517442,-0.0005654883570969105,-0.0015250741271302104
1738772465144210400,8.40021044921875,-0.0003825192106887698,0.000899782869964838,-0.0011034957133233547
1738772465154201300,8.410201416015624,0.00010581663809716702,-0.001400965265929699,0.0002519680419936776
1738772465164193300,8.420193359375,-0.0011274933349341154,-0.0008068138267844915,-0.00045643284101970494
1738772465174184400,8.430184326171876,0.0013034539297223091,-0.0007845633663237095,0.00035576074151322246
1738772465184175400,8.44017529296875,0.0000791988568380475,-0.0012729871086776257,-0.0009728903532959521
1738772465194166500,8.45016650390625,0.00004614365752786398,-0.0007988326251506805,-0.000613255484495312
1738772465204157400,8.460157470703125,-0.0012841052375733852,-0.00011946028098464012,0.0002735771704465151
1738772465214149000,8.470149169921875,0.001363426330499351,-0.00034584361128509045,0.0007958203786984086
1738772465224140300,8.480140380859375,-0.0008693679701536894,-0.0007913906592875719,0.00016118903295136988
1738772465234131500,8.49013134765625,0.001381560112349689,0.0008646156638860703,0.0008989505004137754
1738772465244122400,8.500122314453124,-0.0011681504547595978,0.0015644943341612816,-0.0008821716182865202
1738772465254113500,8.510113525390626,0.0007078305352479219,0.0014666463248431683,0.0003423814778216183
1738772465264105200,8.520105224609376,-0.0009702272946015,0.001467711292207241,0.00015489489305764437
1738772465274096000,8.53009619140625,0.0003754430217668414,-0.0019219089299440384,0.0005908834282308817
1738772465284087300,8.54008740234375,-0.00004746695049107075,-0.000962904654443264,0.0011829041177406907
1738772465294078500,8.550078369140625,-0.00022981083020567894,-0.00007178075611591339,-0.0001328510115854442
1738772465304069400,8.5600693359375,-0.00009931589011102915,0.0003404766321182251,0.00023253471590578556
1738772465314061300,8.570061279296874,0.0007418238092213869,-0.0015281611122190952,-0.002196687739342451
1738772465324052200,8.58005224609375,0.0009692579042166471,-0.0001419857144355774,0.001218283548951149
1738772465334043000,8.59004296875,-0.00037568429252132773,-0.00005478318780660629,0.0004102187231183052
1738772465344033800,8.60003369140625,0.0014464504783973098,-0.00023694336414337158,0.00057640002341941
1738772465354025000,8.61002490234375,-0.00104163633659482,-0.001370866084471345,0.0012790036853402853
1738772465364017000,8.620016845703125,-0.0000663867685943842,-0.0008648652583360672,0.00012612121645361185
1738772465374008000,8.630008056640625,0.0013239384861662984,-0.0016335297841578722,0.0014806082472205162
1738772465383999000,8.6399990234375,0.0002043456770479679,-0.0012361861299723387,-0.0015993376728147268
1738772465393990000,8.649989990234374,-0.0006857726257294416,-0.0009232328739017248,-0.001418346306309104
1738772465403980800,8.659980712890626,-0.0004564744886010885,0.0001454935409128666,-0.0016226107254624367
1738772465413972000,8.669971923828125,0.0011480841785669327,-0.0015404238365590572,-0.0019177929498255253
1738772465423964000,8.6799638671875,-0.0013033555587753654,-0.000015764031559228897,0.00020820859936065972
1738772465433955000,8.689955078125,-0.0003978825989179313,0.0003054342232644558,0.0024637430906295776
1738772465443946000,8.699946044921875,-0.0015132144326344132,-0.0007145563140511513,0.0009177781757898629
1738772465453937000,8.70993701171875,0.0016082447255030274,-0.0008418143261224031,0.0015133024426177144
1738772465463927800,8.719927734375,-0.000044513028115034103,-0.0003664400428533554,0.001705582719296217
1738772465473919700,8.729919677734374,-0.0003357395180501044,0.0015186085365712643,-0.00029333465499803424
1738772465483911000,8.739910888671876,0.0004054182209074497,-0.00024200743064284325,-0.0006291592726483941
1738772465493901800,8.74990185546875,0.0008892298210412264,-0.0006729336455464363,-0.001295757945626974
1738772465503893000,8.75989306640625,-0.0012346410658210516,0.00022774748504161835,-0.0009724502451717854
1738772465513884000,8.7698837890625,0.0011207538191229105,-0.0008632619865238667,-0.001632465748116374
1738772465523875800,8.779875732421875,0.000747645040974021,-0.0005466120783239603,0.0013619924429804087
1738772465533867000,8.789866943359375,-0.0012583339121192694,-0.000750695588067174,0.0025128114502876997
1738772465543858000,8.79985791015625,0.0015680788783356547,0.00012788153253495693,0.0005130437202751637
1738772465553848800,8.809848876953126,0.0005754302255809307,-0.0010616229847073555,0.0011490888427942991
1738772465563840000,8.819840087890626,0.0005274933064356446,-0.0009159480687230825,0.0008593369275331497
1738772465573831700,8.829831787109375,-0.0012057838030159473,-0.00008825259283185005,-0.00004584708949550986
1738772465583822800,8.83982275390625,-0.000324011140037328,0.0005580964498221874,-0.0013649107422679663
1738772465593814000,8.84981396484375,0.0011602530721575022,0.0006854247767478228,0.00015686929691582918
1738772465603805000,8.859804931640625,0.0012824921868741512,0.0006396181415766478,0.0005701918853446841
1738772465613795800,8.8697958984375,-0.00036149536026641726,-0.00029910821467638016,-0.0011068308958783746
1738772465623787800,8.879787841796874,-0.000610500923357904,-0.00007167435251176357,0.0008993282681331038
1738772465633778700,8.88977880859375,-0.000774432672187686,0.0006236957851797342,0.0007941584917716682
1738772465643769900,8.899769775390626,-0.00018187938258051872,0.0007499295752495527,-0.00003381833084858954
1738772465653761000,8.909760986328125,0.000057929311878979206,-0.0003199763596057892,-0.0013380763120949268
1738772465663752000,8.919751953125,0.0005053404020145535,-0.0005820314399898052,-0.0010880054906010628
1738772465673743600,8.92974365234375,-0.001507568871602416,-0.00016216374933719635,-0.0008226726786233485
1738772465683734800,8.93973486328125,0.00015504250768572092,0.00037978938780725,-0.0022695681545883417
1738772465693726000,8.949725830078124,-0.000300364859867841,0.00012124702334403992,0.0010103561216965318
1738772465703716900,8.959716796875,0.0007550459122285247,0.0004855678416788578,-0.0007752933888696134
1738772465713708000,8.9697080078125,0.0007805449422448874,-0.0014663718175143003,0.00045205053174868226
1738772465723699700,8.97969970703125,-0.0008218790753744543,-0.0003244082909077406,-0.0011479766108095646
1738772465733690600,8.989690673828125,0.0009502277243882418,-0.00015491130761802197,-0.0011054256465286016
1738772465743681800,8.999681884765625,-0.0016868343809619546,-0.000991676701232791,0.0001662336871959269
1738772465753673000,9.0096728515625,0.0003902972675859928,0.000011355150490999222,0.0002424919221084565
1738772465763664000,9.019663818359374,0.0007927009137347341,-0.0010544417891651392,0.0006044155452400446
1738772465773655800,9.02965576171875,-0.0004504338139668107,-0.0002902834676206112,0.0010547918500378728
1738772465783646700,9.039646728515624,0.000488863093778491,0.0005960166454315186,-0.000976667390204966
1738772465793637600,9.0496376953125,-0.0004925579414702952,0.00001958548091351986,-0.0010875624138861895
1738772465803628800,9.05962890625,-0.00034874724224209785,0.0017719455063343048,0.00016119377687573433
1738772465813620000,9.069619873046875,0.0004991332534700632,0.0005825164262205362,0.0006966945948079228
1738772465823611600,9.079611572265625,-0.0019371265079826117,-0.00022229086607694626,0.0001821718760766089
1738772465833602800,9.089602783203125,0.0013755159452557564,0.0003816974349319935,0.002328477567061782
1738772465843593700,9.09959375,-0.0007672634092159569,-0.0004830306861549616,0.0019170192535966635
1738772465853584600,9.109584716796874,0.0004938185447826982,-0.0003280565142631531,-0.0008704482461325824
1738772465863575800,9.119575927734376,0.001052283332683146,0.0006115068681538105,-0.0017948313616216183
1738772465873567700,9.129567626953126,-0.0010333012323826551,-0.000008764443919062614,-0.002518342575058341
1738772465883558700,9.13955859375,-0.0006615240126848221,0.001067419070750475,-0.002629130147397518
1738772465893549800,9.1495498046875,0.0011073772329837084,-0.001229571644216776,0.000048044283175840974
1738772465903540700,9.159540771484375,-0.0006247427081689239,0.0007206613663583994,0.0014310238184407353
1738772465913532000,9.169531982421875,0.00021871959324926138,-0.0018488825298845768,0.0016335631953552365
1738772465923523000,9.179523193359374,0.0013550904113799334,0.000031841685995459557,0.0013246365124359727
1738772465933514800,9.1895146484375,0.00008649134542793036,0.0005249548703432083,0.00010461965575814247
1738772465943505700,9.199505615234376,0.0017296615988016129,0.0011990009807050228,-0.0008541183196939528
1738772465953496800,9.209496826171875,-0.0016166757559403777,0.001401818124577403,-0.002128478605300188
1738772465963487700,9.21948779296875,-0.00006698234938085079,0.00027450197376310825,-0.00126002193428576
1738772465973479000,9.22947900390625,0.00022434873972088099,0.00015263119712471962,-0.0007594562484882772
1738772465983470800,9.239470947265625,-0.0002704666112549603,-0.0012500558514147997,-0.00017409343854524195
1738772465993461800,9.249461669921875,0.0012015890097245574,0.0003626900725066662,0.0006267003482207656
1738772466003452700,9.25945263671875,0.001595736830495298,-0.0010407958179712296,0.003274414921179414
1738772466013443800,9.26944384765625,-0.0011296143056824803,-0.00031710974872112274,0.0009317364310845733
1738772466023434800,9.279434814453126,0.00048798974603414536,0.0005204544868320227,-0.0006387296598404646
1738772466033426700,9.2894267578125,0.0003116209991276264,0.0004633967764675617,-0.000155572677613236
1738772466043417900,9.29941796875,-0.0006641611689701676,0.0014780610799789429,-0.0018868937622755766
1738772466053408800,9.30940869140625,-0.0005504962173290551,-0.00016311882063746452,-0.002951321890577674
1738772466063399700,9.319399658203125,0.0017656548880040646,0.0004041343927383423,-0.0004769788356497884
1738772466073390800,9.329390869140624,-0.00018289248691871762,-0.0007755914703011513,0.0016037083696573973
1738772466083382800,9.3393828125,0.0008141950238496065,0.0007011312991380692,0.0017677589785307646
1738772466093373700,9.349373779296876,-0.0005588798667304218,-0.0008922058623284101,0.0006887927302159369
1738772466103364900,9.35936474609375,0.00037722126580774784,-0.0002562429290264845,0.0005812011077068746
1738772466113355800,9.369355712890625,-0.001674323808401823,0.00007658405229449272,-0.0012065820628777146
1738772466123346700,9.3793466796875,0.0010876404121518135,-0.0006318166851997375,-0.001731757540255785
1738772466133339000,9.3893388671875,0.0015244025271385908,0.0008388792630285025,-0.0010811793617904186
1738772466143329800,9.399329833984375,-0.0011938860407099128,-0.0004724613390862942,-0.0012508226791396737
1738772466153320700,9.40932080078125,-0.002620044630020857,0.000052685849368572235,-0.00038095912896096706
1738772466163311600,9.4193115234375,0.0011898735538125038,-0.0017233763355761766,-0.0007410185062326491
1738772466173302800,9.429302734375,-0.000018786056898534298,0.000803634524345398,0.00014589028432965279
1738772466183294700,9.439294677734376,-0.0002962874714285135,-0.00010450324043631554,-0.0006823528092354536
1738772466193286000,9.449285888671875,0.0007362066535279155,0.0010544736869633198,-0.0014335090527310967
1738772466203276800,9.45927685546875,-0.00021267769625410438,0.0008155880495905876,-0.0005871564499102533
1738772466213267700,9.469267822265625,0.0005106549942865968,-0.0011533615179359913,-0.00004111722228117287
1738772466223258600,9.479258544921874,0.0012126642977818847,0.000875967089086771,-0.0006903958856128156
1738772466233249800,9.489249755859374,0.0014880960807204247,-0.0012131128460168839,0.0001520806399639696
1738772466243241700,9.49924169921875,-0.0002908955793827772,0.0008668159134685993,0.0006831149221397936
1738772466253233000,9.50923291015625,0.0006552463164553046,-0.00044785276986658573,0.00016619186499156058
1738772466263223800,9.519223876953125,0.0006722905673086643,-0.0016585257835686207,-0.0000931999966269359
1738772466273214700,9.529214599609375,0.00010900339111685753,-0.00015756860375404358,-0.0004882117791566998
1738772466283205600,9.53920556640625,-0.0018193915020674467,0.00042806053534150124,-0.0010368230286985636
1738772466293197800,9.54919775390625,0.0016509147826582193,0.0003070635721087456,0.0007725425530225039
1738772466303188700,9.559188720703125,0.000926534878090024,0.0007515451870858669,0.0009493763791397214
1738772466313179600,9.5691796875,0.0010668998584151268,0.00014899484813213348,0.0004771024687215686
1738772466323170800,9.5791708984375,0.0006266792770475149,-0.0008832463063299656,0.0001937421620823443
1738772466333161700,9.58916162109375,-0.0009878396522253752,0.00023346394300460815,0.0009444922325201333
1738772466343154000,9.59915380859375,0.0002196376444771886,-0.0019247618038207293,-0.00019028069800697267
1738772466353144800,9.609144775390625,0.0009091335814446211,-0.0009359794203191996,0.00041228567715734243
1738772466363135700,9.6191357421875,-0.000036022160202264786,0.0000057141296565532684,0.0000644768588244915
1738772466373127000,9.629126953125,-0.0008463956182822585,-0.0008195827249437571,-0.0011293527204543352
1738772466383117800,9.639117919921874,-0.0006772848428227007,-0.0005053298082202673,-0.0002731464628595859
1738772466393109800,9.64910986328125,0.0002105374587699771,0.0007244893349707127,-0.000525275943800807
1738772466403101000,9.659100830078126,0.0004369061207398772,-0.00022146571427583694,0.0007224149885587394
1738772466413091800,9.669091796875,0.00003607675898820162,0.0002648611553013325,-0.00022702223213855177
1738772466423082800,9.679082763671875,-0.00002704013604670763,-0.001334633445367217,-0.0005721679190173745
1738772466433074000,9.689073974609375,0.000365598127245903,-0.0011610770598053932,-0.0010410500690340996
1738772466443064800,9.69906494140625,0.0005426983116194606,-0.00017091375775635242,-0.0005768612027168274
1738772466453056800,9.709056884765625,0.0016442927299067378,0.0008539119735360146,-0.0008006443385966122
1738772466463048000,9.7190478515625,0.0007108548888936639,0.0003756084479391575,-0.001555916853249073
1738772466473038800,9.729038818359374,0.00012571446131914854,-0.0015558300074189901,-0.00023539704852737486
1738772466483029800,9.73902978515625,-0.000878297199960798,0.0013683210127055645,0.00014516868395730853
1738772466493020700,9.749020751953125,-0.0005881622200831771,0.0005005472339689732,-0.0011743759969249368
1738772466503012900,9.759012939453125,-0.0014619453577324748,0.00017164647579193115,-0.0016079386696219444
1738772466513003800,9.769003662109375,0.00006269023288041353,-0.0009948459919542074,0.0000062930339481681585
1738772466522995000,9.778994873046875,0.0013034569565206766,0.0006387368775904179,-0.00019956930191256106
1738772466532985900,9.78898583984375,-0.0006019431748427451,0.0005069291219115257,0.0009573514107614756
1738772466542976800,9.798976806640624,0.0015927677741274238,-0.0003298360388725996,0.0007139384979382157
1738772466552969000,9.808968994140624,0.001462477375753224,0.00012517045252025127,0.00238052848726511
1738772466562960000,9.8189599609375,0.0010233219945803285,-0.0005669849924743176,0.0017134064109995961
1738772466572950800,9.82895068359375,0.001234138966538012,0.000768305966630578,-0.001504107378423214
1738772466582941700,9.838941650390625,-0.0010825449135154486,-0.00019469298422336578,-0.0022199649829417467
1738772466592932900,9.848932861328125,-0.00011532288044691086,-0.0003635990433394909,-0.0025071867275983095
1738772466602924800,9.8589248046875,-0.0003073368570767343,0.00020685023628175259,-0.001226206193678081
1738772466612916000,9.868916015625,0.0007378498557955027,0.00028905225917696953,0.00068813341204077
1738772466622907000,9.878906982421874,0.00016154185868799686,0.00008931523188948631,0.0006191575084812939
1738772466632897800,9.888897705078126,-0.00006450456567108631,0.00024986988864839077,0.0015146994264796376
1738772466642888700,9.898888671875,0.00028223905246704817,-0.0003370910417288542,0.0005333246081136167
1738772466652881000,9.908880859375,-0.00032570608891546726,-0.00047425017692148685,0.00007226140587590635
1738772466662871800,9.918871826171875,-0.00016218808013945818,0.001055469736456871,0.0004272607620805502
1738772466672862700,9.92886279296875,0.00015902577433735132,-0.00010556401684880257,-0.0020223292522132397
1738772466682854000,9.93885400390625,-0.001109171542339027,-0.00004244712181389332,-0.0022654756903648376
1738772466692844800,9.9488447265625,0.00019336596596986055,0.0004463221412152052,-0.000002050510374829173
1738772466702835700,9.958835693359376,0.0008820595685392618,-0.0009662185329943895,0.001401168992742896
1738772466712828000,9.968827880859376,-0.0005386684788390994,-0.0006809590850025415,0.0008926362497732043
1738772466722818800,9.97881884765625,-0.001263048266991973,0.0016090930439531803,0.0010431049158796668
1738772466732809700,9.988809814453125,0.000997694325633347,-0.000008737202733755112,0.0004093932802788913
1738772466742801000,9.99880078125,0.0004488168051466346,0.0002117727417498827,0.000015511774108745158
1738772466752791800,10.008791748046875,-0.00035092816688120365,0.000168707687407732,-0.00013001120532862842
1738772466762783700,10.01878369140625,-0.00028861017199233174,0.0018749949522316456,0.001889730105176568
1738772466772775000,10.02877490234375,-0.000059464829973876476,-0.0003270036540925503,-0.0014228485524654388
1738772466782765800,10.038765869140626,-0.0010445681400597095,-0.00031981291249394417,-0.001083828043192625
1738772466792756700,10.0487568359375,-0.00020165916066616774,-0.0005078776739537716,0.00024974916595965624
1738772466802748000,10.058747802734375,-0.0006320259417407215,-0.0018059024587273598,0.00024255864263977855
1738772466812739800,10.06873974609375,-0.001172932330518961,-0.00029260339215397835,0.00021527003264054656
1738772466822730800,10.078730712890625,0.00021164503414183855,-0.0006246995180845261,0.0007947738049551845
1738772466832722000,10.088721923828125,0.001034436747431755,0.00040822243317961693,0.0000628938723821193
1738772466842712800,10.098712890625,0.001064530573785305,-0.0011790215503424406,-0.0007003680802881718
1738772466852703700,10.108703857421874,-0.0006674636388197541,-0.00029026996344327927,-0.001284251338802278
1738772466862696000,10.118696044921874,0.00002868659794330597,0.0010887149255722761,-0.0006213905289769173
1738772466872686800,10.128686767578126,0.0011204975889995694,0.0012642594520002604,0.0009354129433631897
1738772466882677800,10.138677734375,0.00044085888657718897,-0.0009778558742254972,0.0031069545075297356
1738772466892669000,10.1486689453125,0.0008039296371862292,-0.0003564166836440563,0.0018701291410252452
1738772466902659800,10.158659912109375,0.00037276395596563816,-0.0007558907382190228,0.0008967437315732241
1738772466912650800,10.168650634765624,0.0005591101944446564,0.0002747313119471073,-0.0005246133077889681
1738772466922643000,10.178642822265624,0.0005151680670678616,-0.00005496782250702381,-0.001633553532883525
1738772466932633900,10.1886337890625,0.0007420596666634083,-0.0008538300171494484,-0.0010966560803353786
1738772466942624800,10.198624755859376,-0.00043745432049036026,-0.0005275928415358067,-0.001404251204803586
1738772466952616000,10.208615966796875,0.00004193081986159086,0.00007935706526041031,0.000012551769032143056
1738772466962606800,10.21860693359375,0.0007796264253556728,-0.0011281203478574753,0.0014384081587195396
1738772466972598800,10.228598876953125,-0.0009424897143617272,-0.0010641347616910934,0.00356759550049901
1738772466982590000,10.23858984375,0.0014903078554198146,0.0011577405966818333,0.0009196145692840219
1738772466992580900,10.248580810546875,-0.0009199227788485587,-0.00019344454631209373,0.00047302013263106346
1738772467002571800,10.25857177734375,-0.0007023425423540175,0.0000568924006074667,-0.00220372318290174
1738772467012563000,10.26856298828125,-0.00032843032386153936,-0.00039062416180968285,-0.001342149218544364
1738772467022555000,10.278554931640626,-0.00023149128537625074,-0.00045107793994247913,-0.0016231127083301544
1738772467032545800,10.2885458984375,0.0016318645793944597,-0.0012041367590427399,-0.000622362014837563
1738772467042537000,10.298536865234375,0.0004230558406561613,0.0002821735106408596,-0.0006524557247757912
1738772467052527900,10.30852783203125,-0.0004780591116286814,-0.00024260231293737888,0.0031499643810093403
1738772467062518800,10.318518798828125,0.0007057159673422575,0.0008610119111835957,0.0015379530377686024
1738772467072511000,10.328510986328125,0.0006636217003688216,-0.00034958450123667717,0.0013306804466992617
1738772467082502000,10.338501953125,-0.00048207014333456755,0.00003337813541293144,0.0005298680043779314
1738772467092492800,10.348492919921876,-0.000363510858733207,0.001361660659313202,0.00034108664840459824
1738772467102484000,10.35848388671875,-0.001422649947926402,-0.0010642129927873611,-0.0005742417997680604
1738772467112475000,10.368474853515625,0.000599862658418715,0.0002819343935698271,-0.000973672023974359
1738772467122465800,10.3784658203125,0.0016467513050884008,-0.00007972284220159054,0.00030304741812869906
1738772467132458000,10.3884580078125,0.00007287971675395966,-0.00047538592480123043,0.0021377066150307655
1738772467142449000,10.398448974609375,0.00005530286580324173,-0.00017737830057740211,-0.0002908297465182841
1738772467152439800,10.408439697265624,0.0006991142872720957,-0.0008895255159586668,0.001107812742702663
1738772467162430700,10.4184306640625,-0.0002550962963141501,-0.00044451141729950905,-0.003301050281152129
1738772467172422000,10.428421875,0.0005358874332159758,-0.00003756745718419552,-0.00019924427033402026
1738772467182413800,10.438413818359376,0.0013566736597567797,0.0006226301193237305,-0.0016101871151477098
1738772467192405000,10.448405029296875,-0.0009576973970979452,0.00022353720851242542,-0.0001901926880236715
1738772467202396000,10.45839599609375,-0.00038538407534360886,-0.001006843289360404,0.0005323229124769568
1738772467212386800,10.46838671875,-0.0005716443993151188,-0.00002468726597726345,0.0022936323657631874
1738772467222377700,10.478377685546874,-0.0012733873445540667,0.000999564304947853,0.0009050603257492185
1738772467232370000,10.488369873046874,0.0005489238537847996,0.0013513469602912664,0.0006208950653672218
1738772467242360800,10.49836083984375,0.000012563192285597324,-0.0013379130978137255,-0.0013434524880722165
1738772467252351700,10.508351806640626,0.00007870420813560486,0.0008678694721311331,-0.0026313241105526686
1738772467262343000,10.518343017578125,-0.0022387783974409103,0.001162148779258132,-0.0033365292474627495
1738772467272333800,10.528333740234375,-0.0016514317831024528,-0.0010365797206759453,-0.0016329347854480147
1738772467282324700,10.53832470703125,-0.0008660656167194247,0.0008822276722639799,0.0006520574679598212
1738772467292317000,10.54831689453125,-0.0016779390862211585,-0.0004008389078080654,0.0003996092127636075
1738772467302307800,10.558307861328124,0.0011372884036973119,-0.0002935135271400213,0.0031282841227948666
1738772467312298800,10.568298828125,0.0002968724584206939,0.0012919141445308924,0.001438378938473761
1738772467322290000,10.5782900390625,-0.0005670569371432066,0.00030627823434770107,-0.00022476517187897116
1738772467332280600,10.588280517578125,0.0009055713890120387,-0.0007178874220699072,-0.0019814358092844486
1738772467342272500,10.5982724609375,0.00041927804704755545,-0.0002723406068980694,-0.0031170076690614223
1738772467352263700,10.608263671875,-0.00016599055379629135,0.0018396265804767609,-0.0016345971962437034
1738772467362254600,10.618254638671875,0.002425531391054392,-0.0004680023994296789,0.00046264217235147953
1738772467372245500,10.62824560546875,0.0005211079260334373,-0.001471304101869464,0.002889784052968025
1738772467382236400,10.638236328125,-0.0005281774792820215,0.00010022730566561222,0.00030838215025141835
1738772467392228600,10.648228515625,0.001398637075908482,-0.0010201844852417707,0.001711435616016388
1738772467402219500,10.658219482421876,-0.00020298792514950037,-0.00033362163230776787,-0.0005463924026116729
1738772467412210700,10.668210693359375,0.001131647382862866,0.00011499784886837006,-0.0011132219806313515
1738772467422201600,10.67820166015625,-0.0010297743137925863,0.001331529812887311,-0.0009385185549035668
1738772467432192500,10.688192626953125,0.0002205423079431057,-0.000002270098775625229,0.0010027531534433365
1738772467442184700,10.698184814453125,0.0017697031144052744,0.0003311573527753353,0.00251249922439456
1738772467452175600,10.708175537109375,-8.416827768087387e-8,0.0005657048895955086,0.002158984076231718
1738772467462166500,10.71816650390625,-0.0006656081532128155,0.0011558611877262592,0.0015549793606624007
1738772467472157400,10.728157470703126,0.00021926010958850384,0.00015263119712471962,-0.00020068377489224076
1738772467482148600,10.738148681640626,-0.00032082892721518874,-0.002087087370455265,-0.000436373520642519
1738772467492139500,10.748139404296875,0.0018218369223177433,-0.000585904810577631,-0.0003253056784160435
1738772467502131700,10.758131591796875,0.0011358067858964205,0.0006743029225617647,0.00012929589138366282
1738772467512122600,10.76812255859375,-0.001475807512179017,-0.0005093712825328112,0.0007887609535828233
1738772467522113500,10.778113525390625,-0.00014103110879659653,0.000020331470295786858,0.0018463023006916046
1738772467532104400,10.7881044921875,0.00037560088094323874,0.0010439835023134947,0.00013965548714622855
1738772467542095600,10.798095703125,-0.000030264840461313725,0.0005867190193384886,-0.0007346603088080883
1738772467552087600,10.808087646484376,-0.0008187016937881708,0.001362920505926013,-0.0030825529247522354
1738772467562078500,10.818078369140625,0.00033444701693952084,0.0004518532659858465,-0.0005203255568630993
1738772467572069600,10.828069580078125,-0.00040860328590497375,-0.0006248380523175001,0.00025045493384823203
1738772467582060500,10.838060546875,0.00030166178476065397,0.0010399038437753916,-0.00033517417614348233
1738772467592051500,10.848051513671875,0.0011149311903864145,0.0006556357257068157,0.0015727648278698325
1738772467602043600,10.858043701171875,0.00007363536860793829,-0.001785417553037405,0.0010590411256998777
1738772467612034600,10.86803466796875,0.000273063313215971,0.0012515934649854898,0.0005322817014530301
1738772467622025500,10.878025390625,-0.00007181602995842695,0.00008592777885496616,-0.0003707961877807975
1738772467632016600,10.8880166015625,0.0002465450670570135,0.00023722625337541103,-0.000753688276745379
1738772467642007600,10.898007568359375,0.000006061629392206669,0.0007235195953398943,0.0018274475587531924
1738772467651998500,10.90799853515625,-0.0013636883813887835,-0.0010155625641345978,-0.0004994387272745371
1738772467661990700,10.91799072265625,-0.0008238655864261091,-0.00022513652220368385,-0.0007497757906094193
1738772467671981600,10.927981689453125,0.0013637874508276582,0.00006146146915853024,0.0001502155209891498
1738772467681972500,10.937972412109374,-0.0005355789908207953,-0.000035477569326758385,0.000918537494726479
1738772467691963600,10.947963623046874,-0.002796646673232317,-0.00018305424600839615,0.0017835816834121943
1738772467701954600,10.95795458984375,0.0017301946645602584,-0.0005271346308290958,0.0014277833979576826
1738772467711946500,10.967946533203126,-0.0005009921733289957,-0.0002893139608204365,0.00127426628023386
1738772467721937700,10.977937744140625,-0.00020165287423878908,-0.0003178096376359463,-0.002375862328335643
1738772467731928600,10.987928466796875,0.001263913931325078,-0.0006025931797921658,-0.0007602270925417542
1738772467741919500,10.99791943359375,-0.0009555645519867539,0.0005217934958636761,-0.002384222811087966
1738772467751910700,11.00791064453125,0.00028141599614173174,0.0011067325249314308,0.0005109652411192656
1738772467761902600,11.017902587890624,-0.00012444984167814255,-0.0008224612101912498,0.0006672927993349731
1738772467771893500,11.0278935546875,-0.0015881478320807219,-0.00016583572141826153,0.00043814542004838586
1738772467781884700,11.037884765625,0.00022999232169240713,0.0010608162265270948,0.0011534704826772213
1738772467791875600,11.04787548828125,0.00025457562878727913,0.0003394237719476223,0.0006595812155865133
1738772467801866500,11.057866455078125,-0.00011240795720368624,-0.0003772331401705742,-0.0009937090799212456
1738772467811857700,11.067857666015625,-0.0011253927368670702,0.0004984927363693714,-0.0012856716057285666
1738772467821849600,11.077849609375,0.00033748173154890537,-0.00010178354568779469,-0.0011045767460018396
1738772467831840500,11.087840576171875,0.0013316846452653408,0.0002373475581407547,-0.0007151595782488585
1738772467841831700,11.097831787109374,-0.0008939190302044153,-0.000210063299164176,0.00004037926555611193
1738772467851822600,11.107822509765626,0.0023097414523363113,0.0012885637115687132,0.0012342907721176744
1738772467861813500,11.1178134765625,-0.0008764645317569375,-0.00011652009561657906,0.0004582455730997026
1738772467871805700,11.1278056640625,-0.0007528960704803467,0.00030944286845624447,-0.001076024491339922
1738772467881796600,11.137796630859375,0.0013547295238822699,-0.0002013517078012228,0.0006289311568252742
1738772467891787500,11.14778759765625,0.00005990499630570412,-0.0004862977657467127,-0.000688399188220501
1738772467901778700,11.15777880859375,-0.0006988295936025679,-0.0010484911035746336,0.00025649036979302764
1738772467911769600,11.16776953125,0.0008302486967295408,-0.00023758201859891415,-0.0003095691790804267
1738772467921761500,11.177761474609374,0.0000025383196771144867,0.0007595052011311054,-0.0003340702678542584
1738772467931752700,11.187752685546876,0.0006331830518320203,0.0003799635451287031,-0.000647310633212328
1738772467941743600,11.19774365234375,0.00048031762707978487,-0.00021099182777106762,-0.00025582595844753087
1738772467951734500,11.207734619140625,0.0021049431525170803,-0.0018555563874542713,-0.0008032291661947966
1738772467961725400,11.217725341796875,0.0003504526102915406,-0.0005199811421334743,0.0006788199534639716
1738772467971716600,11.227716552734375,0.00046146754175424576,0.0006737594958394766,0.00040059947059489787
1738772467981708500,11.23770849609375,-0.0011220480082556605,0.00006123236380517483,0.0006442787125706673
1738772467991699700,11.24769970703125,-0.0005965621094219387,-0.00004373444244265556,0.0009073014371097088
1738772468001690600,11.257690673828124,0.0005677719600498676,0.0001219138503074646,0.00008385202090721577
1738772468011681500,11.267681640625,0.000028085196390748024,-0.00016478192992508411,0.0003892350650858134
1738772468021672400,11.27767236328125,-0.0005484892171807587,0.0010573428589850664,-0.0001862740609794855
1738772468031664600,11.28766455078125,0.0004236026434227824,0.0004860174376517534,0.00035600672708824277
1738772468041655600,11.297655517578125,0.001383672235533595,-0.0000069336965680122375,0.0007573451148346066
1738772468051646500,11.307646484375,-0.0008310184930451214,-0.0009806237649172544,0.0011768206022679806
1738772468061637600,11.3176376953125,0.0012326649157330394,0.0008329891134053469,0.0002066309389192611
1738772468071628500,11.327628662109374,0.00006319477688521147,-0.0012139256577938795,0.00010164655395783484
1738772468081620700,11.337620849609374,0.0001569380983710289,0.000248149735853076,-0.001482135383412242
1738772468091611600,11.347611572265626,0.0002195063279941678,-0.0008066173177212477,-0.0005659438902512193
1738772468101602600,11.3576025390625,0.0010131283197551966,-0.0009331174660474062,0.00011316216841805726
1738772468111593500,11.367593505859375,-0.0004913990269415081,0.0011369064450263977,0.0007217744714580476
1738772468121584600,11.377584716796875,-0.0005393359460867941,0.000011987285688519478,-0.000589033414144069
1738772468131575600,11.387575439453125,0.0004988230066373944,-0.0006327962037175894,0.00038071375456638634
1738772468141567500,11.3975673828125,-0.000040200771763920784,-0.00015795440413057804,0.0015847289469093084
1738772468151558700,11.40755859375,0.00014248082879930735,-0.0012769775930792093,0.0004187141312286258
1738772468161549600,11.417549560546876,-0.00035606289748102427,-0.000300130108371377,0.0016040871851146221
