time,seconds_elapsed,z,y,x
1738772456767832000,0.02383203125,0.0017531589837744832,0.0040943436324596405,0.008505337871611118
1738772456777823000,0.033822998046875,0.002132392954081297,0.002846919232979417,0.007662713527679443
1738772456787814100,0.043814208984375,0.0010751180816441774,0.004798749927431345,0.005933522712439299
1738772456797806000,0.05380615234375,0.0019065570086240768,0.004820853937417269,0.002698314841836691
1738772456807797200,0.06379736328125,0.0012844426091760397,0.002528405049815774,-0.0009677927591837943
1738772456817788200,0.0737880859375,0.0012546151410788298,0.004752411041408777,-0.004746552091091871
1738772456827779000,0.083779052734375,0.0013699301052838564,0.004253068007528782,-0.007423028815537691
1738772456837770000,0.09377001953125,0.0005366269615478814,0.003638677066192031,-0.006567621603608131
1738772456847762200,0.10376220703125,0.0003062635369133204,0.004538558889180422,-0.005025118589401245
1738772456857753000,0.113753173828125,0.001281779375858605,0.00401471508666873,0.0005523395957425237
1738772456867744000,0.123743896484375,0.0014980280539020896,0.005150021053850651,0.004207528196275234
1738772456877735200,0.133735107421875,-0.000904409505892545,0.0035920715890824795,0.007485080510377884
1738772456887727000,0.14372705078125,0.0006641923682764173,0.004012318328022957,0.005986253265291452
1738772456897718300,0.15371826171875,0.001487375469878316,0.0037579864729195833,0.0037824877072125673
1738772456907709200,0.163709228515625,0.0021859225817024708,0.0038344194181263447,0.000969923275988549
1738772456917700000,0.1737001953125,0.0021787320729345083,0.0036567864008247852,-0.003381948219612241
1738772456927692300,0.1836923828125,0.002058623591437936,0.004703674931079149,-0.005995041690766811
1738772456937683200,0.19368310546875,0.0009060074225999415,0.004820055328309536,-0.00458622956648469
1738772456947674000,0.203674072265625,0.0012948289513587952,0.005061071366071701,-0.0036506610922515392
1738772456957665300,0.213665283203125,-0.00011238539445912465,0.0036554548423737288,-0.0004010720585938543
1738772456967656200,0.22365625,0.0005281048361212015,0.004000067710876465,0.003183542750775814
1738772456977648000,0.233648193359375,-0.00010626012954162434,0.002284992253407836,0.004864796530455351
1738772456987639300,0.243639404296875,0.0015209312550723553,0.0035305526107549667,0.003975300583988428
1738772456997630200,0.253630126953125,0.00015393071225844324,0.0034120420459657907,0.001734783174470067
1738772457007621000,0.26362109375,0.001999501371756196,0.0046693203039467335,0.0011853729374706745
1738772457017613000,0.273613037109375,0.0024762072134763002,0.0038035267498344183,-0.00041305628838017583
1738772457027604200,0.283604248046875,0.0014602112350985408,0.0038016624748706818,-0.002549710450693965
1738772457037595100,0.29359521484375,0.001395230065099895,0.004275172483175993,-0.0037771612405776978
1738772457047586300,0.30358642578125,0.002424009144306183,0.0032985913567245007,-0.0015773903578519821
1738772457057577200,0.3135771484375,0.0009534116834402084,0.0035417377948760986,0.000003728425554072601
1738772457067569000,0.32356884765625,0.0017097494564950466,0.0041404166258871555,0.0023579627741128206
1738772457077560000,0.33356005859375,0.0008780442294664681,0.0039854203350842,0.0030746194534003735
1738772457087551200,0.34355126953125,0.0015249260468408465,0.0035356127191334963,0.003430950455367565
1738772457097542100,0.353542236328125,0.0005669869715347886,0.0033806166611611843,0.0024317323695868254
1738772457107534000,0.3635341796875,0.0030005834996700287,0.0030860709957778454,0.0014077469240874052
1738772457117525000,0.37352490234375,0.0017172062071040273,0.0034200313966721296,-0.00028628981090150774
1738772457127516000,0.383515869140625,0.00010333064710721374,0.003943076357245445,-0.0007358313887380064
1738772457137507300,0.39350732421875,0.0008045409340411425,0.004530569538474083,-0.001324123702943325
1738772457147498200,0.403498291015625,0.0015949672088027,0.004040814470499754,-0.002811765531077981
1738772457157490000,0.413489990234375,-0.0005305017111822963,0.0054450989700853825,-0.0009888317435979843
1738772457167481000,0.423481201171875,0.002109756227582693,0.0035308189690113068,0.002389654517173767
1738772457177472000,0.433471923828125,0.0008940231637097895,0.004335360135883093,0.0021401161793619394
1738772457187463200,0.443463134765625,0.0015608787070959806,0.004442951641976833,0.004544950556010008
1738772457197454000,0.4534541015625,0.0021054951939731836,0.004718322306871414,0.0027539748698472977
1738772457207446000,0.463446044921875,0.0034322820138186216,0.004532966297119856,0.0001131843455368653
1738772457217437000,0.47343701171875,0.0032975259236991405,0.0038666436448693275,-0.0007653924985788763
1738772457227428000,0.483427978515625,0.0030059099663048983,0.004172108136117458,-0.0022455775178968906
1738772457237419000,0.4934189453125,0.001785383210517466,0.0037787591572850943,-0.0022775353863835335
1738772457247411000,0.503410888671875,0.002350239548832178,0.004249339923262596,-0.001113201375119388
1738772457257402000,0.513402099609375,0.0024626250378787518,0.002892725635319948,-0.0005307680112309754
1738772457267393000,0.52339306640625,0.002877279184758663,0.005278385244309902,0.0029228192288428545
1738772457277384000,0.533384033203125,0.0015776565996930003,0.005052815657109022,0.0035049861762672663
1738772457287376100,0.543376220703125,0.000978978001512587,0.004452006425708532,0.003204049076884985
1738772457297367000,0.553366943359375,0.0017979000695049763,0.003921770956367254,0.0008444883860647678
1738772457307358000,0.56335791015625,0.0029973878990858793,0.0038107172586023808,0.001919073867611587
1738772457317348600,0.5733486328125,0.0017757958266884089,0.0035244273021817207,0.0006727144937030971
1738772457327339500,0.583339599609375,0.0041156490333378315,0.004490355961024761,-0.002123870886862278
1738772457337331500,0.59333154296875,0.0024580976460129023,0.004096740856766701,-0.004765726625919342
1738772457347322400,0.603322265625,0.0037974014412611723,0.004365986213088036,-0.0009632653673179448
1738772457357313300,0.613313232421875,0.0007526093395426869,0.004861600697040558,0.00009214537567459047
1738772457367304400,0.623304443359375,0.0010644654976204038,0.003955326974391937,0.0007986819837242365
1738772457377295600,0.633295654296875,0.0034061830956488848,0.003433613572269678,0.0038040592335164547
1738772457387287300,0.643287353515625,0.0012831110507249832,0.005578789860010147,0.004339088220149279
1738772457397278500,0.653278564453125,0.0021350563038140535,0.0033683660440146923,0.003338538808748126
1738772457407269400,0.663269287109375,0.0023118900135159492,0.0029577065724879503,0.001832521171309054
1738772457417260300,0.67326025390625,0.0020032296888530254,0.004596616141498089,-0.00042504051816649735
1738772457427252500,0.68325244140625,0.0031792817171663046,0.003984621725976467,-0.001711081014946103
1738772457437243400,0.693243408203125,0.0012452941155061126,0.003841077210381627,-0.0017776599852368236
1738772457447234300,0.703234375,0.0025992451701313257,0.003964914008975029,-0.0006942860782146454
1738772457457225500,0.7132255859375,0.002213353058323264,0.0024498419370502234,-0.00047857005847617984
1738772457467216400,0.72321630859375,0.0008066715090535581,0.004727909807115793,0.0007648598402738571
1738772457477208300,0.733208251953125,0.0016612798208370805,0.003811782458797097,0.003063700394704938
1738772457487199500,0.743199462890625,0.0012117383303120732,0.0036940707359462976,0.002141714096069336
1738772457497190400,0.7531904296875,0.0012090750969946384,0.00475454144179821,0.0025150892324745655
1738772457507181300,0.763181396484375,0.0005571332876570523,0.004180630203336477,0.001091896090656519
1738772457517173500,0.773173583984375,0.0013859090395271778,0.003846669802442193,-0.0005616606795229018
1738772457527164400,0.783164306640625,0.0008362325606867671,0.003594202222302556,-0.0030248183757066727
1738772457537155300,0.7931552734375,0.00072597770486027,0.003480751533061266,-0.0018511632224544883
1738772457547146500,0.803146484375,0.0012335762148723006,0.0028767467010766268,0.0002002697146963328
1738772457557137400,0.813137451171875,0.003924966789782047,0.003853061469271779,0.0019116170005872846
1738772457567129300,0.82312939453125,0.001651426195167005,0.00443842401728034,0.0017102820565924048
1738772457577120500,0.83312060546875,0.00088949577184394,0.0036578518338501453,0.0016429040115326643
1738772457587111400,0.843111328125,0.0012191950809210539,0.003962517250329256,0.0006482133758254349
1738772457597102300,0.853102294921875,0.0021145499777048826,0.0048948898911476135,0.0009614011505618691
1738772457607094500,0.863094482421875,0.0005898901727050543,0.004035487771034241,0.0007779093575663865
1738772457617085400,0.87308544921875,0.002579271560534835,0.004841360729187727,-0.001954760169610381
1738772457627076400,0.883076416015625,0.001698830397799611,0.004781972151249647,-0.002237055217847228
1738772457637067500,0.893067626953125,0.003084206720814109,0.004232029430568218,0.00004261057620169595
1738772457647058400,0.903058349609375,0.00039947417099028826,0.003734018187969923,0.0004527373821474612
1738772457657050400,0.91305029296875,0.0014764565275982022,0.002251968951895833,0.0025561018846929073
1738772457667041500,0.92304150390625,0.0016253271605819464,0.002826146548613906,0.0009922938188537955
1738772457677032400,0.933032470703125,0.0014937670202925801,0.004357197787612677,0.0018676748732104897
1738772457687023400,0.9430234375,0.0017275925492867827,0.002572613535448909,0.0015065502375364304
1738772457697015600,0.953015625,-0.0005893575726076961,0.005300489254295826,0.0005872269975952804
1738772457707006500,0.96300634765625,0.0009896307019516826,0.005348159931600094,-0.0004934837343171239
1738772457716997400,0.972997314453125,0.001449025934562087,0.0023435817565768957,-0.00004420847471919842
1738772457726988500,0.982988525390625,0.0007938882918097079,0.00247567449696362,0.0003779025573749095
1738772457736979500,0.9929794921875,0.0025124261155724525,0.0029702235478907824,-0.0005976133397780359
1738772457746971400,1.002971435546875,0.002299106912687421,0.004723649006336927,0.0006106628570705652
1738772457756962600,1.012962646484375,0.001802960061468184,0.00461685610935092,0.000996554852463305
1738772457766953500,1.022953369140625,0.00155288923997432,0.0035475967451930046,0.0005558017292059958
1738772457776944400,1.0329443359375,0.0019323896849527955,0.00401524780318141,0.0006383596919476986
1738772457786935600,1.042935546875,0.0014887070283293724,0.004206462763249874,0.0010434264549985528
1738772457796927500,1.052927490234375,0.0003933488915208727,0.004592621233314276,0.0014554174849763513
1738772457806918400,1.06291845703125,0.0014921691035851836,0.004850415047258139,-0.0006657902849838138
1738772457816909600,1.07290966796875,0.0015073491958901286,0.003768905531615019,-0.0004897553008049726
1738772457826900500,1.082900390625,0.0013976269401609898,0.003829625668004155,-0.0007574030314572155
1738772457836892400,1.092892333984375,0.0023238742724061012,0.003570233704522252,0.0016285229939967394
1738772457846883600,1.102883544921875,-0.0005568669876083732,0.004165183752775192,-0.0007235808880068362
1738772457856874500,1.11287451171875,0.002153431996703148,0.0037579864729195833,0.001508414396084845
1738772457866865400,1.122865478515625,0.002558765234425664,0.0032408006954938173,-0.00015579492901451886
1738772457876856600,1.132856689453125,0.0021521004382520914,0.0037894118577241898,0.0006319681415334344
1738772457886848500,1.1428486328125,0.002141714096069336,0.004338289611041546,0.001990180229768157
1738772457896839400,1.15283935546875,0.0022000374738126993,0.004055994097143412,0.0006908240029588342
1738772457906830600,1.16283056640625,0.0010721886064857244,0.0043867588974535465,0.00008948221511673182
1738772457916821500,1.172821533203125,0.0015329155139625072,0.004426706116646528,0.0011116034584119916
1738772457926812400,1.1828125,0.0015126754296943545,0.004021373111754656,-0.00009720538218971342
1738772457936804600,1.1928046875,0.0012937636347487569,0.003111637430265546,0.0008375641773454845
1738772457946795500,1.20279541015625,0.0012205267557874322,0.0034996599424630404,0.0011078750248998404
1738772457956786400,1.212786376953125,0.0013651363551616669,0.0029313412960618734,0.0009382316493429244
1738772457966777600,1.222777587890625,0.0005667206714861095,0.003999269101768732,0.0006194512825459242
1738772457976769500,1.23276953125,-0.0005427522119134665,0.004988367203623056,0.00009827064059209079
1738772457986760400,1.242760498046875,0.0010657970560714602,0.0046786414459347725,0.0013353090034797788
1738772457996751600,1.252751708984375,0.0018370485631749034,0.003649862250313163,-0.0010631339391693473
1738772458006742500,1.262742431640625,0.0011358382180333138,0.004957740660756826,-0.0014982944121584296
1738772458016733400,1.2727333984375,0.0023252058308571577,0.004079962614923716,-0.0006828344776295125
1738772458026725600,1.2827255859375,0.0033305492252111435,0.0026197514962404966,0.00015206649550236762
1738772458036716500,1.292716552734375,0.0007827030494809151,0.004765726625919342,0.0011946940794587135
1738772458046707500,1.30270751953125,0.001193096162751317,0.005185441114008427,-0.00021278657368384302
1738772458056698600,1.31269873046875,0.002080195117741823,0.004269313532859087,0.00009374327055411413
1738772458066690600,1.322690673828125,0.0013379721203818917,0.004384362138807774,0.0005486111622303724
1738772458076681500,1.332681396484375,0.0003099919413216412,0.0051870387978851795,-0.000258859246969223
1738772458086672600,1.342672607421875,-0.0003810983616858721,0.003087935270741582,-0.0003701793903019279
1738772458096663600,1.35266357421875,0.0016468988033011556,0.0046906257048249245,0.00012197277828818187
1738772458106654500,1.362654541015625,0.0007297061383724213,0.004171042703092098,-0.000699079770129174
1738772458116646700,1.372646728515625,0.0013323795283213258,0.0026525084394961596,-0.0005571332876570523
1738772458126637600,1.382637451171875,0.00185036426410079,0.002993126632645726,0.0011321097845211625
1738772458136628500,1.39262841796875,0.0024796691723167896,0.004400340840220451,0.0014807175612077117
1738772458146619600,1.40261962890625,0.0013821806060150266,0.004797684494405985,0.00021278657368384302
1738772458156610600,1.412610595703125,0.00023089606838766485,0.0035489285364747047,0.00007909588020993397
1738772458166602500,1.4226025390625,0.0022056300658732653,0.0033776871860027313,0.0003134540456812829
1738772458176593700,1.43259375,0.0006463492172770202,0.00484162662178278,-0.001401089015416801
1738772458186584600,1.44258447265625,0.00239231763407588,0.004181162919849157,0.0008671252289786935
1738772458196575500,1.452575439453125,0.0014514228096231818,0.0038192393258213997,0.0002956108655780554
1738772458206566700,1.462566650390625,0.002602973720058799,0.003123888047412038,-0.0007174555794335902
1738772458216558300,1.472558349609375,-0.00005379585491027683,0.004219512455165386,0.0011387676931917667
1738772458226549500,1.482549560546875,0.0026320021133869886,0.0035838158801198006,0.001636246219277382
1738772458236540700,1.492540771484375,0.0006668555433861911,0.003677825443446636,0.0017326525412499905
1738772458246531600,1.502531494140625,0.0009334379574283957,0.003573429537937045,0.000767523015383631
1738772458256523300,1.512523193359375,0.00038988678716123104,0.003251187037676573,-0.00019627496658358723
1738772458266514400,1.522514404296875,0.001279382617212832,0.004291683901101351,0.0006362291751429439
1738772458276505300,1.53250537109375,0.001318264752626419,0.0044022053480148315,-0.0010215885704383254
1738772458286496500,1.54249658203125,0.0006916229031048715,0.0034525219816714525,0.0000351537273672875
1738772458296487700,1.55248779296875,0.00023222764139063656,0.0046416232362389565,0.0009006810723803937
1738772458306479400,1.562479248046875,0.0005496764206327498,0.003762780223041773,0.0019022959750145674
1738772458316470500,1.572470458984375,0.0002109223569277674,0.0023699470330029726,0.0008998821140266955
1738772458326461700,1.582461669921875,-0.000045273736759554595,0.003765443339943886,0.00024474450037814677
1738772458336452600,1.59245263671875,0.0018916432745754719,0.004163586068898439,0.0012202603975310922
1738772458346443800,1.60244384765625,0.001008805469609797,0.003936684690415859,-0.00042530681821517646
1738772458356435700,1.612435791015625,0.001782453735359013,0.004461860284209251,0.0005371595616452396
1738772458366426600,1.622426513671875,0.0026098978705704212,0.004960403777658939,0.00026365293888375163
1738772458376417500,1.63241748046875,-0.00019361180602572858,0.003573695896193385,0.0028032432310283184
1738772458386408700,1.64240869140625,0.0016908409306779504,0.003914846573024988,-0.00039947417099028826
1738772458396399600,1.652399658203125,0.0015707324491813779,0.003983289934694767,0.0000013315805063029984
1738772458406391600,1.6623916015625,0.0002692455891519785,0.0037819549906998873,0.0016471651615574956
1738772458416382700,1.6723828125,0.0000857537888805382,0.004761998075991869,0.0016737966798245907
1738772458426373600,1.68237353515625,0.00007829693640815094,0.003850398352369666,0.00010120012302650139
1738772458436364500,1.692364501953125,0.0014173343079164624,0.003561178920790553,0.0009249158320017159
1738772458446356700,1.702356689453125,-0.0003352919884491712,0.0034730283077806234,0.0012386362068355083
1738772458456347600,1.71234765625,0.0006913566030561924,0.003925765864551067,0.001059405505657196
1738772458466338600,1.722338623046875,0.002636263146996498,0.0046445527113974094,-0.0017891116440296173
1738772458476329700,1.732329833984375,0.0007797735743224621,0.004205131437629461,-0.00012836436508223414
1738772458486320600,1.742320556640625,0.0014298511669039726,0.004180630203336477,0.000180029688635841
1738772458496312600,1.7523125,0.0018836538074538112,0.004893292207270861,-0.0005299690528772771
1738772458506303700,1.7623037109375,0.0024168186355382204,0.003355582943186164,0.0017398431664332747
1738772458516294700,1.772294677734375,0.0014583469601348042,0.0028783443849533796,-0.0007121292874217033
1738772458526285600,1.78228564453125,0.0017033577896654606,0.004712729714810848,0.00033902039285749197
1738772458536276700,1.79227685546875,0.0015701997326686978,0.003328684950247407,-0.00003861583536490798
1738772458546268700,1.8022685546875,0.0015544871566817164,0.004756405483931303,-0.0007504787645302713
1738772458556259600,1.812259521484375,0.0010783139150589705,0.002183259464800358,0.00023036343918647617
1738772458566250800,1.822250732421875,0.00040613205055706203,0.0026322684716433287,-0.0002796319022309035
1738772458576241700,1.83224169921875,-0.00022077605535741895,0.0022860574536025524,0.0005755090969614685
1738772458586232600,1.842232666015625,0.00205276464112103,0.003734284546226263,0.0006221143994480371
1738772458596224800,1.852224853515625,0.001871136948466301,0.003172091208398342,-0.0006061354652047157
1738772458606215700,1.862215576171875,0.002493251347914338,0.0033302828669548035,0.0007286408799700439
1738772458616206600,1.87220654296875,0.0014599448768422008,0.003655987558886409,0.0017859158106148243
1738772458626197800,1.88219775390625,0.002549710450693965,0.004101268015801907,0.0005888249143026769
1738772458636188700,1.892188720703125,0.002296443795785308,0.004533499013632536,-0.001856755930930376
1738772458646180600,1.9021806640625,0.0016596820205450058,0.00299286050722003,-0.00033156355493701994
1738772458656171800,1.912171875,0.0008535431115888059,0.003919640555977821,-0.00063383235828951
1738772458666162700,1.92216259765625,0.00007190534961409867,0.0021675468888133764,0.0005555353709496558
1738772458676153600,1.932153564453125,0.002326537622138858,0.00404480891302228,0.0006386260502040386
1738772458686145800,1.942145751953125,0.00027031084755435586,0.004503405187278986,0.000009054747351910919
1738772458696136700,1.95213671875,0.00162399560213089,0.003979827743023634,0.0028035095892846584
1738772458706127600,1.962127685546875,0.0004695153038483113,0.003620034782215953,-0.00013928332191426307
1738772458716118800,1.972118896484375,0.0019358517602086067,0.003493002150207758,0.0006743124104104936
1738772458726109700,1.982109619140625,0.002112419344484806,0.004246943164616823,-0.0012117383303120732
1738772458736101600,1.9921015625,0.0006237123161554337,0.002965962514281273,-0.0017398431664332747
1738772458746092800,2.0020927734375,0.0008005462004803121,0.003382214577868581,0.0008916263468563557
1738772458756083700,2.012083740234375,0.002572879893705249,0.0037294907961040735,0.0015299860388040543
1738772458766074600,2.02207470703125,0.0013422331539914012,0.004550543148070574,0.0004463458026293665
1738772458776065800,2.032065673828125,0.0008351673022843897,0.003756921272724867,0.00256462418474257
1738772458786057700,2.0420576171875,0.0020266654901206493,0.003629622282460332,0.00048655952559784055
1738772458796048600,2.052048583984375,0.00024048343766480684,0.003765709698200226,-0.0004213120846543461
1738772458806039800,2.062039794921875,0.0013257216196507215,0.0032378712203353643,0.00037950044497847557
1738772458816030700,2.07203076171875,0.001258609932847321,0.004402738064527512,-0.0007302387384697795
1738772458826022700,2.082022705078125,-0.00009986854274757206,0.003742007538676262,0.000928111607208848
1738772458836013800,2.092013916015625,0.0021616879384964705,0.004599811974912882,0.0010021475609391928
1738772458846004700,2.102004638671875,0.0012650014832615852,0.0028367992490530014,0.0012343751732259989
1738772458855995600,2.11199560546875,0.0013614079216495156,0.0035414716694504023,0.00126739835832268
1738772458865986800,2.12198681640625,0.002632800955325365,0.0041614556685090065,0.0008823052630759776
1738772458875978800,2.131978759765625,0.0021979068405926228,0.0038093857001513243,0.0003001382574439049
1738772458885969700,2.1419697265625,0.0013243899447843432,0.005122590344399214,-0.00046392265358008444
1738772458895960800,2.1519609375,0.0005997438565827906,0.002517752582207322,0.00021411814668681473
1738772458905951700,2.16195166015625,0.0006495449924841523,0.003489539958536625,0.000517718493938446
1738772458915942700,2.171942626953125,-0.00033422670094296336,0.004006725735962391,0.0008194546680897474
1738772458925934800,2.181934814453125,0.002083390951156616,0.003479952458292246,-0.00019520970818120986
1738772458935925800,2.19192578125,0.00009507485083304346,0.003766775131225586,0.0013102752855047584
1738772458945916700,2.201916748046875,0.0015358449891209602,0.003591272747144103,-0.0008383630774915218
1738772458955907800,2.211907958984375,0.0003406183095648885,0.0033135050907731056,0.00027324032271280885
1738772458965899800,2.221899658203125,0.0016943031223490834,0.0048855687491595745,-0.0011797803454101086
1738772458975890700,2.231890625,0.0022122878581285477,0.004230164922773838,-0.000215716048842296
1738772458985881900,2.2418818359375,0.0007076018955558538,0.00364666641689837,0.0008892294717952609
1738772458995872800,2.251872802734375,0.0015315839555114508,0.0041670482605695724,0.0013912353897467256
1738772459005863700,2.26186376953125,0.0014037522487342358,0.0029875340405851603,0.00019920444174204022
1738772459015855900,2.27185595703125,-0.00016777914424892515,0.003626692807301879,-0.0007819040911272168
1738772459025846800,2.2818466796875,0.0022453111596405506,0.0038072550669312477,0.0005936186062172055
1738772459035837700,2.291837646484375,0.0011640676530078053,0.0027715517207980156,0.000022903184799361043
1738772459045828900,2.301828857421875,0.0011408982099965215,0.0021552962716668844,0.0004183826094958931
1738772459055820800,2.31182080078125,0.0010197244118899107,0.0032682311721146107,0.0008751147543080151
1738772459065811700,2.321811767578125,0.002098304685205221,0.0040765004232525826,-0.00043116576853208244
1738772459075803000,2.331802978515625,0.0019081549253314734,0.004002198576927185,0.0004468784318305552
1738772459085793800,2.341793701171875,0.0008996158139780164,0.003822967642918229,-0.001597896683961153
1738772459095784700,2.35178466796875,0.003936418332159519,0.005319664254784584,-0.0012620720081031322
1738772459105777000,2.36177685546875,0.0012602078495547175,0.0035489285364747047,0.0005656554130837321
1738772459115767800,2.371767822265625,0.002161954063922167,0.0022173479665070772,-0.000401604687795043
1738772459125758700,2.3817587890625,0.002572613535448909,0.004120708908885717,-0.000026897927455138415
1738772459135750000,2.39175,0.0016335829859599471,0.002834135899320245,-0.0013978932984173298
1738772459145740800,2.40174072265625,0.0017068199813365936,0.00264824740588665,-0.0010996191995218396
1738772459155732700,2.411732666015625,0.0016101471846923232,0.004099137615412474,0.0017699368763715029
1738772459165724000,2.421723876953125,0.0006170544074848294,0.003634682158008218,-0.00035952674807049334
1738772459175714800,2.43171484375,0.0007084008539095521,0.0046480149030685425,0.0014897723449394107
1738772459185705700,2.441705810546875,0.0013251889031380415,0.00436065997928381,-0.0008412926108576357
1738772459195697700,2.45169775390625,0.0034117756877094507,0.003774764481931925,0.0007036071619950235
1738772459205688800,2.461688720703125,0.0018540926976129413,0.003713778220117092,0.0007028082036413252
1738772459215679700,2.4716796875,0.000556600687559694,0.003278617514297366,-0.0009456885163672268
1738772459225671000,2.4816708984375,0.0005464806454256177,0.004218979738652706,0.0004450142150744796
1738772459235661800,2.491661865234375,-0.000029827404432580806,0.004321511369198561,0.0012958941515535116
1738772459245653500,2.501653564453125,0.0010673949727788568,0.0027172232512384653,0.00036698358599096537
1738772459255644700,2.511644775390625,0.001445830101147294,0.004883704707026482,-0.0007041397620923817
1738772459265635800,2.5216357421875,0.0008860336965881288,0.004265584982931614,-0.0004830974212381989
1738772459275626800,2.531626708984375,0.0026351979468017817,0.003896737238392234,0.00007829693640815094
1738772459285618000,2.541617919921875,0.0027020431589335203,0.003379018744453788,-0.0010338390711694956
1738772459295609600,2.551609619140625,0.0017928400775417686,0.003991013392806053,0.0013451626291498542
1738772459305600800,2.561600830078125,0.001386175281368196,0.004547081422060728,-0.00037230990710668266
1738772459315592000,2.571592041015625,0.001116130850277841,0.004771851934492588,-0.00014567491598427296
1738772459325582300,2.581582275390625,0.0009760485263541341,0.003229881636798382,-0.00018961707246489823
1738772459335574300,2.59157421875,0.0012330436147749424,0.004643221385776997,-0.0008527441532351077
1738772459345565400,2.6015654296875,0.0012743226252496243,0.0036133769899606705,-0.0007017429452389479
1738772459355556600,2.611556640625,0.0011134676169604063,0.003727892879396677,0.0005803027888759971
1738772459365547500,2.621547607421875,0.0002713761059567332,0.00424214918166399,-0.0006916229031048715
1738772459375538400,2.631538330078125,-0.0002969424531329423,0.00213558878749609,-0.0004897553008049726
1738772459385530400,2.6415302734375,0.001460743835195899,0.0035092474427074194,-0.00042743736412376165
1738772459395521300,2.651521240234375,0.0009366337326355278,0.005113535560667515,0.0002772350562736392
1738772459405512400,2.661512451171875,0.0011906992876902223,0.003376888344064355,0.0013638047967106104
1738772459415503400,2.67150341796875,0.002240517409518361,0.0032581111881881952,0.00006151902198325843
1738772459425494500,2.68149462890625,0.0014301175251603127,0.002980876248329878,0.0015792545164003968
1738772459435486200,2.691486328125,0.0016474314033985138,0.0036248285323381424,0.0009598032338544726
1738772459445477400,2.701477294921875,0.003085272153839469,0.00475427508354187,0.0001608549355296418
1738772459455468500,2.711468505859375,0.0018128136871382594,0.005494633689522743,-0.00021278657368384302
1738772459465459500,2.72145947265625,0.002049568807706237,0.005564675200730562,0.00039601203752681613
1738772459475451400,2.731451416015625,0.0022945795208215714,0.003403519745916128,0.001014664419926703
1738772459485442300,2.7414423828125,0.001919340225867927,0.0028900622855871916,-0.0006476807757280767
1738772459495433200,2.75143310546875,0.001181644620373845,0.004978779703378677,-0.0005744438385590911
1738772459505424400,2.76142431640625,0.0009060074225999415,0.004878911189734936,-0.0006135923322290182
1738772459515415600,2.77141552734375,0.0012697952333837748,0.003555586328729987,-0.00070493872044608
1738772459525407200,2.7814072265625,-0.0009339706157334149,0.0049766493029892445,0.001383512164466083
1738772459535398400,2.7913984375,0.002121740486472845,0.005063468124717474,-0.0006572681595571339
1738772459545389300,2.801389404296875,0.0008809737046249211,0.002537726191803813,0.0006548712844960392
1738772459555380200,2.811380126953125,0.0010988202411681414,0.001788312685675919,0.0013480921043083072
1738772459565371400,2.821371337890625,0.0014335796004161239,0.004603007808327675,0.0007246461464092135
1738772459575363300,2.83136328125,0.00048389637959189713,0.0049100699834525585,0.000966993800830096
1738772459585354200,2.841354248046875,-0.0019062906503677368,0.0038986015133559704,-0.0002796319022309035
1738772459595345400,2.851345458984375,0.0008293083519674838,0.0043838294222950935,0.0006213154993019998
1738772459605336300,2.86133642578125,0.002108957152813673,0.0031158984638750553,-0.0009978864109143615
1738772459615328300,2.871328369140625,0.001047421246767044,0.003329217666760087,0.0017006946727633476
1738772459625319400,2.8813193359375,0.001064998097717762,0.004363855812698603,-0.00007270430069183931
1738772459635310300,2.891310302734375,0.001472461735829711,0.0029025792609900236,-0.0002897519152611494
1738772459645301200,2.90130126953125,0.001537709147669375,0.004853344522416592,0.00010386328358436003
1738772459655292200,2.911292236328125,0.0017805894603952765,0.005160407163202763,0.0021670141723006964
1738772459665284400,2.921284423828125,0.0013928331900388002,0.004601676017045975,-0.0004319647268857807
1738772459675275300,2.931275146484375,0.0007547398563474417,0.002928145695477724,0.0013627394801005721
1738772459685266400,2.941266357421875,0.001856489572674036,0.004446147475391626,0.00013688647595699877
1738772459695257300,2.95125732421875,0.0019891150295734406,0.003631752682849765,-0.0011440940434113145
1738772459705248300,2.961248291015625,0.0016871124971657991,0.0046448190696537495,0.0015100123127922416
1738772459715240400,2.971240478515625,0.0009108011145144701,0.0035057852510362864,0.001437308033928275
1738772459725231400,2.9812314453125,0.0022146848496049643,0.0035603800788521767,0.002055694116279483
1738772459735222300,2.99122216796875,0.0009230516152456403,0.002369148191064596,0.0010615360224619508
1738772459745213200,3.001213134765625,0.0016325177857652307,0.00415346585214138,0.0018530274974182248
1738772459755205400,3.011205322265625,0.0006631271098740399,0.0039854203350842,0.000031425301131093875
1738772459765196300,3.0211962890625,0.0007414240390062332,0.0038216360844671726,-0.0019504991360008717
1738772459775187500,3.0311875,0.001336107961833477,0.003991545643657446,-0.000371777277905494
1738772459785178400,3.041178466796875,0.0014506238512694836,0.0027214842848479748,-0.000636495475191623
1738772459795169300,3.051169189453125,0.0015315839555114508,0.0031590417493134737,0.0010317085543647408
1738772459805161500,3.061161376953125,0.0014138722326606512,0.0040887510403990746,0.00016325176693499088
1738772459815152400,3.07115234375,0.003014165675267577,0.004232561681419611,-0.0010130665032193065
1738772459825143300,3.081143310546875,0.002067944500595331,0.0023225427139550447,-0.000035420041967881843
1738772459835134200,3.09113427734375,0.00044048685231246054,0.0030186930671334267,0.0004756405542138964
1738772459845125400,3.10112548828125,0.0018136126454919577,0.004337756894528866,-0.0014655375853180885
1738772459855117300,3.111117431640625,0.0012996225850656629,0.003763312939554453,0.001341966912150383
1738772459865108500,3.1211083984375,0.0019121496006846428,0.0031965922098606825,0.0001328917423961684
1738772459875099400,3.131099365234375,-0.0003336940717417747,0.0030839405953884125,0.00033422670094296336
1738772459885090300,3.14109033203125,0.0009976201690733433,0.0038903458043932915,0.0004852279380429536
1738772459895081200,3.151081298828125,0.001525991247035563,0.0034738273825496435,0.00013848437811248004
1738772459905073400,3.161073486328125,0.000806138850748539,0.003453587181866169,0.0006498112925328314
1738772459915064300,3.171064208984375,0.0016700683627277613,0.004547613672912121,-0.00008442220860160887
1738772459925055200,3.18105517578125,0.0008436894277110696,0.003495931625366211,0.0013859090395271778
1738772459935046400,3.19104638671875,-0.0011707255616784096,0.004224305972456932,0.0019403791520744562
1738772459945038300,3.201038330078125,0.0020932445768266916,0.004081560764461756,-0.00018642126815393567
1738772459955029500,3.211029541015625,0.0011867046123370528,0.0034314829390496016,-0.0009768474847078323
1738772459965020400,3.2210205078125,0.00024474450037814677,0.003954261541366577,-0.00030413299100473523
1738772459975011300,3.23101123046875,0.0005376922199502587,0.003665042342618108,-0.0015667376574128866
1738772459985002200,3.241002197265625,0.002853044541552663,0.004252802114933729,-0.00019467707898002118
1738772459994994400,3.250994384765625,0.0031076427549123764,0.0047148605808615685,0.00005459480235003866
1738772460004985300,3.2609853515625,0.002049835165962577,0.004307663068175316,-0.0015662050573155284
1738772460014976300,3.270976318359375,0.000809068325906992,0.004364654887467623,0.0009984191274270415
1738772460024967400,3.280967529296875,0.0004324973560869694,0.004799282643944025,0.002439721953123808
1738772460034958300,3.290958251953125,0.00022264027211349458,0.00321869645267725,0.00019893812714144588
1738772460044950500,3.300950439453125,0.0004934837343171239,0.00398755120113492,0.0020189424976706505
1738772460054941400,3.31094140625,0.0020692760590463877,0.0031443943735212088,-0.000737695605494082
1738772460064932400,3.320932373046875,0.0015635418239980936,0.003959854133427143,-0.0000881506348378025
1738772460074923300,3.33092333984375,0.001234641415067017,0.0035121769178658724,-0.0005499427788890898
1738772460084914400,3.34091455078125,0.0005661880713887513,0.004378503188490868,-0.0011385013349354267
1738772460094906400,3.35090625,0.0009528790251351893,0.0046301716938614845,-0.0010104032699018717
1738772460104897300,3.360897216796875,0.002019474981352687,0.00424161646515131,0.0014732606941834092
1738772460114888400,3.370888427734375,0.0006290386663749814,0.00538357999175787,0.0005456816870719194
1738772460124879400,3.38087939453125,0.0012415656819939613,0.0037859496660530567,0.0024522386956959963
1738772460134871600,3.39087158203125,0.0008881642133928835,0.0032024511601775885,0.0010996191995218396
1738772460144862500,3.400862548828125,-0.0009012137306854129,0.0029204224701970816,-0.0009779128013178706
1738772460154853400,3.410853271484375,0.0004191815387457609,0.003653058083727956,0.0005973470397293568
1738772460164844300,3.42084423828125,0.001814944320358336,0.004147873260080814,-0.0021345235873013735
1738772460174835500,3.43083544921875,0.0018189389957115054,0.00520727876573801,-0.0005632585380226374
1738772460184827400,3.440827392578125,0.0026170883793383837,0.004176635295152664,-0.0006668555433861911
1738772460194818600,3.450818603515625,0.00033662354690022767,0.004319913685321808,0.00023036343918647617
1738772460204809500,3.4608095703125,-0.0001882854849100113,0.003739610780030489,0.002570749493315816
1738772460214800400,3.47080029296875,0.0020511667244136333,0.004777710884809494,0.002406432293355465
1738772460224791300,3.480791259765625,0.002365153282880783,0.002609365154057741,0.00025539714260958135
1738772460234783500,3.490783447265625,0.0017214673571288586,0.004254399798810482,-0.00016058860637713224
1738772460244774400,3.5007744140625,0.001350488979369402,0.003811516100540757,-0.0008186557097360492
1738772460254765300,3.510765380859375,0.0020189424976706505,0.0032778186723589897,-0.0021848573815077543
1738772460264756500,3.520756591796875,0.0009526127250865102,0.003810983384028077,0.0019116170005872846
1738772460274747400,3.530747314453125,0.0021811288315802813,0.0023366576060652733,-0.0003478088474366814
1738772460284739600,3.540739501953125,0.0001395496365148574,0.0036155073903501034,0.001749164192005992
1738772460294730500,3.55073046875,0.0010381002211943269,0.0040852888487279415,0.0015004249289631844
1738772460304721400,3.560721435546875,0.0010375675046816468,0.0032732912804931402,-0.00017070861940737814
1738772460314712300,3.57071240234375,0.0002359560749027878,0.003290335414931178,0.0018093516118824482
1738772460324705000,3.580705078125,0.0015297196805477142,0.0031276163645088673,-0.0009118663729168475
1738772460334696000,3.590696044921875,0.0008005462004803121,0.0030011162161827087,0.0004037352045997977
1738772460344687000,3.60068701171875,0.0005627259379252791,0.004005660768598318,-0.0007121292874217033
1738772460354678300,3.61067822265625,0.0014516890514642,0.004992095287889242,0.0008468852029182017
1738772460364669200,3.620669189453125,0.000006924218723725062,0.002359560690820217,-0.00019494339358061552
1738772460374660900,3.630660888671875,0.0013187973527237773,0.003975566942244768,0.0010604707058519125
1738772460384652000,3.640652099609375,0.0011225224006921053,0.004125502891838551,0.0005898901727050543
1738772460394643000,3.650642822265625,0.001413073274306953,0.005251487251371145,0.0015017564874142408
1738772460404634000,3.660634033203125,0.0019113506423309445,0.0038067223504185677,0.0001816275907913223
1738772460414625300,3.670625244140625,0.0017840516520664096,0.003951332066208124,-0.00047111319145187736
1738772460424617000,3.680616943359375,0.0007390272221527994,0.00433029979467392,-0.000865793670527637
1738772460434607900,3.69060791015625,0.0012796488590538502,0.0034551850985735655,-0.0017230651574209332
1738772460444599000,3.70059912109375,0.0017473000334575772,0.004974252078682184,-0.0008058725506998599
1738772460454590200,3.710590087890625,0.0018005631864070892,0.004525243304669857,0.0014687333023175597
1738772460464581000,3.7205810546875,0.0031814121175557375,0.0028839372098445892,0.0005376922199502587
1738772460474573000,3.730572998046875,0.00039281626231968403,0.0034613104071468115,-0.00009507485083304346
1738772460484564000,3.74056396484375,0.0006050702068023384,0.0032080437522381544,0.002115348819643259
1738772460494555000,3.750554931640625,0.0013235911028459668,0.0036218990571796894,0.0001651159836910665
1738772460504546000,3.760546142578125,0.002377670258283615,0.003020290983840823,-0.0018583538476377726
1738772460514537200,3.770537109375,0.0034727619495242834,0.003721501212567091,-0.0012381036067381501
1738772460524529000,3.78052880859375,0.0023196132387965918,0.003038400551304221,-0.0008274441352114081
1738772460534520000,3.79052001953125,0.000601075473241508,0.005145227070897818,0.00011398329661460593
1738772460544511000,3.800510986328125,0.002204830991104245,0.0043473439291119576,0.00036245622322894633
1738772460554502000,3.810501953125,0.0020908478181809187,0.0038338867016136646,0.0008101335843093693
1738772460564493000,3.8204931640625,0.0012687299167737365,0.0041305627673864365,0.0015486282063648105
1738772460574485000,3.830485107421875,0.00205223192460835,0.003028813051059842,0.0015060176374390721
1738772460584476000,3.840475830078125,0.000773381965700537,0.005568669643253088,-0.001133441342972219
1738772460594467000,3.850467041015625,0.002020540414378047,0.0038461373187601566,-0.00006258428766159341
1738772460604458000,3.8604580078125,0.0005661880713887513,0.005145759787410498,-0.0005094627267681062
1738772460614450000,3.870449951171875,0.0007262440049089491,0.004435760900378227,-0.0020876519847661257
1738772460624441000,3.880441162109375,0.0007909588166512549,0.005209675524383783,0.00017470336752012372
1738772460634432000,3.890431884765625,0.0009353021741844714,0.0021281319204717875,0.000017843178284238093
1738772460644423000,3.9004228515625,0.0002873550693038851,0.003915112931281328,0.0008173241512849927
1738772460654414000,3.9104140625,0.0009992180857807398,0.0044072652235627174,0.0023257385473698378
1738772460664406000,3.920406005859375,0.0012210593558847904,0.002558232517912984,0.00133877107873559
1738772460674397000,3.93039697265625,0.0013046825770288706,0.003299922915175557,-0.0008282430935651064
1738772460688135200,3.94413525390625,0.0018519621808081865,0.004916728008538485,-0.0016133430181071162
1738772460698126000,3.9541259765625,0.0019172097090631723,0.0037414750549942255,-0.0009616674506105483
1738772460708117000,3.964116943359375,-0.00007270430069183931,0.0035127094015479088,0.0009078715811483562
1738772460718109200,3.974109130859375,0.0007997472421266139,0.0028546424582600594,-0.0002860235108528286
1738772460728100000,3.98410009765625,0.0011925635626539588,0.0049675945192575455,-0.0009736517095007002
1738772460738091000,3.994091064453125,0.0010716560063883662,0.003168096300214529,0.0010836402652785182
1738772460748082200,4.004082275390625,0.002758502261713147,0.0049646650440990925,0.0013978932984173298
1738772460758073000,4.014072998046875,0.001035436987876892,0.003879426745697856,-0.00047404266661033034
1738772460768065000,4.02406494140625,0.0019379822770133615,0.004029628820717335,-0.000014381069377122913
1738772460778056200,4.03405615234375,0.002323075430467725,0.002731071785092354,-0.0013222594279795885
1738772460788047000,4.044047119140625,0.0010692591313272715,0.004385161213576794,-0.0011859056539833546
1738772460798038000,4.0540380859375,0.002025866648182273,0.002936135046184063,-0.00037736992817372084
1738772460808029200,4.064029296875,0.002466619713231921,0.004287689458578825,-0.0012460930738598108
1738772460818021000,4.074021240234375,0.0014447649009525776,0.0035294874105602503,0.00012676646292675287
1738772460828012000,4.084011962890625,0.00005725796290789731,0.0035198999103158712,-0.0004985437262803316
1738772460838003200,4.094003173828125,0.00027803401462733746,0.004246144089847803,0.0005946838646195829
1738772460847994000,4.103994140625,0.0013819142477586865,0.0044136568903923035,0.0007060039788484573
1738772460857985000,4.113985107421875,0.0016706009628251195,0.0035265579354017973,0.0007552724564447999
1738772460867977200,4.123977294921875,0.0012937636347487569,0.0047090016305446625,0.00019094864546786994
1738772460877968100,4.133968017578125,0.000544350128620863,0.004204332362860441,0.001142229768447578
1738772460887959000,4.143958984375,0.0024580976460129023,0.004650145769119263,-0.00044341632747091353
1738772460897950200,4.1539501953125,0.0037787591572850943,0.004177700728178024,-0.0002407497668173164
1738772460907941000,4.163941162109375,0.0007787083159200847,0.003913515247404575,0.0020591560751199722
1738772460917933000,4.17393310546875,0.000758734589908272,0.002927080262452364,-0.00032650353386998177
1738772460927924200,4.18392431640625,0.0015195996966212988,0.0036458675749599934,0.0005635248962789774
1738772460937915100,4.1939150390625,0.0028796761762350798,0.004253600724041462,-0.0014258564915508032
1738772460947906000,4.203906005859375,0.0015270565636456013,0.004734035115689039,0.0013765880139544606
1738772460957897200,4.213897216796875,0.0009374326909892261,0.005311941262334585,0.0013789847726002336
1738772460967889200,4.22388916015625,-0.00224903947673738,0.005054946057498455,0.002035187790170312
1738772460977880000,4.233880126953125,0.00207699928432703,0.004244545940309763,0.0027840686962008476
1738772460987871200,4.243871337890625,0.0020213392563164234,0.004314054735004902,-0.00041864890954457223
1738772460997862100,4.253862060546875,0.00031798143754713237,0.005291967187076807,-0.0007241134881041944
1738772461007853000,4.26385302734375,0.000434361572843045,0.0032487902790308,-0.0011004181578755379
1738772461017845200,4.27384521484375,-0.00007084008393576369,0.005319664254784584,-0.0030429279431700706
1738772461027836200,4.283836181640625,0.002410160843282938,0.003486610483378172,-0.0012508867075666785
1738772461037827000,4.2938271484375,0.0029089709278196096,0.0044104610569775105,0.0011683288030326366
1738772461047818200,4.303818359375,-0.0002109223569277674,0.004974252078682184,0.001499625970609486
1738772461057810200,4.31381005859375,0.0004900216590613127,0.003425091505050659,0.003916178364306688
1738772461067801000,4.323801025390625,0.0009435579413548112,0.0029643645975738764,0.0020876519847661257
1738772461077792300,4.333792236328125,0.0017214673571288586,0.0038274950347840786,0.0007709851488471031
1738772461087783200,4.343783203125,0.00047590688336640596,0.0036730316933244467,0.0010841728653758764
1738772461097774000,4.353774169921875,0.0002442118711769581,0.004318581894040108,-0.003242664970457554
1738772461107766300,4.363766357421875,0.0014583469601348042,0.005587844643741846,-0.0031369375064969063
1738772461117757200,4.373757080078125,0.0013646037550643086,0.004063717555254698,0.005968144163489342
1738772461127748000,4.383748046875,-0.0004924184759147465,0.003153715282678604,0.0051596080884337425
1738772461137739300,4.3937392578125,0.0015419702976942062,0.003620567498728633,-0.00023462448734790087
1738772461147730200,4.403730224609375,0.002033855998888612,0.003674363251775503,-0.004200603812932968
1738772461157722000,4.41372216796875,0.0025739450938999653,0.004614725708961487,-0.0038658445701003075
1738772461167713300,4.42371337890625,0.001817341079004109,0.004156395327299833,-0.0028365328907966614
1738772461177704200,4.4337041015625,0.0005169195355847478,0.0029883331153541803,0.003905259305611253
1738772461187695000,4.443695068359375,-0.001698564155958593,0.003240001853555441,0.009369000792503357
1738772461197686300,4.453686279296875,0.0003352919884491712,0.0038450718857347965,0.007870440371334553
1738772461207678000,4.463677978515625,0.0022130869328975677,0.0037710361648350954,0.0037294907961040735
1738772461217669000,4.473669189453125,0.00046046054922044277,0.003757187630981207,0.00006657902849838138
1738772461227660300,4.483660400390625,0.0004492752777878195,0.0018852517241612077,-0.0052107409574091434
1738772461237651200,4.493651123046875,0.002663161139935255,0.005461610853672028,-0.0070555126294493675
1738772461247642000,4.50364208984375,0.0008817726047709584,0.004454669542610645,-0.005790777504444122
1738772461257634000,4.513634033203125,0.00014381069922819734,0.004706604406237602,-0.007512244861572981
1738772461267625200,4.523625244140625,0.0034589136485010386,0.0034911378752440214,0.001612277701497078
1738772461277616000,4.5336162109375,0.003989681601524353,0.004979312419891357,0.007157777901738882
1738772461287607300,4.543607177734375,0.0007073355955071747,0.0040943436324596405,0.0091732582077384
1738772461297598200,4.55359814453125,0.0022367890924215317,0.003031476167961955,0.0065324679017066956
1738772461307590000,4.56358984375,0.0014242585748434067,0.003704457078129053,0.001989913871511817
1738772461317581000,4.5735810546875,0.0011432950850576162,0.0038599856197834015,-0.00037044569035060704
1738772461327572200,4.583572265625,0.001805623178370297,0.004347876645624638,-0.002606435678899288
1738772461337563400,4.5935634765625,0.0013733921805396676,0.005283178761601448,-0.005059739574790001
1738772461347555000,4.60355517578125,0.001255946815945208,0.0041372207924723625,-0.007996140979230404
1738772461357546200,4.613546142578125,0.0020365193486213684,0.004534830804914236,-0.004530835896730423
1738772461367537200,4.623537109375,0.0017539578257128596,0.00404667342081666,-0.0010913633741438389
1738772461377528000,4.633528076171875,-0.0008615325787104666,0.0037862160243093967,0.005781722720712423
1738772461387519200,4.643519287109375,0.001091629732400179,0.0035545211285352707,0.00401657959446311
1738772461397511200,4.65351123046875,0.0013877731980755925,0.0023555660154670477,0.004478371702134609
1738772461407502000,4.663502197265625,0.0008306399104185402,0.003786748740822077,0.003736681304872036
1738772461417493200,4.6734931640625,0.0004665858286898583,0.003989681601524353,-0.000031158982892520726
1738772461427484200,4.683484130859375,0.0001739044237183407,0.00216514989733696,-0.002901514060795307
1738772461437475300,4.693475341796875,0.0031201594974845648,0.0035300198942422867,-0.0031465247739106417
1738772461447467300,4.70346728515625,0.0018130800453945994,0.005084507167339325,-0.0027861990965902805
1738772461457458200,4.713458251953125,0.0011680624447762966,0.003632285399362445,-0.003038400551304221
1738772461467449000,4.723448974609375,0.0006234460161067545,0.004713262431323528,-0.0012314456980675459
1738772461477440300,4.733440185546875,-0.001208009896799922,0.005175853613764048,0.0006772418855689466
1738772461487431200,4.74343115234375,0.0022482406347990036,0.004983573220670223,0.002082858234643936
1738772461497423000,4.753423095703125,0.0013065468519926071,0.004058124963194132,0.0042719766497612
1738772461507414300,4.763414306640625,0.0015278555219992995,0.003370496677234769,0.003805390791967511
1738772461517405200,4.7734052734375,0.0025044367648661137,0.00344479875639081,0.004676776938140392
1738772461527396000,4.78339599609375,-0.00003808320252574049,0.0032024511601775885,0.002926813904196024
1738772461537387300,4.79338720703125,0.00256462418474257,0.0027414578944444656,-0.001335841603577137
1738772461547379200,4.803379150390625,0.0026434536557644606,0.004207261838018894,-0.0041396175511181355
1738772461557370000,4.8133701171875,0.002294047037139535,0.004532434046268463,-0.005560413934290409
1738772461567361300,4.823361328125,0.001514539704658091,0.0046658581122756,-0.005358280148357153
1738772461577352200,4.833352294921875,0.0022011026740074158,0.0037611823063343763,-0.0024881914723664522
1738772461587344100,4.84334423828125,-0.0002745719102676958,0.0027316042687743902,0.002395513467490673
1738772461597335300,4.853335205078125,0.0002061286650132388,0.003943875432014465,0.006773750297725201
1738772461607326200,4.863326171875,0.0012242551892995834,0.003710316028445959,0.006208893842995167
1738772461617317000,4.873317138671875,0.0020575581584125757,0.004523645620793104,0.004923386033624411
1738772461627308300,4.883308349609375,0.001615473534911871,0.004159857518970966,0.0016189356101676822
1738772461637300200,4.89330029296875,0.002305764937773347,0.0032314795535057783,-0.0009973538108170033
1738772461647291100,4.903291015625,0.001961684552952647,0.0028362665325403214,-0.005408081226050854
1738772461657282300,4.9132822265625,0.0013760552974417806,0.0036477316170930862,-0.0060325926169753075
1738772461667273200,4.923273193359375,0.0015278555219992995,0.004273840691894293,-0.003400324145331979
1738772461677264100,4.93326416015625,0.002229332225397229,0.003850131994113326,-0.0011704593198373914
1738772461687256300,4.94325634765625,0.00015153386630117893,0.0036338833160698414,0.0022572954185307026
1738772461697247200,4.953247314453125,0.000809068325906992,0.004406466148793697,0.006069610361009836
1738772461707238100,4.963238037109375,0.0011163970921188593,0.0033185649663209915,0.004503138829022646
1738772461717229300,4.973229248046875,0.002374208066612482,0.002620816696435213,0.0044259075075387955
1738772461727220200,4.98322021484375,0.0019478360190987587,0.003750795964151621,0.000740625080652535
1738772461737212200,4.993212158203125,0.0017627463676035404,0.005575860384851694,-0.000618918624240905
1738772461747203300,5.003203369140625,0.00115394766908139,0.004304200876504183,-0.004078631289303303
1738772461757194200,5.0131943359375,0.0011195929255336523,0.00390339526347816,-0.005045092198997736
1738772461767185200,5.02318505859375,0.001986984396353364,0.003418699838221073,-0.0032890038564801216
1738772461777176000,5.033176025390625,0.0012463594321161509,0.004540689755231142,-0.0018884475575760007
1738772461787168300,5.043168212890625,0.0014021543320268393,0.003992877434939146,0.0013590110465884209
1738772461797159200,5.0531591796875,0.0017688715597614646,0.0043987431563436985,0.002383795566856861
1738772461807150300,5.063150390625,-0.0005062668933533132,0.003585680155083537,0.004012584686279297
1738772461817141200,5.073141357421875,-0.00022849922243040055,0.005310343112796545,0.001975532853975892
1738772461827132200,5.083132080078125,0.0024290692526847124,0.0036756948102265596,0.0017321199411526322
1738772461837124400,5.093124267578125,0.0013305152533575892,0.003572630463168025,-0.0002061286650132388
1738772461847115300,5.103115234375,0.0012839100090786815,0.005804093088954687,-0.001954760169610381
1738772461857106200,5.113106201171875,0.0005499427788890898,0.0034266894217580557,-0.0033803503029048443
1738772461867097000,5.12309716796875,0.0013307816116139293,0.0046354979276657104,-0.0020873856265097857
1738772461877088300,5.133088134765625,0.0007563377148471773,0.004186489153653383,-0.0014165353495627642
1738772461887080200,5.143080078125,0.002703907433897257,0.002916161436587572,0.0016431703697890043
1738772461897071400,5.1530712890625,-0.00023435817274730653,0.0029734193813055754,0.002418416552245617
1738772461907062300,5.163062255859375,0.0009270463488064706,0.0036282907240092754,0.003937750123441219
1738772461917053200,5.17305322265625,0.0007872303831391037,0.00344559783115983,0.0016231966437771916
1738772461927045400,5.18304541015625,0.0023366576060652733,0.003515905234962702,0.0012261193478479981
1738772461937036300,5.193036376953125,0.0027976506389677525,0.005031510256230831,0.0008713863207958639
1738772461947027200,5.203027099609375,0.0015534218400716782,0.0035920715890824795,-0.0024458470288664103
1738772461957018000,5.21301806640625,0.00021731393644586205,0.005323392804712057,-0.0029206888284534216
1738772461967009300,5.22300927734375,0.002716158051043749,0.003997937310487032,-0.0021662150975316763
1738772461977001200,5.233001220703125,0.0012871057260781527,0.005618737079203129,0.0010498181218281388
1738772461986992400,5.242992431640625,0.0033830134198069572,0.0032445292454212904,0.001449292292818427
1738772461996983300,5.2529833984375,-0.0001304948964389041,0.0033920682035386562,0.0022714100778102875
1738772462006974200,5.26297412109375,0.0022338596172630787,0.0036101811565458775,0.0022927154786884785
1738772462016965000,5.272965087890625,0.003614442190155387,0.003044259501621127,0.0012428972404450178
1738772462026957300,5.282957275390625,0.0023222763556987047,0.0037864823825657368,-0.00043223105603829026
1738772462036948200,5.2929482421875,0.0012522183824330568,0.0031041805632412434,0.0001512675517005846
1738772462046939400,5.302939453125,0.0013659353135153651,0.0033076461404561996,-0.00152306177187711
1738772462056930300,5.312930419921875,0.0005097290268167853,0.0033305492252111435,-0.0012247877893969417
1738772462066921200,5.322921142578125,0.0023545008152723312,0.0032655680552124977,-0.0009592706337571144
1738772462076913400,5.332913330078125,0.0013137373607605696,0.004883438348770142,-0.000287088769255206
1738772462086904300,5.342904296875,0.001258343574590981,0.0027273432351648808,0.00086872314568609
1738772462096895200,5.352895263671875,0.0022397185675799847,0.004354801028966904,0.0010463559301570058
1738772462106886100,5.36288623046875,0.0010839065071195364,0.004880775231868029,0.0014596786350011826
1738772462116877300,5.372877197265625,0.0003502056933939457,0.0032796829473227262,0.0007619303651154041
1738772462126869200,5.382869140625,0.0008367652189917862,0.0036770266015082598,-0.0007366303470917046
1738772462136860400,5.3928603515625,0.0005198490689508617,0.00418382603675127,-0.0010317085543647408
1738772462146851300,5.402851318359375,-0.0011507519520819187,0.002448510378599167,-0.0012218583142384887
1738772462156842200,5.41284228515625,0.001764077926054597,0.003457582090049982,-0.000075101139373146
1738772462166833200,5.422833251953125,0.0010021475609391928,0.0022887205705046654,0.0006362291751429439
1738772462176825300,5.432825439453125,0.0010178601369261742,0.004276504274457693,0.0008042746339924634
1738772462186816300,5.442816162109375,-0.00025060345069505274,0.0038000645581632853,0.0000013315805063029984
1738772462196807200,5.45280712890625,0.002784601179882884,0.004449343308806419,-0.0019680759869515896
1738772462206798300,5.46279833984375,0.0002300971100339666,0.004354534670710564,-0.002788063371554017
1738772462216789200,5.472789306640625,0.00101120222825557,0.004004328977316618,-0.0004830974212381989
1738772462226781400,5.482781494140625,0.0031292142812162638,0.0022945795208215714,0.0005605954211205244
1738772462236772400,5.4927724609375,-0.0004141215467825532,0.002379534300416708,0.0007595335482619703
1738772462246763300,5.50276318359375,0.00133877107873559,0.0026407905388623476,0.0010809770319610834
1738772462256754200,5.512754150390625,0.002909237053245306,0.004738296382129192,0.0007486145477741957
1738772462266745300,5.522745361328125,0.0012839100090786815,0.003573163179680705,0.0005640574963763356
1738772462276737300,5.5327373046875,0.0004767058417201042,0.0035606464371085167,-0.0010434264549985528
1738772462286728200,5.542728271484375,0.0017744642682373524,0.004357197787612677,0.000648479734081775
1738772462296719400,5.55271923828125,0.0015164038632065058,0.0044200485572218895,-0.0005941512063145638
1738772462306710300,5.562710205078125,0.001341700553894043,0.0049188584089279175,0.00004394215648062527
1738772462316701200,5.572701171875,0.0018410432385280728,0.00478410255163908,0.0001579254458192736
1738772462326692900,5.58269287109375,0.0004442152567207813,0.0031435952987521887,0.000003462109361862531
1738772462336683800,5.592683837890625,0.002891926560550928,0.0033782199025154114,-0.00024208133982028812
1738772462346674700,5.6026748046875,0.0014421016676351428,0.004041346721351147,0.0028567728586494923
1738772462356665900,5.612665771484375,0.001856755930930376,0.003704723436385393,0.0004005394293926656
1738772462366656800,5.62265673828125,0.000143544384627603,0.00392736354842782,-0.00013608753215521574
1738772462376648700,5.632648681640625,0.00101146858651191,0.0046629286371171474,-0.0008942894637584686
1738772462386640000,5.642639892578125,0.0015486282063648105,0.0019528960110619664,-0.0015896408585831523
1738772462396630800,5.652630859375,0.0007821703911758959,0.003745203372091055,0.0011028150329366326
1738772462406621700,5.66262158203125,0.0017632789677008986,0.004728975240141153,-0.0019156117923557758
1738772462416612900,5.67261279296875,0.0021310613956302404,0.0038607846945524216,0.0014820491196587682
1738772462426604800,5.682604736328125,0.0009262474486604333,0.0030013825744390488,-0.00005885586142539978
1738772462436595700,5.692595703125,0.0011731224367395043,0.005459479987621307,-0.0001382180635118857
1738772462446587000,5.7025869140625,0.0006585997180081904,0.004086886998265982,0.0016162724932655692
1738772462456577800,5.712577880859375,0.0017004283145070076,0.004434163216501474,0.001020257011987269
1738772462466568700,5.722568603515625,0.002222141483798623,0.0037950044497847557,0.0005850964807905257
1738772462476561000,5.732560791015625,0.001306014135479927,0.004180363845080137,0.000182959163794294
1738772462486551800,5.7425517578125,0.0001978728687390685,0.003528422210365534,-0.000005060006060375599
1738772462496542700,5.752542724609375,0.0029028456192463636,0.005030977539718151,-0.0025350630749017
1738772462506534000,5.762533935546875,0.0013076120521873236,0.003320695599541068,-0.000898550555575639
1738772462516524800,5.77252490234375,0.0022498385515064,0.0034815503749996424,0.00022184131375979632
1738772462526516700,5.782516845703125,0.001148355077020824,0.004030427895486355,0.0003014698449987918
1738772462536508000,5.7925078125,0.0008498146780766547,0.003478354774415493,0.0018269284628331661
1738772462546498800,5.802498779296875,0.0006772418855689466,0.0034168355632573366,0.002079662401229143
1738772462556489700,5.81248974609375,0.00001944107498275116,0.0034237599465996027,0.001731320982798934
1738772462566480600,5.822480712890625,0.0017725999932736158,0.00301736150868237,0.0005587312043644488
1738772462576472800,5.832472900390625,0.0003153182624373585,0.0027427896857261658,0.0004135889175813645
1738772462586463700,5.842463623046875,0.0009060074225999415,0.0054821171797811985,0.00035473305615596473
1738772462596455000,5.852454833984375,0.0005872269975952804,0.004453337751328945,-0.0024224112275987864
1738772462606445800,5.86244580078125,0.00042317630141042173,0.0037923413328826427,-0.001213868847116828
1738772462616436700,5.872436767578125,0.0013547500129789114,0.0030751521699130535,-0.0012322446564212441
1738772462626429000,5.882428955078125,0.0006740460521541536,0.0041100564412772655,0.0004082625964656472
1738772462636419800,5.892419921875,0.0012434299569576979,0.0034914042335003614,-0.0002854908525478095
1738772462646410800,5.90241064453125,0.0013424995122477412,0.0032570459879934788,0.00196381495334208
1738772462656402000,5.91240185546875,0.002001898130401969,0.0032091091852635145,0.0001496696495451033
1738772462666392800,5.922392822265625,0.0012727247085422277,0.0049766493029892445,-0.0004450142150744796
1738772462676384800,5.932384765625,0.000731836655177176,0.002594451420009136,-0.0015033544041216373
1738772462686376000,5.9423759765625,0.0013646037550643086,0.0037758296821266413,0.00009480853623244911
1738772462696366800,5.952366943359375,-0.0006149238906800747,0.0041702440939843655,0.00019094864546786994
1738772462706357800,5.962357666015625,0.002019208623096347,0.0034328147303313017,0.00014194648247212172
1738772462716348700,5.9723486328125,0.0014961638953536749,0.003629622282460332,-0.0009209210984408855
1738772462726340900,5.9823408203125,0.002472745021805167,0.0029915287159383297,-0.0003451456723269075
1738772462736331800,5.992331787109375,0.0010958907660096884,0.004308994393795729,-0.000330231967382133
1738772462746323000,6.002322998046875,0.001326786819845438,0.0035891421139240265,0.0005113269435241818
1738772462756313900,6.01231396484375,0.0016532903537154198,0.0032461269292980433,0.0012665993999689817
1738772462766304800,6.0223046875,0.0007305050967261195,0.004596083424985409,0.0010388991795480251
1738772462776297000,6.032296875,0.0011701929615810513,0.0030626351945102215,-0.00023409185814671218
1738772462786287900,6.042287841796875,0.0026527747977524996,0.0034911378752440214,-0.0006687197601422668
1738772462796278800,6.05227880859375,0.0014958975370973349,0.0041007352992892265,-0.0009824400767683983
1738772462806269700,6.062269775390625,0.0027947211638092995,0.004020574036985636,-0.0005486111622303724
1738772462816260900,6.0722607421875,0.0010996191995218396,0.0037534593138843775,-0.0016831178218126297
1738772462826252800,6.082252685546875,0.0012144014472141862,0.003061037277802825,0.0007025419035926461
1738772462836244000,6.092243896484375,-0.00010279801790602505,0.0027209515683352947,0.00046818371629342437
1738772462846235000,6.10223486328125,0.0009369000908918679,0.003933222498744726,0.0012956279097124934
1738772462856225800,6.112225830078125,0.00015659387281630188,0.003864513011649251,0.0017065536230802536
1738772462866216700,6.122216796875,0.0007725830073468387,0.003168096300214529,0.001246892032213509
1738772462876209000,6.132208984375,0.0016298545524477959,0.003991545643657446,-0.00009960222087102011
1738772462886199800,6.14219970703125,0.00236275652423501,0.0041611893102526665,-0.0002463423879817128
1738772462896190700,6.152190673828125,0.002575543010607362,0.004090349189937115,-0.0017608820926398039
1738772462906182000,6.162181884765625,0.001133707701228559,0.004461327567696571,-0.0010615360224619508
1738772462916172800,6.1721728515625,0.0017496967921033502,0.0034972631838172674,-0.0007696535321883857
1738772462926165000,6.1821650390625,0.0012231898726895452,0.004710599314421415,0.0019883159548044205
1738772462936156000,6.192156005859375,0.0008644621120765805,0.00424161646515131,0.002007757080718875
1738772462946146800,6.202146728515625,0.0025454494170844555,0.003344397759065032,0.0010924286907538772
1738772462956137700,6.2121376953125,0.000004793690095539205,0.0035198999103158712,0.0006921555614098907
1738772462966129000,6.22212890625,-0.0007693872321397066,0.0029196233954280615,0.0010982876410707831
1738772462976120800,6.232120849609375,0.003014432033523917,0.005785451270639896,0.00012596751912496984
1738772462986111700,6.24211181640625,0.000031158982892520726,0.0036799560766667128,0.000720118754543364
1738772462996103000,6.25210302734375,0.0008841694798320532,0.0028908613603562117,-0.0019049590919166803
1738772463006093800,6.26209375,0.002126534003764391,0.003519101068377495,0.0010780475568026304
1738772463016084700,6.272084716796875,0.0003787015157286078,0.004259459674358368,-0.0004010720585938543
1738772463026076700,6.28207666015625,0.00236302288249135,0.004820321686565876,0.0008143946761265397
1738772463036067800,6.29206787109375,0.0036583843175321817,0.004052266012877226,0.0010958907660096884
1738772463046058800,6.302058837890625,0.0012950951931998134,0.0018013621447607875,0.0009725864510983229
1738772463056050000,6.3120498046875,-0.0000774979853304103,0.0041340249590575695,0.0016945693641901016
1738772463066040800,6.322040771484375,0.0014642059104517102,0.0041364217177033424,0.0009531453251838684
1738772463076032500,6.332032470703125,0.0009539442835375667,0.003367567202076316,-0.0014381069922819734
1738772463086023700,6.342023681640625,0.002719087526202202,0.004547347314655781,0.000313986703986302
1738772463096014800,6.352014892578125,0.0018748653819784522,0.0023579627741128206,0.00045833003241568804
1738772463106005800,6.362005859375,0.0018578211311250925,0.002426938619464636,-0.0005336974863894284
1738772463115997000,6.371996826171875,0.0004916195175610483,0.002517752582207322,0.0008974852971732616
1738772463125988600,6.381988525390625,0.002144377212971449,0.0034972631838172674,0.000248472933890298
1738772463135979800,6.391979736328125,0.0014767227694392204,0.002295911079272628,0.0001203748834086582
1738772463145971000,6.401970947265625,0.0015422365395352244,0.004111654590815306,0.0006402239087037742
1738772463155961900,6.4119619140625,-0.0006593986763618886,0.0037505298387259245,0.0020069582387804985
1738772463165952800,6.421952880859375,0.0017986990278586745,0.004450940992683172,-0.0013134710025042295
1738772463175944700,6.43194482421875,0.0025888588279485703,0.003168096300214529,0.0012013519881293178
1738772463185935600,6.441935546875,0.0030977888964116573,0.0029350698459893465,0.0020122844725847244
1738772463195926800,6.4519267578125,-0.00046631949953734875,0.0031553131993860006,0.00047590688336640596
1738772463205918000,6.46191796875,0.0003110571997240186,0.003070358419790864,-0.00016112125013023615
1738772463215908900,6.471908935546875,0.0019321233266964555,0.00430233683437109,0.0015640745405107737
1738772463225900500,6.481900634765625,0.0009347695158794522,0.004327370319515467,0.00130947632715106
1738772463235891700,6.4918916015625,0.0000929443194763735,0.0027776770293712616,-0.0003259709046687931
1738772463245882600,6.501882568359375,0.0018466358305886388,0.0032109732273966074,0.0017126789316534996
1738772463255873800,6.511873779296875,0.0017454357584938407,0.0034019220620393753,0.0007137271459214389
1738772463265865000,6.521864990234375,0.0006807039608247578,0.0041129859164357185,0.001160339335910976
1738772463275856600,6.531856689453125,0.00041998049709945917,0.0025624935515224934,0.0002942793071269989
1738772463285847600,6.54184765625,0.0023411849979311228,0.003293797606602311,0.001079645473510027
1738772463295838700,6.551838623046875,0.0023638217244297266,0.003564108395949006,0.00042876892257481813
1738772463305830000,6.561829833984375,0.002802178030833602,0.003266367129981518,-0.0013318468118086457
1738772463315820800,6.57182080078125,0.00013448962999973446,0.0034000577870756388,-0.00047351003740914166
1738772463325812200,6.581812255859375,0.0011475561186671257,0.0038136467337608337,-0.0011078750248998404
1738772463335803400,6.591803466796875,0.00138058268930763,0.003907922655344009,-0.001205080421641469
1738772463345794600,6.601794677734375,0.00007536746124969795,0.00407383730635047,-0.00010599380766507238
1738772463355785500,6.611785400390625,0.0014482269762083888,0.0038748993538320065,0.0021843246649950743
1738772463365776400,6.6217763671875,0.0009363674325868487,0.0041334922425448895,0.0008617989369668067
1738772463375768300,6.631768310546875,0.001583249308168888,0.0032799490727484226,0.00017204020696226507
1738772463385759200,6.64175927734375,0.0005001416429877281,0.003989415243268013,-0.0004135889175813645
1738772463395750400,6.65175048828125,0.0009675264009274542,0.004356665071099997,-0.001790975802578032
1738772463405741600,6.661741455078125,0.0018487664638087153,0.0033449302427470684,-0.0002798982313834131
1738772463415732500,6.671732421875,0.001240766723640263,0.00367170013487339,-0.0010162622202187777
1738772463425724200,6.68172412109375,0.0033132387325167656,0.003753991797566414,0.000028229507734067738
1738772463435715300,6.69171533203125,0.00236275652423501,0.0031526500824838877,0.0028213527984917164
1738772463445706200,6.701706298828125,0.0027294738683849573,0.004466920159757137,0.0008223841432482004
1738772463455697400,6.711697509765625,0.0008106662426143885,0.004485828336328268,0.001116130850277841
1738772463465688600,6.7216884765625,0.00041811628034338355,0.003897269954904914,-0.00012090751260984689
1738772463475680300,6.73168017578125,0.0011387676931917667,0.0030309436842799187,-0.0009358347742818296
1738772463485671200,6.741671142578125,-0.0007582019316032529,0.003605653764680028,-0.0006223807577043772
1738772463495662300,6.751662353515625,0.001208009896799922,0.004914331249892712,0.0001411475386703387
1738772463505653500,6.761653564453125,0.0006351639167405665,0.0028391960076987743,0.0011209244839847088
1738772463515644400,6.77164453125,0.0011864382540807128,0.004479703027755022,0.0010178601369261742
1738772463525636400,6.78163623046875,0.0004652542411349714,0.004631769843399525,0.000494016392622143
1738772463535627300,6.791627197265625,-0.00007004113285802305,0.002995789982378483,0.0005579322460107505
1738772463545618200,6.8016181640625,0.0011656655697152019,0.004443484358489513,0.000586161739192903
1738772463555609300,6.811609375,0.0008713863207958639,0.0029936593491584063,0.0017299894243478775
1738772463565600500,6.8216005859375,0.0017544905422255397,0.0037417414132505655,-0.000931307440623641
1738772463575592200,6.83159228515625,0.002353968098759651,0.004277302883565426,-0.0005874933558516204
1738772463585583400,6.841583251953125,0.001597630325704813,0.0030426615849137306,-0.0010455570882186294
1738772463595574300,6.85157421875,0.00035499935620464385,0.0023499734234064817,0.0007898935582488775
1738772463605565200,6.861565185546875,0.0013374395202845335,0.0033515882678329945,0.00024394555657636374
1738772463615556400,6.871556396484375,0.0015595471486449242,0.003355316584929824,0.0008921589469537139
1738772463625548300,6.88154833984375,0.00005699164830730297,0.0055228634737432,0.0006657902849838138
1738772463635539200,6.891539306640625,0.0013723268639296293,0.0030213561840355396,0.0004141215467825532
1738772463645530400,6.9015302734375,0.0015939018921926618,0.0033776871860027313,-0.0008258462767116725
1738772463655521300,6.911521240234375,0.0018024274613708258,0.003963316325098276,0.0007566040731035173
1738772463665512400,6.921512451171875,0.001344630029052496,0.004138552118092775,0.001186970854178071
1738772463675504400,6.93150439453125,0.003108175238594413,0.00433189794421196,0.0007874967413954437
1738772463685495300,6.941495361328125,0.0009811085183173418,0.0028152274899184704,-0.00006897587445564568
1738772463695486200,6.951486328125,0.0007547398563474417,0.004766259342432022,0.0012538161827251315
1738772463705477400,6.961477294921875,0.0014468954177573323,0.003945473115891218,0.00039654469583183527
1738772463715468300,6.97146826171875,0.0007121292874217033,0.001767273643054068,-0.00013741910515818745
1738772463725460200,6.981460205078125,0.0011736550368368626,0.0033483924344182014,0.00037444045301526785
1738772463735451400,6.991451416015625,0.0016879114555194974,0.00398595305159688,0.0002972087822854519
1738772463745442300,7.0014423828125,0.0009781790431588888,0.004204598721116781,-0.0012988236267119646
1738772463755433200,7.01143310546875,0.0023792681749910116,0.004247475415468216,0.0016562198288738728
1738772463765424400,7.02142431640625,0.0005214469274505973,0.0032898029312491417,0.0007861651247367263
1738772463775416300,7.031416259765625,0.0008450209861621261,0.002255164785310626,0.0014391721924766898
1738772463785407200,7.0414072265625,0.002508431440219283,0.00621075788512826,0.0014021543320268393
1738772463795398400,7.0513984375,0.002433596644550562,0.004875715356320143,-0.0015345134306699038
1738772463805389300,7.061389404296875,0.0021017666440457106,0.003165699541568756,-0.000672448193654418
1738772463815380200,7.071380126953125,0.0015877765836194158,0.00387410051189363,0.0013627394801005721
1738772463825372400,7.081372314453125,0.0008644621120765805,0.00421258807182312,0.002100967802107334
1738772463835363300,7.09136328125,0.0007779093575663865,0.004294879734516144,0.0005542038124985993
1738772463845354200,7.101354248046875,0.0026647590566426516,0.003462375607341528,0.0013933659065514803
1738772463855345400,7.111345458984375,0.0007305050967261195,0.0034471957478672266,0.0015981629258021712
1738772463865336300,7.12133642578125,0.0005411543534137309,0.004719920456409454,-0.0003914846747647971
1738772463875328300,7.131328369140625,0.0008231831016018987,0.004540956113487482,0.00043755737715400755
1738772463885319400,7.1413193359375,0.0013883059145882726,0.0036607813090085983,0.0013949638232588768
1738772463895310300,7.151310302734375,0.00008894957863958552,0.0034969968255609274,-0.00029081720276735723
1738772463905301200,7.16130126953125,0.0005067995516583323,0.002671949565410614,-0.0005848301807418466
1738772463915292200,7.171292236328125,0.0023182816803455353,0.0037758296821266413,0.0002772350562736392
1738772463925283300,7.181283447265625,0.0003371562052052468,0.004366518929600716,-0.00007084008393576369
1738772463935275300,7.191275146484375,0.002123604528605938,0.005066131241619587,0.0003193130251020193
1738772463945266400,7.201266357421875,0.0002372876479057595,0.002807770622894168,-0.00018855179951060563
1738772463955257300,7.21125732421875,0.00187992537394166,0.0028610338922590017,-0.0003249056462664157
1738772463965248300,7.221248291015625,0.0016905746888369322,0.004307130351662636,0.0003408846096135676
1738772463975239200,7.2312392578125,0.0014679343439638615,0.004138019867241383,0.0002388855500612408
1738772463985231400,7.2412314453125,0.0004269047058187425,0.0031350732315331697,0.0025015072897076607
1738772463995222300,7.25122216796875,0.0005155879771336913,0.002953445538878441,0.00013768543431069702
1738772464005213200,7.261213134765625,0.0006870955694466829,0.003049852093681693,-0.001365668955259025
1738772464015204400,7.271204345703125,0.002685531508177519,0.0037505298387259245,-0.00025220136740244925
1738772464025195300,7.2811953125,0.0027182884514331818,0.004474909510463476,0.001421861699782312
1738772464035187500,7.2911875,0.003507649526000023,0.004259193316102028,0.0012602078495547175
1738772464045178400,7.301178466796875,0.0018461032304912806,0.0043739755637943745,0.0009547432418912649
1738772464055169300,7.311169189453125,0.0026487798895686865,0.003064499469473958,0.0012623383663594723
1738772464065160200,7.32116015625,0.000850879936479032,0.0039041941054165363,-0.0005909554311074317
1738772464075151400,7.3311513671875,0.0020535634830594063,0.00444055488333106,-0.0015491608064621687
1738772464085143300,7.341143310546875,-0.00011691277177305892,0.0041217743419110775,0.0006173207075335085
1738772464095134500,7.351134521484375,0.0006359628750942647,0.003442401997745037,0.0006197175825946033
1738772464105125400,7.36112548828125,0.0005512743373401463,0.004918059334158897,0.0029984530992805958
1738772464115116300,7.3711162109375,0.0007171892793849111,0.004089816473424435,0.0009864348685368896
1738772464125107200,7.381107177734375,0.0007222492713481188,0.004486893769353628,0.0009885653853416443
1738772464135099400,7.391099365234375,0.002430134452879429,0.004644020460546017,-0.00011211907985853031
1738772464145090300,7.40109033203125,-0.0000756337758502923,0.004473045468330383,-0.00040293627534992993
1738772464155081200,7.411081298828125,0.0016884441720321774,0.004393416922539473,0.0001608549355296418
1738772464165072400,7.421072265625,0.0010311759542673826,0.003852795111015439,-0.0003938815207220614
1738772464175063300,7.431063232421875,0.0014375743921846151,0.00392842898145318,0.0018431737553328276
1738772464185055500,7.441055419921875,0.0009049421059899032,0.0035063179675489664,-0.000041545314161339775
1738772464195046400,7.45104638671875,0.001734250457957387,0.0024056334514170885,0.000854075769893825
1738772464205037300,7.461037353515625,0.0024626250378787518,0.003692472819238901,-0.0001882854849100113
1738772464215028200,7.4710283203125,0.0011973571963608265,0.005136705003678799,0.000990695902146399
1738772464225019400,7.481019287109375,0.00199390877969563,0.0031012510880827904,0.0008705873624421656
1738772464235011300,7.49101123046875,0.0005299690528772771,0.0019646140281111,0.0002463423879817128
1738772464245002200,7.501002197265625,0.0011102718999609351,0.003428020980209112,-0.00141041015740484
1738772464254993400,7.510993408203125,0.0003888215287588537,0.004485561978071928,-0.00007696535612922162
1738772464264984300,7.520984375,0.0013342436868697405,0.003382747294381261,0.0027920580469071865
1738772464274975200,7.530975341796875,0.0019137475173920393,0.0025001754984259605,-0.00006924218905624002
1738772464284967400,7.540967529296875,0.0013574132462963462,0.0032317459117621183,0.0009856359101831913
1738772464294958300,7.550958251953125,0.0011619371362030506,0.004618720151484013,-0.0013012205017730594
1738772464304949200,7.56094921875,0.0023987090680748224,0.004472246393561363,0.00023222764139063656
1738772464314940400,7.5709404296875,0.0020578245166689157,0.004177168011665344,0.00010972223390126601
1738772464324932400,7.580932373046875,0.0013054815353825688,0.0049556102603673935,-0.0013741911388933659
1738772464334923300,7.59092333984375,-0.00032916670897975564,0.003869839245453477,-0.00009081379539566115
1738772464344915500,7.60091552734375,0.00033928672201000154,0.004123106133192778,0.0002689792599994689
1738772464354906400,7.61090625,0.0007472829893231392,0.0044229780323803425,-0.0007707187905907631
1738772464364897300,7.620897216796875,0.001600559800863266,0.004005394410341978,0.0012895026011392474
1738772464374888400,7.630888427734375,-0.0001054611784638837,0.004432831425219774,0.001175252953544259
1738772464384879400,7.64087939453125,0.0015672702575102448,0.0046935551799833775,-0.0003211772127542645
1738772464394871300,7.650871337890625,0.0006831008358858526,0.004185956437140703,-0.00010892329009948298
1738772464404862500,7.660862548828125,0.0008255799184553325,0.0033811493776738644,-0.0005363606614992023
1738772464414853400,7.670853271484375,0.002341983839869499,0.005592371802777052,0.0005483448621816933
1738772464424844300,7.68084423828125,-0.0004593952908180654,0.00424188282340765,-0.000060453756304923445
1738772464434835500,7.69083544921875,0.0035923379473388195,0.004308195784687996,0.00008602010348113254
1738772464444827400,7.700827392578125,0.00007909588020993397,0.004297542851418257,0.000886566296685487
1738772464454818300,7.710818359375,0.000678307143971324,0.0034820830915123224,0.0006681871018372476
1738772464464809500,7.7208095703125,0.0024051007349044085,0.004465854726731777,0.0008303736103698611
1738772464474800400,7.73080029296875,0.0028125643730163574,0.0027869981713593006,0.0000798948312876746
1738772464484791300,7.740791259765625,0.00256382510997355,0.004501541145145893,0.000041278995922766626
1738772464494783500,7.750783447265625,0.0018575548892840743,0.003183542750775814,0.000007190534688561456
1738772464504774400,7.7607744140625,0.0020591560751199722,0.004621649626642466,0.000978978001512587
1738772464514765300,7.770765380859375,0.000752875639591366,0.00387383415363729,0.0006018743733875453
1738772464524756500,7.780756591796875,0.001044758129864931,0.0044011399149894714,-0.0005475459038279951
1738772464534747400,7.790747314453125,0.002654106356203556,0.003278617514297366,-0.00021385183208622038
1738772464544739300,7.8007392578125,0.0007257114048115909,0.0034384073223918676,0.00040799626731313765
1738772464554730500,7.81073046875,0.00005752427750849165,0.005428853910416365,-0.0004135889175813645
1738772464564721400,7.820721435546875,0.002913498319685459,0.003469566348940134,0.0018487664638087153
1738772464574712300,7.83071240234375,0.002016545506194234,0.005000085104256868,0.0004780374001711607
1738772464584703500,7.840703369140625,0.001272990950383246,0.0035148400347679853,0.0014223942998796701
1738772464594695400,7.8506953125,0.0028578380588442087,0.0037856835406273603,-0.00020985709852539003
1738772464604686300,7.860686279296875,0.0018940401496365666,0.005286108236759901,-0.00010865696822293103
1738772464614677500,7.870677490234375,-0.0000351537273672875,0.00407383730635047,-0.002103098202496767
1738772464624668400,7.88066845703125,0.002266349969431758,0.005342034623026848,-0.0001102548703784123
1738772464634659300,7.890659423828125,0.0017779263434931636,0.003192597534507513,-0.00008921589324017987
1738772464644651500,7.900651611328125,-0.00035659727291204035,0.0022767363116145134,0.0007978830835781991
1738772464654642400,7.910642333984375,0.00036245622322894633,0.003573163179680705,0.0020538298413157463
1738772464664633300,7.92063330078125,0.00010412959818495438,0.003967311233282089,0.0013859090395271778
1738772464674624500,7.93062451171875,0.00029640982393175364,0.004221110139042139,-0.00010705907334340736
1738772464684615400,7.940615478515625,0.0014482269762083888,0.005111671518534422,0.0012458267156034708
1738772464694606300,7.9506064453125,0.0010125337867066264,0.0035750274546444416,-0.001770469476468861
1738772464704598500,7.9605986328125,0.003067961661145091,0.0033907366450875998,0.0007741809240542352
1738772464714589400,7.97058935546875,0.0022189458832144737,0.0033939324785023928,-0.00012117382721044123
1738772464724580400,7.980580322265625,0.000020772657080669887,0.004232029430568218,0.0009382316493429244
1738772464734571300,7.9905712890625,0.002138784620910883,0.001976065570488572,-0.0007297061383724213
1738772464744562400,8.0005625,0.00002902845517382957,0.00418435875326395,0.0008586031035520136
1738772464754554400,8.010554443359375,0.0006711165769957006,0.004202734678983688,0.0016508935950696468
1738772464764545500,8.020545654296875,0.0008423578692600131,0.004147606901824474,0.0006223807577043772
1738772464774536400,8.030536376953124,0.002067678142338991,0.0033281524665653706,-0.001633316627703607
1738772464784527400,8.04052734375,0.0014692660188302398,0.004846953321248293,0.00013502225920092314
1738772464794518300,8.050518310546876,0.0020450414158403873,0.002808569697663188,0.000051399008953012526
1738772464804510500,8.060510498046876,0.0027888622134923935,0.003179814200848341,0.000913197931367904
1738772464814501400,8.07050146484375,0.0006878945278003812,0.005073055624961853,0.0017859158106148243
1738772464824492500,8.080492431640625,0.0012290488230064511,0.003162503708153963,0.0004295678809285164
1738772464834483500,8.0904833984375,0.002966228872537613,0.004196076653897762,0.0010921623324975371
1738772464844474400,8.100474365234374,0.00045806370326317847,0.00443869037553668,0.0014410364674404263
1738772464854466600,8.110466552734374,0.0020903151016682386,0.0028221518732607365,0.001115864492021501
1738772464864457500,8.12045751953125,0.001669269404374063,0.0034269557800143957,0.0019883159548044205
1738772464874448400,8.130448486328126,0.0012628709664568305,0.004653607495129108,-0.0009262474486604333
1738772464884439300,8.140439208984375,0.0015459649730473757,0.004494350403547287,-0.0010000169277191162
1738772464894430500,8.150430419921875,0.0019984361715614796,0.0030362699180841446,0.0008953547803685069
1738772464904422400,8.16042236328125,0.0007757788407616317,0.004248540848493576,-0.000014913702216290403
1738772464914413600,8.17041357421875,0.0007787083159200847,0.0038834214210510254,0.0013789847726002336
1738772464924404500,8.180404541015625,0.0018873822409659624,0.00421418622136116,0.0015651397407054901
1738772464934395400,8.1903955078125,0.0015571502735838294,0.0034940673504024744,0.0005624596378766
1738772464944386300,8.20038623046875,0.0009129316313192248,0.00427250936627388,0.000547279603779316
1738772464954377500,8.21037744140625,0.0011792477453127503,0.004719920456409454,-0.0008114652009680867
1738772464964369400,8.220369384765625,0.00005299690383253619,0.003531884169206023,0.000060986389144090936
1738772464974360300,8.2303603515625,0.0012681973166763783,0.004062385763972998,0.0002711098059080541
1738772464984351500,8.2403515625,0.00032890037982724607,0.004338023252785206,-0.00020160128769930452
1738772464994342400,8.25034228515625,0.0018687400734052062,0.0024887239560484886,0.0022096247412264347
1738772465004333300,8.260333251953124,0.0008617989369668067,0.004028297495096922,0.00130947632715106
1738772465014325500,8.270325439453124,0.002796052722260356,0.004710332956165075,0.0028546424582600594
1738772465024316400,8.28031640625,0.00042290997225791216,0.003145193215459585,-0.00033209618413820863
1738772465034307300,8.290307373046875,0.0014066817238926888,0.003495132550597191,-0.0002109223569277674
1738772465044298500,8.300298583984375,0.0006998787284828722,0.003151052165776491,-0.0013608753215521574
1738772465054289400,8.310289306640625,0.00046152580762282014,0.0030722226947546005,-0.001073786523193121
1738772465064281300,8.32028125,0.0013291836949065328,0.00449781259521842,-0.0003653856983873993
1738772465074272500,8.3302724609375,0.0010319749126210809,0.0032599754631519318,0.001961418194696307
1738772465084263400,8.340263427734374,0.0019976370967924595,0.0027137610595673323,0.0012926984345540404
1738772465094254300,8.35025439453125,0.0015363775892183185,0.003973702434450388,-0.0010761833982542157
1738772465104245500,8.36024560546875,0.0003507383225951344,0.003923369105905294,0.0007595335482619703
1738772465114237200,8.3702373046875,0.0009171926649287343,0.003020290983840823,0.0002719087351579219
1738772465124228400,8.380228271484375,0.0013286510948091745,0.004188353195786476,0.00018988338706549257
1738772465134219500,8.390219482421875,0.00036378781078383327,0.003436543047428131,-0.001062068622559309
1738772465144210400,8.40021044921875,0.0008788431296125054,0.00490181427448988,-0.0006404902087524533
1738772465154201300,8.410201416015624,0.0013662016717717052,0.002597380895167589,0.0007158577209338546
1738772465164193300,8.420193359375,0.0001328917423961684,0.0031915323343127966,0.000007456851108145202
1738772465174184400,8.430184326171876,0.0025619608350098133,0.003210440743714571,0.0008173241512849927
1738772465184175400,8.44017529296875,0.0013377057621255517,0.002722017001360655,-0.0005113269435241818
1738772465194166500,8.45016650390625,0.001303351018577814,0.003192064817994833,-0.0001573928166180849
1738772465204157400,8.460157470703125,-0.000026897927455138415,0.0038714371621608734,0.0007294398383237422
1738772465214149000,8.470149169921875,0.00261868629604578,0.003638677066192031,0.0012463594321161509
1738772465224140300,8.480140380859375,0.00038589202449657023,0.0031931300181895494,0.0006117281154729426
1738772465234131500,8.49013134765625,0.0026354643050581217,0.004839496221393347,0.0013459615875035524
1738772465244122400,8.500122314453124,0.0000857537888805382,0.005539374891668558,-0.00043516053119674325
1738772465254113500,8.510113525390626,0.0019568908028304577,0.005435511935502291,0.0007835020078346133
1738772465264105200,8.520105224609376,0.0002788329729810357,0.0054365769028663635,0.0005960154230706394
1738772465274096000,8.53009619140625,0.0016245282022282481,0.0020455741323530674,0.001026382320560515
1738772465284087300,8.54008740234375,0.001201618229970336,0.0030045784078538418,0.001618403010070324
1738772465294078500,8.550078369140625,0.0010191916953772306,0.0038922098465263844,0.000297475082334131
1738772465304069400,8.5600693359375,0.0011496866354718804,0.004304467234760523,0.0006628608098253608
1738772465314061300,8.570061279296874,0.0019853864796459675,0.002433063928037882,-0.0017725999932736158
1738772465324052200,8.58005224609375,0.0022128205746412277,0.0038192393258213997,0.001642371411435306
1738772465334043000,8.59004296875,0.0008655273704789579,0.0039047268219292164,0.0008306399104185402
1738772465344033800,8.60003369140625,0.0026876621413975954,0.003722566645592451,0.000996821210719645
1738772465354025000,8.61002490234375,0.00019893812714144588,0.0025869945529848337,0.0016969662392511964
1738772465364017000,8.620016845703125,0.0011741877533495426,0.0030929953791201115,0.0005440838285721838
1738772465374008000,8.630008056640625,0.0025592977181077003,0.002320145955309272,0.001894839107990265
1738772465383999000,8.6399990234375,0.0014397049089893699,0.0027174896094948053,-0.0011851066956296563
1738772465393990000,8.649989990234374,0.0005488775204867125,0.003023753175511956,-0.0010080065112560987
1738772465403980800,8.659980712890626,0.0007781756576150656,0.004092479590326548,-0.0012122709304094315
1738772465413972000,8.669971923828125,0.002380333375185728,0.002400573343038559,-0.001511876587755978
1738772465423964000,8.6799638671875,-0.00007110639853635803,0.003925233148038387,0.0006141249323263764
1738772465433955000,8.689955078125,0.0008285093936137855,0.00424161646515131,0.0028642297256737947
1738772465443946000,8.699946044921875,-0.0002868224401026964,0.003221625927835703,0.001318264752626419
1738772465453937000,8.70993701171875,0.0028272117488086224,0.003088201628997922,0.0019076223252341151
1738772465463927800,8.719927734375,0.0011744539951905608,0.0035635759122669697,0.0020999026019126177
1738772465473919700,8.729919677734374,0.000883636821527034,0.00544376764446497,0.00009693906031316146
1738772465483911000,8.739910888671876,0.0016247945604845881,0.003683151677250862,-0.0002388855500612408
1738772465493901800,8.74990185546875,0.002103630919009447,0.003245328087359667,-0.0009105347562581301
1738772465503893000,8.75989306640625,-0.000020240024241502397,0.0041460092179477215,-0.0005872269975952804
1738772465513884000,8.7698837890625,0.0023289343807846308,0.0030479878187179565,-0.0012522183824330568
1738772465523875800,8.779875732421875,0.0019558256026357412,0.003364637726917863,0.0017422399250790477
1738772465533867000,8.789866943359375,-0.00005406216951087117,0.003153448924422264,0.002889796160161495
1738772465543858000,8.79985791015625,0.002772350562736392,0.004032026045024395,0.0008900284301489592
1738772465553848800,8.809848876953126,0.0017683389596641064,0.0028336034156382084,0.0015211976133286953
1738772465563840000,8.819840087890626,0.0017204020405188203,0.0029792783316224813,0.0012314456980675459
1738772465573831700,8.829831787109375,-0.000016245283404714428,0.003798999357968569,0.0003251719754189253
1738772465583822800,8.83982275390625,0.0008655273704789579,0.004445348400622606,-0.000993891735561192
1738772465593814000,8.84981396484375,0.002344380598515272,0.004564125556498766,0.0005251753609627485
1738772465603805000,8.859804931640625,0.002466619713231921,0.004518318921327591,0.0009384979493916035
1738772465613795800,8.8697958984375,0.0008175904513336718,0.003573429537937045,-0.0007398261222988367
1738772465623787800,8.879787841796874,0.0005685848882421851,0.0038008634001016617,0.0012663330417126417
1738772465633778700,8.88977880859375,0.0003989415417890996,0.004490622319281101,0.0011595403775572777
1738772465643769900,8.899769775390626,0.0009914948605000973,0.00461685610935092,0.00033156355493701994
1738772465653761000,8.909760986328125,0.0012253203894942999,0.0035441347863525152,-0.0009720537927933037
1738772465663752000,8.919751953125,0.0016727314796298742,0.003282079705968499,-0.0007219829712994397
1738772465673743600,8.92974365234375,-0.00033955302205868065,0.0036999296862632036,-0.00045327001134864986
1738772465683734800,8.93973486328125,0.0013230583863332868,0.00424188282340765,-0.0019001654582098126
1738772465693726000,8.949725830078124,0.0008668589289300144,0.003982490859925747,0.0013800500892102718
1738772465703716900,8.959716796875,0.00192226970102638,0.004346811678260565,-0.00040559942135587335
1738772465713708000,8.9697080078125,0.0019449065439403057,0.002394448034465313,0.0008199872681871057
1738772465723699700,8.97969970703125,0.0003424825263209641,0.0035364115610718727,-0.0007800398743711412
1738772465733690600,8.989690673828125,0.002112685702741146,0.003704989794641733,-0.0007395598222501576
1738772465743681800,8.999681884765625,-0.0005243764026090503,0.002868224401026964,0.0005320995696820319
1738772465753673000,9.0096728515625,0.0015504923649132252,0.003867176128551364,0.000606668065302074
1738772465763664000,9.019663818359374,0.0019528960110619664,0.0028013791888952255,0.0009685916593298316
1738772465773655800,9.02965576171875,0.0007076018955558538,0.0035601137205958366,0.0014178669080138206
1738772465783646700,9.039646728515624,0.0016468988033011556,0.004446413833647966,-0.0006135923322290182
1738772465793637600,9.0496376953125,0.0006668555433861911,0.003867708845064044,-0.0007243797881528735
1738772465803628800,9.05962890625,0.0008106662426143885,0.005620068870484829,0.0005243764026090503
1738772465813620000,9.069619873046875,0.0016578177455812693,0.004431233741343021,0.001059139147400856
1738772465823611600,9.079611572265625,-0.0007784419576637447,0.003626426449045539,0.0005446164286695421
1738772465833602800,9.089602783203125,0.00253453035838902,0.004232828039675951,0.0026905916165560484
1738772465843593700,9.09959375,0.00039175100391730666,0.003368099918588996,0.00227913330309093
1738772465853584600,9.109584716796874,0.0016522251535207033,0.003522296901792288,-0.0005075985100120306
1738772465863575800,9.119575927734376,0.002210689941421151,0.004461860284209251,-0.0014319816837087274
1738772465873567700,9.129567626953126,0.00012543488992378116,0.003838680451735854,-0.0021552962716668844
1738772465883558700,9.13955859375,0.0004972121678292751,0.004914863966405392,-0.0022660838440060616
1738772465893549800,9.1495498046875,0.002263953210785985,0.0026168220210820436,0.0004090615548193455
1738772465903540700,9.159540771484375,0.0005318332696333528,0.004567055031657219,0.0017920411191880703
1738772465913532000,9.169531982421875,0.001374723738990724,0.0019979034550487995,0.00199310970492661
1738772465923523000,9.179523193359374,0.002511094557121396,0.003878627670928836,0.0016841830220073462
1738772465933514800,9.1895146484375,0.001243962557055056,0.004372910596430302,0.00046339002437889576
1738772465943505700,9.199505615234376,0.0028871328104287386,0.005046956706792116,-0.0004953479510731995
1738772465953496800,9.209496826171875,-0.00045833003241568804,0.005252819042652845,-0.0017712684348225594
1738772465963487700,9.21948779296875,0.0010913633741438389,0.004125502891838551,-0.0009028115891851485
1738772465973479000,9.22947900390625,0.0013821806060150266,0.004008323885500431,-0.00040480049210600555
1738772465983470800,9.239470947265625,0.0008873652550391853,0.0026056368369609118,0.0001805623178370297
1738772465993461800,9.249461669921875,0.002356364857405424,0.004222708288580179,0.0009781790431588888
1738772466003452700,9.25945263671875,0.0027505126781761646,0.0028192223981022835,0.003625893732532859
1738772466013443800,9.26944384765625,0.000027430558475316502,0.003546265186741948,0.0012836436508223414
1738772466023434800,9.279434814453126,0.0016450346447527409,0.0043838294222950935,-0.0002868224401026964
1738772466033426700,9.2894267578125,0.0014708638191223145,0.00433003343641758,0.0001968075957847759
1738772466043417900,9.29941796875,0.0004950816510245204,0.005344697739928961,-0.0015345134306699038
1738772466053408800,9.30940869140625,0.0006122607155703008,0.003710049670189619,-0.0025987126864492893
1738772466063399700,9.319399658203125,0.0029284118209034204,0.004277302883565426,-0.00012436961696948856
1738772466073390800,9.329390869140624,0.0009741843095980585,0.0031036478467285633,0.0019523634109646082
1738772466083382800,9.3393828125,0.0019712718203663826,0.004580370616167784,0.0021164140198379755
1738772466093373700,9.349373779296876,0.0006005428149364889,0.0029963224660605192,0.0010367685463279486
1738772466103364900,9.35936474609375,0.0015366439474746585,0.003632285399362445,0.0009291769238188863
1738772466113355800,9.369355712890625,-0.0005118595436215401,0.003973702434450388,-0.0008586031035520136
1738772466123346700,9.3793466796875,0.0022501046769320965,0.0032653016969561577,-0.001383778522722423
1738772466133339000,9.3893388671875,0.002686330582946539,0.004743089899420738,-0.0007350324303843081
1738772466143329800,9.399329833984375,-0.000031957933970261365,0.0034317492973059416,-0.0009046758059412241
1738772466153320700,9.40932080078125,-0.0014567491598427296,0.003963049966841936,-0.000036485307646216825
1738772466163311600,9.4193115234375,0.002353169023990631,0.0021869877818971872,-0.00039654469583183527
1738772466173302800,9.429302734375,0.0011446266435086727,0.004718055948615074,0.0004876247840002179
1738772466183294700,9.439294677734376,0.0008671252289786935,0.0038099181838333607,-0.0003406183095648885
1738772466193286000,9.449285888671875,0.0018972359830513597,0.0049707903526723385,-0.0010953581659123302
1738772466203276800,9.45927685546875,0.0009483516332693398,0.004731904715299606,-0.0002490055630914867
1738772466213267700,9.469267822265625,0.0016740630380809307,0.0027656927704811096,0.0002948119363281876
1738772466223258600,9.479258544921874,0.0023760723415762186,0.004795021377503872,-0.00035446672700345516
1738772466233249800,9.489249755859374,0.002654372714459896,0.002710032742470503,0.0004852279380429536
1738772466243241700,9.49924169921875,0.0008753810543566942,0.004789961501955986,0.0010162622202187777
1738772466253233000,9.50923291015625,0.0018213358707726002,0.0034791536163538694,0.0004956142511218786
1738772466263223800,9.519223876953125,0.0018383801216259599,0.0022684806026518345,0.00023622238950338215
1738772466273214700,9.529214599609375,0.0012767193838953972,0.003772101365029812,-0.00016165387933142483
1738772466283205600,9.53920556640625,-0.000651675509288907,0.004357730504125357,-0.0007102650706656277
1738772466293197800,9.54919775390625,0.0028221518732607365,0.004239486064761877,0.0010969560826197267
1738772466303188700,9.559188720703125,0.002097771968692541,0.004683967679738998,0.0012737899087369442
1738772466313179600,9.5691796875,0.0022367890924215317,0.004083424806594849,0.0007984156836755574
1738772466323170800,9.5791708984375,0.0017965685110539198,0.0030511836521327496,0.0005150553770363331
1738772466333161700,9.58916162109375,0.00018216021999251097,0.004169445019215345,0.0012636699248105288
1738772466343154000,9.59915380859375,0.001389637473039329,0.002011219272390008,0.00012889699428342283
1738772466353144800,9.609144775390625,0.0020809939596801996,0.0030003173742443323,0.0007299724384211004
1738772466363135700,9.6191357421875,0.0011358382180333138,0.003942010924220085,0.00038216362008824944
1738772466373127000,9.629126953125,0.00032410668791271746,0.003117496380582452,-0.0008143946761265397
1738772466383117800,9.639117919921874,0.0004932174342684448,0.0034317492973059416,0.000041811628761934116
1738772466393109800,9.64910986328125,0.0013821806060150266,0.004661863669753075,-0.00021198761533014476
1738772466403101000,9.659100830078126,0.0016085492679849267,0.003715908620506525,0.0010357033461332321
1738772466413091800,9.669091796875,0.0012082761386409402,0.004199272487312555,0.00008468852320220321
1738772466423082800,9.679082763671875,0.001145159243606031,0.0025997778866440058,-0.00026045716367661953
1738772466433074000,9.689073974609375,0.001541171339340508,0.0027688886038959026,-0.0007302387384697795
1738772466443064800,9.69906494140625,0.0017182715237140656,0.0037590519059449434,-0.00026604978484101593
1738772466453056800,9.709056884765625,0.002816825406625867,0.004778243601322174,-0.0004945489927195013
1738772466463048000,9.7190478515625,0.001883387565612793,0.004299940075725317,-0.001249821507371962
1738772466473038800,9.729038818359374,0.001300155185163021,0.0023638217244297266,0.00006764429417671636
1738772466483029800,9.73902978515625,0.0002961435238830745,0.005287972744554281,0.00044821001938544214
1738772466493020700,9.749020751953125,0.000592020689509809,0.0044176517985761166,-0.0008729841792955995
1738772466503012900,9.759012939453125,-0.0002817624481394887,0.0040887510403990746,-0.0013065468519926071
1738772466513003800,9.769003662109375,0.0012420982820913196,0.0029174929950386286,0.0003028014034498483
1738772466522995000,9.778994873046875,0.0024828650057315826,0.004551075864583254,0.00009693906031316146
1738772466532985900,9.78898583984375,0.0005763080553151667,0.004415787290781736,0.0012476909905672073
1738772466542976800,9.798976806640624,0.0027710190042853355,0.003579022129997611,0.0010042780777439475
1738772466552969000,9.808968994140624,0.0026471822056919336,0.004029895178973675,0.0026671558152884245
1738772466562960000,9.8189599609375,0.002208026824519038,0.003337739733979106,0.0020000338554382324
1738772466572950800,9.82895068359375,0.002419215627014637,0.0046661244705319405,-0.0012207929976284504
1738772466582941700,9.838941650390625,0.00010253170330543071,0.0037031255196779966,-0.001936650718562305
1738772466592932900,9.848932861328125,0.0010689928894862533,0.00352868833579123,-0.0022274679504334927
1738772466602924800,9.8589248046875,0.0008769789128564298,0.004099137615412474,-0.0009464874165132642
1738772466612916000,9.868916015625,0.001924666459672153,0.004179032519459724,0.0009629990672692657
1738772466622907000,9.878906982421874,0.0013483584625646472,0.003979295492172241,0.0008940231637097895
1738772466632897800,9.888897705078126,0.0011259844759479165,0.004138019867241383,0.001785116852261126
1738772466642888700,9.898888671875,0.001472728094086051,0.0035510589368641376,0.0008037420338951051
1738772466652881000,9.908880859375,0.0008644621120765805,0.0034085798542946577,0.0003382214636076242
1738772466662871800,9.918871826171875,0.0010279801208525896,0.004938299767673016,0.000693220819812268
1738772466672862700,9.92886279296875,0.0013488910626620054,0.003772634081542492,-0.0017600831342861056
1738772466682854000,9.93885400390625,0.00008069378236541525,0.003835750976577401,-0.0020032296888530254
1738772466692844800,9.9488447265625,0.001386175281368196,0.004319913685321808,0.00024501082953065634
1738772466702835700,9.958835693359376,0.0020748688839375973,0.002907373011112213,0.001648230361752212
1738772466712828000,9.968827880859376,0.0006508765509352088,0.0031856733839958906,0.0011230550007894635
1738772466722818800,9.97881884765625,-0.00007350324449362233,0.0054757255129516125,0.001273523666895926
1738772466732809700,9.988809814453125,0.002189384773373604,0.003855458227917552,0.000630636524874717
1738772466742801000,9.99880078125,0.0016405072528868914,0.00407596817240119,0.00023675501870457083
1738772466752791800,10.008791748046875,0.0008399609941989183,0.004031759686768055,0.00008362325752386823
1738772466762783700,10.01878369140625,0.0009022789890877903,0.0057380469515919685,0.002103364560753107
1738772466772775000,10.02877490234375,0.0011350392596796155,0.0035417377948760986,-0.0012096078135073185
1738772466782765800,10.038765869140626,0.00014993596414569765,0.0035489285364747047,-0.0008705873624421656
1738772466792756700,10.0487568359375,0.000990429543890059,0.0033662356436252594,0.00046099317842163146
1738772466802748000,10.058747802734375,0.0005600627628155053,0.0020682108588516712,0.00045380264054983854
1738772466812739800,10.06873974609375,0.00002450108149787411,0.003584614722058177,0.00042796999332495034
1738772466822730800,10.078730712890625,0.0014090784825384617,0.0032525185961276293,0.0010074737947434187
1738772466832722000,10.088721923828125,0.002228266792371869,0.004283161833882332,0.0002759034978225827
1738772466842712800,10.098712890625,0.002258360618725419,0.0026959178503602743,-0.0004873584839515388
1738772466852703700,10.108703857421874,0.000526773277670145,0.003579288488253951,-0.001070857048034668
1738772466862696000,10.118696044921874,0.0012229235144332051,0.0049582733772695065,-0.00040799626731313765
1738772466872686800,10.128686767578126,0.002314020646736026,0.005131378769874573,0.0011478224769234657
1738772466882677800,10.138677734375,0.0016343819443136454,0.002889263443648815,0.0033193640410900116
1738772466892669000,10.1486689453125,0.001996039180085063,0.003506850451231003,0.0020836573094129562
1738772466902659800,10.158659912109375,0.001564873498864472,0.0031073763966560364,0.0011102718999609351
1738772466912650800,10.168650634765624,0.0017547567840665579,0.004132693167775869,-0.0003081277245655656
1738772466922643000,10.178642822265624,0.001710814656689763,0.0038029940333217382,-0.0014170679496601224
1738772466932633900,10.1886337890625,0.0019350528018549085,0.0029981867410242558,-0.0008801747462712228
1738772466942624800,10.198624755859376,0.0007555388147011399,0.0033244239166378975,-0.0011877698125317693
1738772466952616000,10.208615966796875,0.0012362393317744136,0.00392869533970952,0.00022956448083277792
1738772466962606800,10.21860693359375,0.0019739349372684956,0.0027212179265916348,0.0016554208705201745
1738772466972598800,10.228598876953125,0.0002516687090974301,0.0027811392210423946,0.0037848844658583403
1738772466982590000,10.23858984375,0.0026844663079828024,0.005003014579415321,0.0011369034182280302
1738772466992580900,10.248580810546875,0.00027616979787126184,0.003650394966825843,0.0006916229031048715
1738772467002571800,10.25857177734375,0.000493750034365803,0.0039007319137454033,-0.001985120354220271
1738772467012563000,10.26856298828125,0.0008673915872350335,0.0034522556234151125,-0.0011238539591431618
1738772467022555000,10.278554931640626,0.0009643306257203221,0.003391801845282316,-0.0014048174489289522
1738772467032545800,10.2885458984375,0.002828276949003339,0.002639458980411291,-0.000404534162953496
1738772467042537000,10.298536865234375,0.0016194682102650404,0.004125769250094891,-0.0004346278728917241
1738772467052527900,10.30852783203125,0.000716922979336232,0.003602191573008895,0.0033665020018815994
1738772467062518800,10.318518798828125,0.0019006980583071709,0.0047058057971298695,0.0017544905422255397
1738772467072511000,10.328510986328125,0.0018599516479298472,0.003497795667499304,0.0015475628897547722
1738772467082502000,10.338501953125,0.0007142598042264581,0.0038807583041489124,0.000746750389225781
1738772467092492800,10.348492919921876,0.0008306399104185402,0.005208876915276051,0.0005573995877057314
1738772467102484000,10.35848388671875,-0.00022849922243040055,0.0027830032631754875,-0.0003579288604669273
1738772467112475000,10.368474853515625,0.001797101111151278,0.0041276332922279835,-0.000755805114749819
1738772467122465800,10.3784658203125,0.002843989757820964,0.003765976056456566,0.0005209143273532391
1738772467132458000,10.3884580078125,0.0012695288751274347,0.0033662356436252594,0.002356098499149084
1738772467142449000,10.398448974609375,0.0012519520241767168,0.0036642432678490877,-0.00007243797881528735
1738772467152439800,10.408439697265624,0.0018975022248923779,0.002948385663330555,0.0013273194199427962
1738772467162430700,10.4184306640625,0.0009432916413061321,0.0033933997619897127,-0.003081543603911996
1738772467172422000,10.428421875,0.001734783174470067,0.003796602366492152,0.000019707391402334906
1738772467182413800,10.438413818359376,0.002555569401010871,0.004456799943000078,-0.0013912353897467256
1738772467192405000,10.448405029296875,0.00023755396250635386,0.004054396413266659,0.00002663161103555467
1738772467202396000,10.45839599609375,0.0008098672842606902,0.0028240159153938293,0.0007491472060792148
1738772467212386800,10.46838671875,0.0006258428329601884,0.003802727675065398,0.002510561840608716
1738772467222377700,10.478377685546874,-0.00007590009045088664,0.004826979245990515,0.001121989800594747
1738772467232370000,10.488369873046874,0.001746234716847539,0.005175853613764048,0.0008372978190891445
1738772467242360800,10.49836083984375,0.0012098740553483367,0.0024865935556590557,-0.0011270497925579548
1738772467252351700,10.508351806640626,0.0012767193838953972,0.004688494838774204,-0.002415487077087164
1738772467262343000,10.518343017578125,-0.0010407633380964398,0.004982774145901203,-0.003120692213997245
1738772467272333800,10.528333740234375,-0.00045673211570829153,0.002779274946078658,-0.0014194648247212172
1738772467282324700,10.53832470703125,0.00032863407977856696,0.004698082339018583,0.0008655273704789579
1738772467292317000,10.54831689453125,-0.0004825647920370102,0.003412574529647827,0.0006122607155703008
1738772467302307800,10.558307861328124,0.00233266269788146,0.0035198999103158712,0.003340935567393899
1738772467312298800,10.568298828125,0.0014950985787436366,0.005104747135192156,0.001651426195167005
1738772467322290000,10.5782900390625,0.0006311691831797361,0.0041191112250089645,-0.000011717908819264267
1738772467332280600,10.588280517578125,0.0021028320770710707,0.0030919299460947514,-0.0017694041598588228
1738772467342272500,10.5982724609375,0.0016165387351065874,0.003537476761266589,-0.0029049760196357965
1738772467352263700,10.608263671875,0.0010317085543647408,0.005645635072141886,-0.0014234596164897084
1738772467362254600,10.618254638671875,0.003623230615630746,0.003338006092235446,0.0006737797521054745
1738772467372245500,10.62824560546875,0.0017188041238114238,0.0023270701058208942,0.003099386813119054
1738772467382236400,10.638236328125,0.000669518718495965,0.0038986015133559704,0.0005179848521947861
1738772467392228600,10.648228515625,0.0025979136116802692,0.002770752878859639,0.0019201391842216253
1738772467402219500,10.658219482421876,0.0009962886106222868,0.003457315731793642,-0.0003376888344064355
1738772467412210700,10.668210693359375,0.002329467097297311,0.003900199430063367,-0.0009065400226972997
1738772467422201600,10.67820166015625,0.0001680454588495195,0.005116731394082308,-0.000731836655177176
1738772467432192500,10.688192626953125,0.0014194648247212172,0.003781422507017851,0.001208009896799922
1738772467442184700,10.698184814453125,0.002968625631183386,0.004114849958568811,0.0027177559677511454
1738772467452175600,10.708175537109375,0.0012013519881293178,0.004351338837295771,0.0023638217244297266
1738772467462166500,10.71816650390625,0.0005358280031941831,0.004941495135426521,0.0017598168924450874
1738772467472157400,10.728157470703126,0.0014194648247212172,0.003940146882086992,0.0000029294772048160667
1738772467482148600,10.738148681640626,0.0008793757879175246,0.0017004283145070076,-0.00023276027059182525
1738772467492139500,10.748139404296875,0.0030210898257791996,0.0032019184436649084,-0.0001233043585671112
1738772467502131700,10.758131591796875,0.0023350596893578768,0.004462126176804304,0.0003312972257845104
1738772467512122600,10.76812255859375,-0.0002767024270724505,0.0032804817892611027,0.0009890979854390025
1738772467522113500,10.778113525390625,0.0010580739472061396,0.0038101845420897007,0.002046639332547784
1738772467532104400,10.7881044921875,0.0015749934827908874,0.004836300387978554,0.00033902039285749197
1738772467542095600,10.798095703125,0.001169127761386335,0.004379035905003548,-0.0005352954030968249
1738772467552087600,10.808087646484376,0.00038269624928943813,0.0051596080884337425,-0.002883404493331909
1738772467562078500,10.818078369140625,0.0015358449891209602,0.004248540848493576,-0.0003211772127542645
1738772467572069600,10.828069580078125,0.0007912251749075949,0.003177950158715248,0.00044794369023293257
1738772467582060500,10.838060546875,0.0015014902455732226,0.00484269205480814,-0.00013768543431069702
1738772467592051500,10.848051513671875,0.0023148194886744022,0.004465055651962757,0.0017688715597614646
1738772467602043600,10.858043701171875,0.001273523666895926,0.0020240023732185364,0.0012551478575915098
1738772467612034600,10.86803466796875,0.001472728094086051,0.005064533557742834,0.0007273092633113265
1738772467622025500,10.878025390625,0.001127848750911653,0.0038988678716123104,-0.0001757686259225011
1738772467632016600,10.8880166015625,0.0014466290595009923,0.004053597338497639,-0.000559263804461807
1738772467642007600,10.898007568359375,0.0012061456218361855,0.004539890680462122,0.0020218719728291035
1738772467651998500,10.90799853515625,-0.00016351809608750045,0.0028045750223100185,-0.0003051982494071126
1738772467661990700,10.91799072265625,0.00037630466977134347,0.0035950010642409325,-0.0005555353709496558
1738772467671981600,10.927981689453125,0.00256409146822989,0.0038836877793073654,0.00034408041392453015
1738772467681972500,10.937972412109374,0.0006647250265814364,0.003786748740822077,0.0011124024167656898
1738772467691963600,10.947963623046874,-0.001597630325704813,0.0036402747500687838,0.0019765980541706085
1738772467701954600,10.95795458984375,0.0029292108956724405,0.003296194365248084,0.0016207997687160969
1738772467711946500,10.967946533203126,0.0006980145117267966,0.0035358788445591927,0.0014671353856101632
1738772467721937700,10.977937744140625,0.0009973538108170033,0.003507383167743683,-0.002182993106544018
1738772467731928600,10.987928466796875,0.002466087229549885,0.003224821761250496,-0.0005667206714861095
1738772467741919500,10.99791943359375,0.0002466087171342224,0.004349208436906338,-0.0021907163318246603
1738772467751910700,11.00791064453125,0.0014831144362688065,0.004936435259878635,0.0007036071619950235
1738772467761902600,11.017902587890624,0.0010772485984489322,0.0030072415247559547,0.000859934720210731
1738772467771893500,11.0278935546875,-0.00038509309524670243,0.0036661075428128242,0.000630902883131057
1738772467781884700,11.037884765625,0.0014330470003187656,0.004892759490758181,0.0013462279457598925
1738772467791875600,11.04787548828125,0.001454884884878993,0.0041731735691428185,0.0008516788948327303
1738772467801866500,11.057866455078125,0.0010879012988880277,0.003456516657024622,-0.0008016114588826895
1738772467811857700,11.067857666015625,0.00007616640505148098,0.004335892386734486,-0.0010929612908512354
1738772467821849600,11.077849609375,0.0015390408225357533,0.0037356161046773195,-0.0009118663729168475
1738772467831840500,11.087840576171875,0.0025329324416816235,0.0040765004232525826,-0.0005227785441093147
1738772467841831700,11.097831787109374,0.0003073287953156978,0.003629089565947652,0.00023276027059182525
1738772467851822600,11.107822509765626,0.0035151063930243254,0.005131645128130913,0.001427987008355558
1738772467861813500,11.1178134765625,0.00032890037982724607,0.0037265613209456205,0.0006519418093375862
1738772467871805700,11.1278056640625,0.0004471447318792343,0.0041526672430336475,-0.0008833705214783549
1738772467881796600,11.137796630859375,0.002554770326241851,0.0036418726667761803,0.0008215851848945022
1738772467891787500,11.14778759765625,0.0012623383663594723,0.0033566481433808804,-0.000494016392622143
1738772467901778700,11.15777880859375,0.0005036037764512002,0.0027944548055529594,0.00045087316539138556
1738772467911769600,11.16776953125,0.002034122357144952,0.003603257006034255,-0.00011424961121520028
1738772467921761500,11.177761474609374,0.0012064119800925255,0.004600344225764275,-0.00013875069271307439
1738772467931752700,11.187752685546876,0.0018343853298574686,0.004218180663883686,-0.0004527373821474612
1738772467941743600,11.19774365234375,0.0016815199051052332,0.0036272252909839153,-0.00006125270738266408
1738772467951734500,11.207734619140625,0.003308178624138236,0.001981391804292798,-0.0006064017652533948
1738772467961725400,11.217725341796875,0.0015536881983280182,0.003316967049613595,0.0008756473544053733
1738772467971716600,11.227716552734375,0.0016612798208370805,0.004508465528488159,0.0005984122981317341
1738772467981708500,11.23770849609375,0.00007776429993100464,0.0038959383964538574,0.0008420915110036731
1738772467991699700,11.24769970703125,0.0006056028068996966,0.00379021093249321,0.0011084076249971986
1738772468001690600,11.257690673828124,0.0017699368763715029,0.00395585922524333,0.0002849582233466208
1738772468011681500,11.267681640625,0.0012309130979701877,0.003668770659714937,0.0005933523061685264
1738772468021672400,11.27767236328125,0.0006543386843986809,0.004890895448625088,0.000017843178284238093
1738772468031664600,11.28766455078125,0.0016266588354483247,0.004318848252296448,0.0005635248962789774
1738772468041655600,11.297655517578125,0.0025867284275591373,0.003825897118076682,0.0009648632840253413
1738772468051646500,11.307646484375,0.000368847802747041,0.0028503811918199062,0.001386707997880876
1738772468061637600,11.3176376953125,0.002432531211525202,0.0046639940701425076,0.0004165183927398175
1738772468071628500,11.327628662109374,0.0012695288751274347,0.0026162895374000072,0.00031611722079105675
1738772468081620700,11.337620849609374,0.0013632721966132522,0.004078364931046963,-0.00126766471657902
1738772468091611600,11.347611572265626,0.0014306501252576709,0.003025617217645049,-0.0003502056933939457
1738772468101602600,11.3576025390625,0.0022242721170186996,0.0028991170693188906,0.00032890037982724607
1738772468111593500,11.367593505859375,0.0007211840129457414,0.004968925844877958,0.000937166390940547
1738772468121584600,11.377584716796875,0.0006732470938004553,0.00384400668554008,-0.0003736414946615696
1738772468131575600,11.387575439453125,0.0017206683987751603,0.003200586885213852,0.0005954828229732811
1738772468141567500,11.3975673828125,0.001181644620373845,0.0036754286848008633,0.0017994979862123728
1738772468151558700,11.40755859375,0.0013627394801005721,0.0025542378425598145,0.0006317017832770944
1738772468161549600,11.417549560546876,0.0008641957538202405,0.003531085327267647,0.0018170748371630907
1738772468171540500,11.42754052734375,0.0007241134881041944,0.0040823593735694885,-0.000015180017726379447
1738772468181531600,11.43753173828125,0.00022903185163158923,0.0037345506716519594,-0.0006777744856663048
1738772468191523600,11.447523681640625,0.002746251644566655,0.0034386736806482077,-0.000020240024241502397
1738772468201514500,11.457514404296875,0.0029055087361484766,0.004372910596430302,-0.0006439523422159255
1738772468211505700,11.467505615234375,0.0013225257862359285,0.004147340543568134,-0.0005613943794742227
1738772468221496600,11.47749658203125,0.0003510046226438135,0.004563592839986086,0.0024706146214157343
1738772468231487500,11.487487548828126,0.0010546117555350065,0.002743055811151862,0.001210406655445695
1738772468241479700,11.497479736328126,0.0011145329335704446,0.003287938656285405,0.0017483652336522937
1738772468251470600,11.507470703125,0.0025505092926323414,0.005017395596951246,0.0005643238546326756
1738772468261461500,11.51746142578125,0.0006697850185446441,0.0041124531999230385,-0.00013369068619795144
1738772468271452700,11.52745263671875,0.0022266688756644726,0.00515880947932601,0.001981391804292798
1738772468281443600,11.537443603515625,0.0012101404136046767,0.0019270633347332478,-0.00028522455249913037
1738772468291434500,11.5474345703125,0.0007864314829930663,0.004464523401111364,0.0003235740587115288
1738772468301426700,11.5574267578125,0.0001555285998620093,0.0038131140172481537,-0.0006900250446051359
1738772468311417600,11.56741748046875,0.0015427692560479045,0.005102084018290043,0.00008229167724493891
1738772468321408500,11.577408447265626,0.0005334311863407493,0.00341523764654994,0.0006410228670574725
1738772468331400000,11.58739990234375,0.002043709857389331,0.004474909510463476,0.0013486248208209872
1738772468341390800,11.597390869140625,0.0010665960144251585,0.0032056469935923815,0.0010314423125237226
1738772468351383000,11.607383056640625,0.0030362699180841446,0.004067711997777224,-0.000018109494703821838
1738772468361374000,11.6173740234375,0.0017022925894707441,0.0034290861804038286,0.0014817827614024282
1738772468371365000,11.627365234375,0.0008511462947353721,0.003136138431727886,0.00018881811411119998
1738772468381356000,11.63735595703125,0.0015033544041216373,0.003853327827528119,-0.00034408041392453015
1738772468391347000,11.647346923828126,-0.0009387642494402826,0.003323358716443181,-0.00007962851668708026
1738772468401339100,11.657339111328126,0.0014207963831722736,0.0041337586008012295,-0.001136637176387012
1738772468411330000,11.667330078125,0.000523843802511692,0.003040797309949994,0.0002854908525478095
1738772468421321000,11.677321044921875,0.0016980315558612347,0.004472246393561363,0.0016277240356430411
